"Condition","Talker","Target","Trial","current_stimulus","response_response","response_time_response","subject_nr","time_Audio1","time_Audio10","time_Audio11","time_Audio12","time_Audio13","time_Audio14","time_Audio15","time_Audio16","time_Audio2","time_Audio3","time_Audio4","time_Audio5","time_Audio6","time_Audio7","time_Audio8","time_Audio9","time_response","title"
"Blocked","Male","done","23","M_lash.wav","NA","NA","201","942184.464885","NA","NA","NA","NA","NA","NA","NA","NA","NA","NA","NA","NA","NA","NA","NA","NA","Mapping"
"Blocked","Male","done","23","M_bluff.wav","None","716.102846432","201","942184.464885","NA","NA","NA","NA","NA","NA","NA","942951.994356","NA","NA","NA","NA","NA","NA","NA","942199.628809","Mapping"
"Blocked","Male","done","23","M_knife.wav","None","718.435543589","201","942184.464885","NA","NA","NA","NA","NA","NA","NA","942951.994356","943702.086566","NA","NA","NA","NA","NA","NA","942963.11803","Mapping"
"Blocked","Male","done","23","M_done.wav","None","735.715745483","201","942184.464885","NA","NA","NA","NA","NA","NA","NA","942951.994356","943702.086566","944469.230501","NA","NA","NA","NA","NA","943711.653562","Mapping"
"Blocked","Male","done","23","M_cad.wav","space","564.673532266","201","942184.464885","NA","NA","NA","NA","NA","NA","NA","942951.994356","943702.086566","944469.230501","945236.320948","NA","NA","NA","NA","944479.274857","Mapping"
"Blocked","Male","done","23","M_jaw.wav","None","733.388612978","201","942184.464885","NA","NA","NA","NA","NA","NA","NA","942951.994356","943702.086566","944469.230501","945236.320948","946004.056946","NA","NA","NA","945246.066337","Mapping"
"Blocked","Male","done","23","M_gnash.wav","None","731.13475414","201","942184.464885","NA","NA","NA","NA","NA","NA","NA","942951.994356","943702.086566","944469.230501","945236.320948","946004.056946","946771.08154","NA","NA","946013.970523","Mapping"
"Blocked","Male","done","23","M_done.wav","None","730.159319006","201","942184.464885","NA","NA","NA","NA","NA","NA","NA","942951.994356","943702.086566","944469.230501","945236.320948","946004.056946","946771.08154","947538.263503","NA","946780.945031","Mapping"
"Blocked","Male","done","23","M_jolt.wav","space","487.596202642","201","942184.464885","NA","NA","NA","NA","NA","NA","NA","942951.994356","943702.086566","944469.230501","945236.320948","946004.056946","946771.08154","947538.263503","948305.427842","947548.252517","Mapping"
"Blocked","Male","done","23","M_done.wav","None","724.15768588","201","942184.464885","949072.853741","NA","NA","NA","NA","NA","NA","942951.994356","943702.086566","944469.230501","945236.320948","946004.056946","946771.08154","947538.263503","948305.427842","948316.000264","Mapping"
"Blocked","Male","done","23","M_greet.wav","space","536.852444522","201","942184.464885","949072.853741","949823.486383","NA","NA","NA","NA","NA","942951.994356","943702.086566","944469.230501","945236.320948","946004.056946","946771.08154","947538.263503","948305.427842","949082.983738","Mapping"
"Blocked","Male","done","23","M_ball.wav","None","735.59733294","201","942184.464885","949072.853741","949823.486383","950590.504175","NA","NA","NA","NA","942951.994356","943702.086566","944469.230501","945236.320948","946004.056946","946771.08154","947538.263503","948305.427842","949832.864475","Mapping"
"Blocked","Male","done","23","M_done.wav","None","734.241926111","201","942184.464885","949072.853741","949823.486383","950590.504175","951357.229491","NA","NA","NA","942951.994356","943702.086566","944469.230501","945236.320948","946004.056946","946771.08154","947538.263503","948305.427842","950599.929571","Mapping"
"Blocked","Male","done","23","M_depth.wav","space","549.656155054","201","942184.464885","949072.853741","949823.486383","950590.504175","951357.229491","952124.798536","NA","NA","942951.994356","943702.086566","944469.230501","945236.320948","946004.056946","946771.08154","947538.263503","948305.427842","951366.143518","Mapping"
"Blocked","Male","done","23","M_gnash.wav","None","731.563884299","201","942184.464885","949072.853741","949823.486383","950590.504175","951357.229491","952124.798536","952892.281631","NA","942951.994356","943702.086566","944469.230501","945236.320948","946004.056946","946771.08154","947538.263503","948305.427842","952134.039048","Mapping"
"Blocked","Male","done","23","M_greet.wav","None","726.417419035","201","942184.464885","949072.853741","949823.486383","950590.504175","951357.229491","952124.798536","952892.281631","953659.530684","942951.994356","943702.086566","944469.230501","945236.320948","946004.056946","946771.08154","947538.263503","948305.427842","952901.826677","Mapping"
"Blocked","Male","cave","10","M_dime.wav","None","721.451509744","201","956794.714284","949072.853741","949823.486383","950590.504175","951357.229491","952124.798536","952892.281631","953659.530684","942951.994356","943702.086566","944469.230501","945236.320948","946004.056946","946771.08154","947538.263503","948305.427842","953669.52341","Mapping"
"Blocked","Male","cave","10","M_cad.wav","None","723.255215213","201","956794.714284","949072.853741","949823.486383","950590.504175","951357.229491","952124.798536","952892.281631","953659.530684","957545.674647","943702.086566","944469.230501","945236.320948","946004.056946","946771.08154","947538.263503","948305.427842","956803.798973","Mapping"
"Blocked","Male","cave","10","M_lash.wav","None","734.270060435","201","956794.714284","949072.853741","949823.486383","950590.504175","951357.229491","952124.798536","952892.281631","953659.530684","957545.674647","958313.152487","944469.230501","945236.320948","946004.056946","946771.08154","947538.263503","948305.427842","957555.716531","Mapping"
"Blocked","Male","cave","10","M_gnash.wav","None","730.534653179","201","956794.714284","949072.853741","949823.486383","950590.504175","951357.229491","952124.798536","952892.281631","953659.530684","957545.674647","958313.152487","959080.610539","945236.320948","946004.056946","946771.08154","947538.263503","948305.427842","958322.371665","Mapping"
"Blocked","Male","cave","10","M_priest.wav","None","726.684233639","201","956794.714284","949072.853741","949823.486383","950590.504175","951357.229491","952124.798536","952892.281631","953659.530684","957545.674647","958313.152487","959080.610539","959847.568352","946004.056946","946771.08154","947538.263503","948305.427842","959089.643287","Mapping"
"Blocked","Male","cave","10","M_cave.wav","None","724.879600573","201","956794.714284","949072.853741","949823.486383","950590.504175","951357.229491","952124.798536","952892.281631","953659.530684","957545.674647","958313.152487","959080.610539","959847.568352","960614.766701","946771.08154","947538.263503","948305.427842","959857.316214","Mapping"
"Blocked","Male","cave","10","M_park.wav","None","723.214404657","201","956794.714284","949072.853741","949823.486383","950590.504175","951357.229491","952124.798536","952892.281631","953659.530684","957545.674647","958313.152487","959080.610539","959847.568352","960614.766701","961382.070786","947538.263503","948305.427842","960624.705012","Mapping"
"Blocked","Male","cave","10","M_done.wav","space","0.0346270389855","201","956794.714284","949072.853741","949823.486383","950590.504175","951357.229491","952124.798536","952892.281631","953659.530684","957545.674647","958313.152487","959080.610539","959847.568352","960614.766701","961382.070786","962132.221739","948305.427842","961391.686631","Mapping"
"Blocked","Male","cave","10","M_cave.wav","None","734.883147292","201","956794.714284","949072.853741","949823.486383","950590.504175","951357.229491","952124.798536","952892.281631","953659.530684","957545.674647","958313.152487","959080.610539","959847.568352","960614.766701","961382.070786","962132.221739","962899.360727","962141.815324","Mapping"
"Blocked","Male","cave","10","M_greet.wav","None","730.973676313","201","956794.714284","963667.105381","949823.486383","950590.504175","951357.229491","952124.798536","952892.281631","953659.530684","957545.674647","958313.152487","959080.610539","959847.568352","960614.766701","961382.070786","962132.221739","962899.360727","962908.60062","Mapping"
"Blocked","Male","cave","10","M_cave.wav","space","38.3517704904","201","956794.714284","963667.105381","964434.087","950590.504175","951357.229491","952124.798536","952892.281631","953659.530684","957545.674647","958313.152487","959080.610539","959847.568352","960614.766701","961382.070786","962132.221739","962899.360727","963677.119439","Mapping"
"Blocked","Male","cave","10","M_done.wav","space","703.756400384","201","956794.714284","963667.105381","964434.087","965184.521463","951357.229491","952124.798536","952892.281631","953659.530684","957545.674647","958313.152487","959080.610539","959847.568352","960614.766701","961382.070786","962132.221739","962899.360727","964443.613186","Mapping"
"Blocked","Male","cave","10","M_cave.wav","None","733.966145199","201","956794.714284","963667.105381","964434.087","965184.521463","965951.732488","952124.798536","952892.281631","953659.530684","957545.674647","958313.152487","959080.610539","959847.568352","960614.766701","961382.070786","962132.221739","962899.360727","965193.519894","Mapping"
"Blocked","Male","cave","10","M_depth.wav","space","698.421340436","201","956794.714284","963667.105381","964434.087","965184.521463","965951.732488","966719.031008","952892.281631","953659.530684","957545.674647","958313.152487","959080.610539","959847.568352","960614.766701","961382.070786","962132.221739","962899.360727","965960.995569","Mapping"
"Blocked","Male","cave","10","M_dime.wav","None","724.300214089","201","956794.714284","963667.105381","964434.087","965184.521463","965951.732488","966719.031008","967486.490915","953659.530684","957545.674647","958313.152487","959080.610539","959847.568352","960614.766701","961382.070786","962132.221739","962899.360727","966729.134107","Mapping"
"Blocked","Male","cave","10","M_gnash.wav","None","719.733444974","201","956794.714284","963667.105381","964434.087","965184.521463","965951.732488","966719.031008","967486.490915","968236.792125","957545.674647","958313.152487","959080.610539","959847.568352","960614.766701","961382.070786","962132.221739","962899.360727","967496.53589","Mapping"
"Blocked","Male","tile","17","M_gnash.wav","None","732.924237847","201","971355.60325","963667.105381","964434.087","965184.521463","965951.732488","966719.031008","967486.490915","968236.792125","957545.674647","958313.152487","959080.610539","959847.568352","960614.766701","961382.070786","962132.221739","962899.360727","968246.186913","Mapping"
"Blocked","Male","tile","17","M_park.wav","None","735.260026995","201","971355.60325","963667.105381","964434.087","965184.521463","965951.732488","966719.031008","967486.490915","968236.792125","972122.925577","958313.152487","959080.610539","959847.568352","960614.766701","961382.070786","962132.221739","962899.360727","971365.301026","Mapping"
"Blocked","Male","tile","17","M_tile.wav","None","731.873673853","201","971355.60325","963667.105381","964434.087","965184.521463","965951.732488","966719.031008","967486.490915","968236.792125","972122.925577","972890.337253","959080.610539","959847.568352","960614.766701","961382.070786","962132.221739","962899.360727","972132.115384","Mapping"
"Blocked","Male","tile","17","M_knife.wav","None","730.444993358","201","971355.60325","963667.105381","964434.087","965184.521463","965951.732488","966719.031008","967486.490915","968236.792125","972122.925577","972890.337253","973657.557862","959847.568352","960614.766701","961382.070786","962132.221739","962899.360727","972899.984634","Mapping"
"Blocked","Male","tile","17","M_jaw.wav","space","0.115939415991","201","971355.60325","963667.105381","964434.087","965184.521463","965951.732488","966719.031008","967486.490915","968236.792125","972122.925577","972890.337253","973657.557862","974424.894101","960614.766701","961382.070786","962132.221739","962899.360727","973667.114038","Mapping"
"Blocked","Male","tile","17","M_reek.wav","None","721.750169527","201","971355.60325","963667.105381","964434.087","965184.521463","965951.732488","966719.031008","967486.490915","968236.792125","972122.925577","972890.337253","973657.557862","974424.894101","975192.285991","961382.070786","962132.221739","962899.360727","974434.373911","Mapping"
"Blocked","Male","tile","17","M_cave.wav","None","720.394762233","201","971355.60325","963667.105381","964434.087","965184.521463","965951.732488","966719.031008","967486.490915","968236.792125","972122.925577","972890.337253","973657.557862","974424.894101","975192.285991","975942.46817","962132.221739","962899.360727","975201.839074","Mapping"
"Blocked","Male","tile","17","M_depth.wav","None","732.593424618","201","971355.60325","963667.105381","964434.087","965184.521463","965951.732488","966719.031008","967486.490915","968236.792125","972122.925577","972890.337253","973657.557862","974424.894101","975192.285991","975942.46817","976709.656007","962899.360727","975952.523039","Mapping"
"Blocked","Male","tile","17","M_done.wav","None","728.955715429","201","971355.60325","963667.105381","964434.087","965184.521463","965951.732488","966719.031008","967486.490915","968236.792125","972122.925577","972890.337253","973657.557862","974424.894101","975192.285991","975942.46817","976709.656007","977476.890837","976719.55969","Mapping"
"Blocked","Male","tile","17","M_tile.wav","None","725.31955177","201","971355.60325","978244.502857","964434.087","965184.521463","965951.732488","966719.031008","967486.490915","968236.792125","972122.925577","972890.337253","973657.557862","974424.894101","975192.285991","975942.46817","976709.656007","977476.890837","977486.197512","Mapping"
"Blocked","Male","tile","17","M_park.wav","space","524.859072175","201","971355.60325","978244.502857","978994.816434","965184.521463","965951.732488","966719.031008","967486.490915","968236.792125","972122.925577","972890.337253","973657.557862","974424.894101","975192.285991","975942.46817","976709.656007","977476.890837","978254.279781","Mapping"
"Blocked","Male","tile","17","M_tile.wav","None","732.898576651","201","971355.60325","978244.502857","978994.816434","979762.151436","965951.732488","966719.031008","967486.490915","968236.792125","972122.925577","972890.337253","973657.557862","974424.894101","975192.285991","975942.46817","976709.656007","977476.890837","979004.594286","Mapping"
"Blocked","Male","tile","17","M_jaw.wav","space","655.230729841","201","971355.60325","978244.502857","978994.816434","979762.151436","980529.236319","966719.031008","967486.490915","968236.792125","972122.925577","972890.337253","973657.557862","974424.894101","975192.285991","975942.46817","976709.656007","977476.890837","979771.817058","Mapping"
"Blocked","Male","tile","17","M_tile.wav","None","724.365139846","201","971355.60325","978244.502857","978994.816434","979762.151436","980529.236319","981296.698082","967486.490915","968236.792125","972122.925577","972890.337253","973657.557862","974424.894101","975192.285991","975942.46817","976709.656007","977476.890837","980538.910907","Mapping"
"Blocked","Male","tile","17","M_cling.wav","space","480.17269047","201","971355.60325","978244.502857","978994.816434","979762.151436","980529.236319","981296.698082","982046.68672","968236.792125","972122.925577","972890.337253","973657.557862","974424.894101","975192.285991","975942.46817","976709.656007","977476.890837","981306.840446","Mapping"
"Blocked","Male","tile","17","M_lash.wav","None","735.465316568","201","971355.60325","978244.502857","978994.816434","979762.151436","980529.236319","981296.698082","982046.68672","982814.6379","972122.925577","972890.337253","973657.557862","974424.894101","975192.285991","975942.46817","976709.656007","977476.890837","982056.600915","Mapping"
"Blocked","Male","tile","15","M_gnash.wav","None","730.241249781","201","985933.133361","978244.502857","978994.816434","979762.151436","980529.236319","981296.698082","982046.68672","982814.6379","972122.925577","972890.337253","973657.557862","974424.894101","975192.285991","975942.46817","976709.656007","977476.890837","982824.792013","Mapping"
"Blocked","Male","tile","15","M_tile.wav","None","735.542609822","201","985933.133361","978244.502857","978994.816434","979762.151436","980529.236319","981296.698082","982046.68672","982814.6379","986700.554932","972890.337253","973657.557862","974424.894101","975192.285991","975942.46817","976709.656007","977476.890837","985942.854325","Mapping"
"Blocked","Male","tile","15","M_cave.wav","space","444.96055413","201","985933.133361","978244.502857","978994.816434","979762.151436","980529.236319","981296.698082","982046.68672","982814.6379","986700.554932","987467.841394","973657.557862","974424.894101","975192.285991","975942.46817","976709.656007","977476.890837","986709.948792","Mapping"
"Blocked","Male","tile","15","M_knife.wav","None","726.857369766","201","985933.133361","978244.502857","978994.816434","979762.151436","980529.236319","981296.698082","982046.68672","982814.6379","986700.554932","987467.841394","988235.220299","974424.894101","975192.285991","975942.46817","976709.656007","977476.890837","987477.503306","Mapping"
"Blocked","Male","tile","15","M_jolt.wav","None","722.569473088","201","985933.133361","978244.502857","978994.816434","979762.151436","980529.236319","981296.698082","982046.68672","982814.6379","986700.554932","987467.841394","988235.220299","988985.379908","975192.285991","975942.46817","976709.656007","977476.890837","988244.913437","Mapping"
"Blocked","Male","tile","15","M_tile.wav","None","733.747560997","201","985933.133361","978244.502857","978994.816434","979762.151436","980529.236319","981296.698082","982046.68672","982814.6379","986700.554932","987467.841394","988235.220299","988985.379908","989752.883409","975942.46817","976709.656007","977476.890837","988996.759885","Mapping"
"Blocked","Male","tile","15","M_cave.wav","space","647.955929395","201","985933.133361","978244.502857","978994.816434","979762.151436","980529.236319","981296.698082","982046.68672","982814.6379","986700.554932","987467.841394","988235.220299","988985.379908","989752.883409","990519.954688","976709.656007","977476.890837","989762.841198","Mapping"
"Blocked","Male","tile","15","M_romp.wav","None","726.878702641","201","985933.133361","978244.502857","978994.816434","979762.151436","980529.236319","981296.698082","982046.68672","982814.6379","986700.554932","987467.841394","988235.220299","988985.379908","989752.883409","990519.954688","991287.567017","977476.890837","990529.525703","Mapping"
"Blocked","Male","tile","15","M_tile.wav","None","725.271320902","201","985933.133361","978244.502857","978994.816434","979762.151436","980529.236319","981296.698082","982046.68672","982814.6379","986700.554932","987467.841394","988235.220299","988985.379908","989752.883409","990519.954688","991287.567017","992054.504734","991297.271904","Mapping"
"Blocked","Male","tile","15","M_jolt.wav","space","570.686604362","201","985933.133361","992804.948163","978994.816434","979762.151436","980529.236319","981296.698082","982046.68672","982814.6379","986700.554932","987467.841394","988235.220299","988985.379908","989752.883409","990519.954688","991287.567017","992054.504734","992064.098319","Mapping"
"Blocked","Male","tile","15","M_park.wav","None","734.121349175","201","985933.133361","992804.948163","993572.406524","979762.151436","980529.236319","981296.698082","982046.68672","982814.6379","986700.554932","987467.841394","988235.220299","988985.379908","989752.883409","990519.954688","991287.567017","992054.504734","992814.789703","Mapping"
"Blocked","Male","tile","15","M_done.wav","None","729.75214012","201","985933.133361","992804.948163","993572.406524","994339.370521","980529.236319","981296.698082","982046.68672","982814.6379","986700.554932","987467.841394","988235.220299","988985.379908","989752.883409","990519.954688","991287.567017","992054.504734","993582.293513","Mapping"
"Blocked","Male","tile","15","M_priest.wav","None","726.357749198","201","985933.133361","992804.948163","993572.406524","994339.370521","995106.814661","981296.698082","982046.68672","982814.6379","986700.554932","987467.841394","988235.220299","988985.379908","989752.883409","990519.954688","991287.567017","992054.504734","994348.877538","Mapping"
"Blocked","Male","tile","15","M_park.wav","None","721.968444064","201","985933.133361","992804.948163","993572.406524","994339.370521","995106.814661","995856.957266","982046.68672","982814.6379","986700.554932","987467.841394","988235.220299","988985.379908","989752.883409","990519.954688","991287.567017","992054.504734","995116.553247","Mapping"
"Blocked","Male","tile","15","M_tile.wav","None","735.234984197","201","985933.133361","992804.948163","993572.406524","994339.370521","995106.814661","995856.957266","996624.36987","982814.6379","986700.554932","987467.841394","988235.220299","988985.379908","989752.883409","990519.954688","991287.567017","992054.504734","995866.529518","Mapping"
"Blocked","Male","tile","15","M_cling.wav","space","472.97456488","201","985933.133361","992804.948163","993572.406524","994339.370521","995106.814661","995856.957266","996624.36987","997391.683849","986700.554932","987467.841394","988235.220299","988985.379908","989752.883409","990519.954688","991287.567017","992054.504734","996633.6818","Mapping"
"Blocked","Male","cave","12","M_bluff.wav","None","725.969120394","201","1000493.88506","992804.948163","993572.406524","994339.370521","995106.814661","995856.957266","996624.36987","997391.683849","986700.554932","987467.841394","988235.220299","988985.379908","989752.883409","990519.954688","991287.567017","992054.504734","997401.716766","Mapping"
"Blocked","Male","cave","12","M_greet.wav","None","735.430380329","201","1000493.88506","992804.948163","993572.406524","994339.370521","995106.814661","995856.957266","996624.36987","997391.683849","1001261.06238","987467.841394","988235.220299","988985.379908","989752.883409","990519.954688","991287.567017","992054.504734","1000503.42886","Mapping"
"Blocked","Male","cave","12","M_ball.wav","None","731.776284985","201","1000493.88506","992804.948163","993572.406524","994339.370521","995106.814661","995856.957266","996624.36987","997391.683849","1001261.06238","1002028.7384","988235.220299","988985.379908","989752.883409","990519.954688","991287.567017","992054.504734","1001270.09327","Mapping"
"Blocked","Male","cave","12","M_cave.wav","None","726.695363875","201","1000493.88506","992804.948163","993572.406524","994339.370521","995106.814661","995856.957266","996624.36987","997391.683849","1001261.06238","1002028.7384","1002795.23864","988985.379908","989752.883409","990519.954688","991287.567017","992054.504734","1002038.31467","Mapping"
"Blocked","Male","cave","12","M_gnash.wav","space","630.238250364","201","1000493.88506","992804.948163","993572.406524","994339.370521","995106.814661","995856.957266","996624.36987","997391.683849","1001261.06238","1002028.7384","1002795.23864","1003545.83696","989752.883409","990519.954688","991287.567017","992054.504734","1002804.30601","Mapping"
"Blocked","Male","cave","12","M_cave.wav","None","735.768613406","201","1000493.88506","992804.948163","993572.406524","994339.370521","995106.814661","995856.957266","996624.36987","997391.683849","1001261.06238","1002028.7384","1002795.23864","1003545.83696","1004313.59646","990519.954688","991287.567017","992054.504734","1003555.38015","Mapping"
"Blocked","Male","cave","12","M_gnash.wav","space","655.898230616","201","1000493.88506","992804.948163","993572.406524","994339.370521","995106.814661","995856.957266","996624.36987","997391.683849","1001261.06238","1002028.7384","1002795.23864","1003545.83696","1004313.59646","1005080.83438","991287.567017","992054.504734","1004322.62055","Mapping"
"Blocked","Male","cave","12","M_cave.wav","None","726.553763729","201","1000493.88506","992804.948163","993572.406524","994339.370521","995106.814661","995856.957266","996624.36987","997391.683849","1001261.06238","1002028.7384","1002795.23864","1003545.83696","1004313.59646","1005080.83438","1005848.49618","992054.504734","1005090.22237","Mapping"
"Blocked","Male","cave","12","M_jaw.wav","space","480.849157553","201","1000493.88506","992804.948163","993572.406524","994339.370521","995106.814661","995856.957266","996624.36987","997391.683849","1001261.06238","1002028.7384","1002795.23864","1003545.83696","1004313.59646","1005080.83438","1005848.49618","1006598.49687","1005857.61549","Mapping"
"Blocked","Male","cave","12","M_ball.wav","None","733.959343284","201","1000493.88506","1007366.05633","993572.406524","994339.370521","995106.814661","995856.957266","996624.36987","997391.683849","1001261.06238","1002028.7384","1002795.23864","1003545.83696","1004313.59646","1005080.83438","1005848.49618","1006598.49687","1006608.59657","Mapping"
"Blocked","Male","cave","12","M_knife.wav","None","730.507755186","201","1000493.88506","1007366.05633","1008132.87595","994339.370521","995106.814661","995856.957266","996624.36987","997391.683849","1001261.06238","1002028.7384","1002795.23864","1003545.83696","1004313.59646","1005080.83438","1005848.49618","1006598.49687","1007375.1571","Mapping"
"Blocked","Male","cave","12","M_lash.wav","None","726.714532822","201","1000493.88506","1007366.05633","1008132.87595","1008900.36615","995106.814661","995856.957266","996624.36987","997391.683849","1001261.06238","1002028.7384","1002795.23864","1003545.83696","1004313.59646","1005080.83438","1005848.49618","1006598.49687","1008142.1616","Mapping"
"Blocked","Male","cave","12","M_cad.wav","None","722.35923633","201","1000493.88506","1007366.05633","1008132.87595","1008900.36615","1009650.80494","995856.957266","996624.36987","997391.683849","1001261.06238","1002028.7384","1002795.23864","1003545.83696","1004313.59646","1005080.83438","1005848.49618","1006598.49687","1008909.77887","Mapping"
"Blocked","Male","cave","12","M_depth.wav","None","734.812965617","201","1000493.88506","1007366.05633","1008132.87595","1008900.36615","1009650.80494","1010417.88148","996624.36987","997391.683849","1001261.06238","1002028.7384","1002795.23864","1003545.83696","1004313.59646","1005080.83438","1005848.49618","1006598.49687","1009660.45882","Mapping"
"Blocked","Male","cave","12","M_cave.wav","None","730.869176332","201","1000493.88506","1007366.05633","1008132.87595","1008900.36615","1009650.80494","1010417.88148","1011185.14475","997391.683849","1001261.06238","1002028.7384","1002795.23864","1003545.83696","1004313.59646","1005080.83438","1005848.49618","1006598.49687","1010427.54339","Mapping"
"Blocked","Male","cave","12","M_jaw.wav","space","720.02282925","201","1000493.88506","1007366.05633","1008132.87595","1008900.36615","1009650.80494","1010417.88148","1011185.14475","1011952.33537","1001261.06238","1002028.7384","1002795.23864","1003545.83696","1004313.59646","1005080.83438","1005848.49618","1006598.49687","1011194.29035","Mapping"
"Blocked","Male","done","20","M_park.wav","None","722.61955915","201","1015054.6958","1007366.05633","1008132.87595","1008900.36615","1009650.80494","1010417.88148","1011185.14475","1011952.33537","1001261.06238","1002028.7384","1002795.23864","1003545.83696","1004313.59646","1005080.83438","1005848.49618","1006598.49687","1011961.44727","Mapping"
"Blocked","Male","done","20","M_done.wav","None","735.414612573","201","1015054.6958","1007366.05633","1008132.87595","1008900.36615","1009650.80494","1010417.88148","1011185.14475","1011952.33537","1015821.93527","1002028.7384","1002795.23864","1003545.83696","1004313.59646","1005080.83438","1005848.49618","1006598.49687","1015064.08873","Mapping"
"Blocked","Male","done","20","M_greet.wav","space","450.1904957","201","1015054.6958","1007366.05633","1008132.87595","1008900.36615","1009650.80494","1010417.88148","1011185.14475","1011952.33537","1015821.93527","1016589.40198","1002795.23864","1003545.83696","1004313.59646","1005080.83438","1005848.49618","1006598.49687","1015832.00869","Mapping"
"Blocked","Male","done","20","M_cave.wav","None","726.286021527","201","1015054.6958","1007366.05633","1008132.87595","1008900.36615","1009650.80494","1010417.88148","1011185.14475","1011952.33537","1015821.93527","1016589.40198","1017356.53942","1003545.83696","1004313.59646","1005080.83438","1005848.49618","1006598.49687","1016599.06482","Mapping"
"Blocked","Male","done","20","M_romp.wav","None","722.321517766","201","1015054.6958","1007366.05633","1008132.87595","1008900.36615","1009650.80494","1010417.88148","1011185.14475","1011952.33537","1015821.93527","1016589.40198","1017356.53942","1018106.83321","1004313.59646","1005080.83438","1005848.49618","1006598.49687","1017366.33242","Mapping"
"Blocked","Male","done","20","M_reek.wav","None","735.730276443","201","1015054.6958","1007366.05633","1008132.87595","1008900.36615","1009650.80494","1010417.88148","1011185.14475","1011952.33537","1015821.93527","1016589.40198","1017356.53942","1018106.83321","1018874.19202","1005080.83438","1005848.49618","1006598.49687","1018116.24098","Mapping"
"Blocked","Male","done","20","M_jolt.wav","None","731.361067854","201","1015054.6958","1007366.05633","1008132.87595","1008900.36615","1009650.80494","1010417.88148","1011185.14475","1011952.33537","1015821.93527","1016589.40198","1017356.53942","1018106.83321","1018874.19202","1019641.18415","1005848.49618","1006598.49687","1018883.8932","Mapping"
"Blocked","Male","done","20","M_ball.wav","None","727.906387765","201","1015054.6958","1007366.05633","1008132.87595","1008900.36615","1009650.80494","1010417.88148","1011185.14475","1011952.33537","1015821.93527","1016589.40198","1017356.53942","1018106.83321","1018874.19202","1019641.18415","1020408.68085","1006598.49687","1019650.62315","Mapping"
"Blocked","Male","done","20","M_done.wav","None","723.680325784","201","1015054.6958","1007366.05633","1008132.87595","1008900.36615","1009650.80494","1010417.88148","1011185.14475","1011952.33537","1015821.93527","1016589.40198","1017356.53942","1018106.83321","1018874.19202","1019641.18415","1020408.68085","1021159.49528","1020418.16282","Mapping"
"Blocked","Male","done","20","M_tile.wav","space","496.795594227","201","1015054.6958","1021926.52761","1008132.87595","1008900.36615","1009650.80494","1010417.88148","1011185.14475","1011952.33537","1015821.93527","1016589.40198","1017356.53942","1018106.83321","1018874.19202","1019641.18415","1020408.68085","1021159.49528","1021169.24129","Mapping"
"Blocked","Male","done","20","M_cling.wav","None","731.411463115","201","1015054.6958","1021926.52761","1022693.85395","1008900.36615","1009650.80494","1010417.88148","1011185.14475","1011952.33537","1015821.93527","1016589.40198","1017356.53942","1018106.83321","1018874.19202","1019641.18415","1020408.68085","1021159.49528","1021936.33668","Mapping"
"Blocked","Male","done","20","M_done.wav","None","727.292682976","201","1015054.6958","1021926.52761","1022693.85395","1023461.05323","1009650.80494","1010417.88148","1011185.14475","1011952.33537","1015821.93527","1016589.40198","1017356.53942","1018106.83321","1018874.19202","1019641.18415","1020408.68085","1021159.49528","1022703.66798","Mapping"
"Blocked","Male","done","20","M_tile.wav","space","475.474833045","201","1015054.6958","1021926.52761","1022693.85395","1023461.05323","1024211.05949","1010417.88148","1011185.14475","1011952.33537","1015821.93527","1016589.40198","1017356.53942","1018106.83321","1018874.19202","1019641.18415","1020408.68085","1021159.49528","1023470.54479","Mapping"
"Blocked","Male","done","20","M_done.wav","None","736.778058112","201","1015054.6958","1021926.52761","1022693.85395","1023461.05323","1024211.05949","1024978.69717","1011185.14475","1011952.33537","1015821.93527","1016589.40198","1017356.53942","1018106.83321","1018874.19202","1019641.18415","1020408.68085","1021159.49528","1024220.22735","Mapping"
"Blocked","Male","done","20","M_cave.wav","space","653.581919614","201","1015054.6958","1021926.52761","1022693.85395","1023461.05323","1024211.05949","1024978.69717","1025745.80864","1011952.33537","1015821.93527","1016589.40198","1017356.53942","1018106.83321","1018874.19202","1019641.18415","1020408.68085","1021159.49528","1024988.38072","Mapping"
"Blocked","Male","done","20","M_park.wav","None","727.266403381","201","1015054.6958","1021926.52761","1022693.85395","1023461.05323","1024211.05949","1024978.69717","1025745.80864","1026513.53073","1015821.93527","1016589.40198","1017356.53942","1018106.83321","1018874.19202","1019641.18415","1020408.68085","1021159.49528","1025755.54847","Mapping"
"Blocked","Male","cave","11","M_knife.wav","None","722.873697523","201","1029615.49047","1021926.52761","1022693.85395","1023461.05323","1024211.05949","1024978.69717","1025745.80864","1026513.53073","1015821.93527","1016589.40198","1017356.53942","1018106.83321","1018874.19202","1019641.18415","1020408.68085","1021159.49528","1026523.17656","Mapping"
"Blocked","Male","cave","11","M_jaw.wav","None","735.833230428","201","1029615.49047","1021926.52761","1022693.85395","1023461.05323","1024211.05949","1024978.69717","1025745.80864","1026513.53073","1030382.52558","1016589.40198","1017356.53942","1018106.83321","1018874.19202","1019641.18415","1020408.68085","1021159.49528","1029624.61659","Mapping"
"Blocked","Male","cave","11","M_cave.wav","None","731.781849638","201","1029615.49047","1021926.52761","1022693.85395","1023461.05323","1024211.05949","1024978.69717","1025745.80864","1026513.53073","1030382.52558","1031149.90263","1017356.53942","1018106.83321","1018874.19202","1019641.18415","1020408.68085","1021159.49528","1030392.00044","Mapping"
"Blocked","Male","cave","11","M_lash.wav","space","562.869826797","201","1029615.49047","1021926.52761","1022693.85395","1023461.05323","1024211.05949","1024978.69717","1025745.80864","1026513.53073","1030382.52558","1031149.90263","1031917.35264","1018106.83321","1018874.19202","1019641.18415","1020408.68085","1021159.49528","1031158.99504","Mapping"
"Blocked","Male","cave","11","M_cave.wav","None","722.632544115","201","1029615.49047","1021926.52761","1022693.85395","1023461.05323","1024211.05949","1024978.69717","1025745.80864","1026513.53073","1030382.52558","1031149.90263","1031917.35264","1032667.84244","1018874.19202","1019641.18415","1020408.68085","1021159.49528","1031926.90603","Mapping"
"Blocked","Male","cave","11","M_romp.wav","space","628.376111854","201","1029615.49047","1021926.52761","1022693.85395","1023461.05323","1024211.05949","1024978.69717","1025745.80864","1026513.53073","1030382.52558","1031149.90263","1031917.35264","1032667.84244","1033434.95577","1019641.18415","1020408.68085","1021159.49528","1032677.37512","Mapping"
"Blocked","Male","cave","11","M_cave.wav","None","730.993463192","201","1029615.49047","1021926.52761","1022693.85395","1023461.05323","1024211.05949","1024978.69717","1025745.80864","1026513.53073","1030382.52558","1031149.90263","1031917.35264","1032667.84244","1033434.95577","1034202.38012","1020408.68085","1021159.49528","1033444.6115","Mapping"
"Blocked","Male","cave","11","M_gnash.wav","space","677.289483137","201","1029615.49047","1021926.52761","1022693.85395","1023461.05323","1024211.05949","1024978.69717","1025745.80864","1026513.53073","1030382.52558","1031149.90263","1031917.35264","1032667.84244","1033434.95577","1034202.38012","1034969.22725","1021159.49528","1034212.4353","Mapping"
"Blocked","Male","cave","11","M_ball.wav","None","722.694378346","201","1029615.49047","1021926.52761","1022693.85395","1023461.05323","1024211.05949","1024978.69717","1025745.80864","1026513.53073","1030382.52558","1031149.90263","1031917.35264","1032667.84244","1033434.95577","1034202.38012","1034969.22725","1035719.87381","1034978.89442","Mapping"
"Blocked","Male","cave","11","M_dime.wav","None","735.852089711","201","1029615.49047","1036487.76346","1022693.85395","1023461.05323","1024211.05949","1024978.69717","1025745.80864","1026513.53073","1030382.52558","1031149.90263","1031917.35264","1032667.84244","1033434.95577","1034202.38012","1034969.22725","1035719.87381","1035729.09113","Mapping"
"Blocked","Male","cave","11","M_reek.wav","None","730.994390324","201","1029615.49047","1036487.76346","1037254.47332","1023461.05323","1024211.05949","1024978.69717","1025745.80864","1026513.53073","1030382.52558","1031149.90263","1031917.35264","1032667.84244","1033434.95577","1034202.38012","1034969.22725","1035719.87381","1036497.36725","Mapping"
"Blocked","Male","cave","11","M_ball.wav","None","727.772516664","201","1029615.49047","1036487.76346","1037254.47332","1038021.43794","1024211.05949","1024978.69717","1025745.80864","1026513.53073","1030382.52558","1031149.90263","1031917.35264","1032667.84244","1033434.95577","1034202.38012","1034969.22725","1035719.87381","1037264.22675","Mapping"
"Blocked","Male","cave","11","M_priest.wav","None","724.490972701","201","1029615.49047","1036487.76346","1037254.47332","1038021.43794","1038788.94608","1024978.69717","1025745.80864","1026513.53073","1030382.52558","1031149.90263","1031917.35264","1032667.84244","1033434.95577","1034202.38012","1034969.22725","1035719.87381","1038030.85282","Mapping"
"Blocked","Male","cave","11","M_cave.wav","None","719.993458129","201","1029615.49047","1036487.76346","1037254.47332","1038021.43794","1038788.94608","1039539.50575","1025745.80864","1026513.53073","1030382.52558","1031149.90263","1031917.35264","1032667.84244","1033434.95577","1034202.38012","1034969.22725","1035719.87381","1038798.56934","Mapping"
"Blocked","Male","cave","11","M_knife.wav","space","540.039691143","201","1029615.49047","1036487.76346","1037254.47332","1038021.43794","1038788.94608","1039539.50575","1040306.62279","1026513.53073","1030382.52558","1031149.90263","1031917.35264","1032667.84244","1033434.95577","1034202.38012","1034969.22725","1035719.87381","1039549.57732","Mapping"
"Blocked","Male","cave","11","M_depth.wav","None","728.469697759","201","1029615.49047","1036487.76346","1037254.47332","1038021.43794","1038788.94608","1039539.50575","1040306.62279","1041074.21471","1030382.52558","1031149.90263","1031917.35264","1032667.84244","1033434.95577","1034202.38012","1034969.22725","1035719.87381","1040316.025","Mapping"
"Blocked","Male","ball","3","M_cave.wav","None","724.446452223","201","1044176.40819","1036487.76346","1037254.47332","1038021.43794","1038788.94608","1039539.50575","1040306.62279","1041074.21471","1030382.52558","1031149.90263","1031917.35264","1032667.84244","1033434.95577","1034202.38012","1034969.22725","1035719.87381","1041083.5959","Mapping"
"Blocked","Male","ball","3","M_greet.wav","None","736.125087831","201","1044176.40819","1036487.76346","1037254.47332","1038021.43794","1038788.94608","1039539.50575","1040306.62279","1041074.21471","1044943.40218","1031149.90263","1031917.35264","1032667.84244","1033434.95577","1034202.38012","1034969.22725","1035719.87381","1044185.88955","Mapping"
"Blocked","Male","ball","3","M_ball.wav","None","732.362783048","201","1044176.40819","1036487.76346","1037254.47332","1038021.43794","1038788.94608","1039539.50575","1040306.62279","1041074.21471","1044943.40218","1045710.53374","1031917.35264","1032667.84244","1033434.95577","1034202.38012","1034969.22725","1035719.87381","1044953.06502","Mapping"
"Blocked","Male","ball","3","M_romp.wav","space","465.619689319","201","1044176.40819","1036487.76346","1037254.47332","1038021.43794","1038788.94608","1039539.50575","1040306.62279","1041074.21471","1044943.40218","1045710.53374","1046477.51536","1032667.84244","1033434.95577","1034202.38012","1034969.22725","1035719.87381","1045719.91245","Mapping"
"Blocked","Male","ball","3","M_cad.wav","None","726.458538789","201","1044176.40819","1036487.76346","1037254.47332","1038021.43794","1038788.94608","1039539.50575","1040306.62279","1041074.21471","1044943.40218","1045710.53374","1046477.51536","1047244.87819","1033434.95577","1034202.38012","1034969.22725","1035719.87381","1046486.71661","Mapping"
"Blocked","Male","ball","3","M_reek.wav","None","722.690977156","201","1044176.40819","1036487.76346","1037254.47332","1038021.43794","1038788.94608","1039539.50575","1040306.62279","1041074.21471","1044943.40218","1045710.53374","1046477.51536","1047244.87819","1047995.68521","1034202.38012","1034969.22725","1035719.87381","1047254.09799","Mapping"
"Blocked","Male","ball","3","M_reek.wav","None","734.571193345","201","1044176.40819","1036487.76346","1037254.47332","1038021.43794","1038788.94608","1039539.50575","1040306.62279","1041074.21471","1044943.40218","1045710.53374","1046477.51536","1047244.87819","1047995.68521","1048762.62447","1034969.22725","1035719.87381","1048005.55797","Mapping"
"Blocked","Male","ball","3","M_ball.wav","None","731.472060084","201","1044176.40819","1036487.76346","1037254.47332","1038021.43794","1038788.94608","1039539.50575","1040306.62279","1041074.21471","1044943.40218","1045710.53374","1046477.51536","1047244.87819","1047995.68521","1048762.62447","1049530.55339","1035719.87381","1048772.03719","Mapping"
"Blocked","Male","ball","3","M_greet.wav","space","517.433086876","201","1044176.40819","1036487.76346","1037254.47332","1038021.43794","1038788.94608","1039539.50575","1040306.62279","1041074.21471","1044943.40218","1045710.53374","1046477.51536","1047244.87819","1047995.68521","1048762.62447","1049530.55339","1050297.42556","1049539.9389","Mapping"
"Blocked","Male","ball","3","M_cling.wav","None","722.515059169","201","1044176.40819","1051047.60156","1037254.47332","1038021.43794","1038788.94608","1039539.50575","1040306.62279","1041074.21471","1044943.40218","1045710.53374","1046477.51536","1047244.87819","1047995.68521","1048762.62447","1049530.55339","1050297.42556","1050307.11777","Mapping"
"Blocked","Male","ball","3","M_gnash.wav","None","736.331614666","201","1044176.40819","1051047.60156","1051815.30355","1038021.43794","1038788.94608","1039539.50575","1040306.62279","1041074.21471","1044943.40218","1045710.53374","1046477.51536","1047244.87819","1047995.68521","1048762.62447","1049530.55339","1050297.42556","1051057.11321","Mapping"
"Blocked","Male","ball","3","M_ball.wav","None","731.839973945","201","1044176.40819","1051047.60156","1051815.30355","1052582.41564","1038788.94608","1039539.50575","1040306.62279","1041074.21471","1044943.40218","1045710.53374","1046477.51536","1047244.87819","1047995.68521","1048762.62447","1049530.55339","1050297.42556","1051825.09005","Mapping"
"Blocked","Male","ball","3","M_greet.wav","None","728.760318831","201","1044176.40819","1051047.60156","1051815.30355","1052582.41564","1053349.92192","1039539.50575","1040306.62279","1041074.21471","1044943.40218","1045710.53374","1046477.51536","1047244.87819","1047995.68521","1048762.62447","1049530.55339","1050297.42556","1052591.48796","Mapping"
"Blocked","Male","ball","3","M_ball.wav","space","393.826714717","201","1044176.40819","1051047.60156","1051815.30355","1052582.41564","1053349.92192","1054116.91034","1040306.62279","1041074.21471","1044943.40218","1045710.53374","1046477.51536","1047244.87819","1047995.68521","1048762.62447","1049530.55339","1050297.42556","1053359.41781","Mapping"
"Blocked","Male","ball","3","M_cling.wav","None","720.575009007","201","1044176.40819","1051047.60156","1051815.30355","1052582.41564","1053349.92192","1054116.91034","1054867.46167","1041074.21471","1044943.40218","1045710.53374","1046477.51536","1047244.87819","1047995.68521","1048762.62447","1049530.55339","1050297.42556","1054125.93196","Mapping"
"Blocked","Male","ball","3","M_cave.wav","space","67.782713566","201","1044176.40819","1051047.60156","1051815.30355","1052582.41564","1053349.92192","1054116.91034","1054867.46167","1055634.94384","1044943.40218","1045710.53374","1046477.51536","1047244.87819","1047995.68521","1048762.62447","1049530.55339","1050297.42556","1054877.43213","Mapping"
"Blocked","Male","done","24","M_cave.wav","None","728.133010212","201","1058753.51226","1051047.60156","1051815.30355","1052582.41564","1053349.92192","1054116.91034","1054867.46167","1055634.94384","1044943.40218","1045710.53374","1046477.51536","1047244.87819","1047995.68521","1048762.62447","1049530.55339","1050297.42556","1055644.75786","Mapping"
"Blocked","Male","done","24","M_cave.wav","None","735.074833035","201","1058753.51226","1051047.60156","1051815.30355","1052582.41564","1053349.92192","1054116.91034","1054867.46167","1055634.94384","1059521.04266","1045710.53374","1046477.51536","1047244.87819","1047995.68521","1048762.62447","1049530.55339","1050297.42556","1058763.39585","Mapping"
"Blocked","Male","done","24","M_depth.wav","None","731.302325148","201","1058753.51226","1051047.60156","1051815.30355","1052582.41564","1053349.92192","1054116.91034","1054867.46167","1055634.94384","1059521.04266","1060288.58388","1046477.51536","1047244.87819","1047995.68521","1048762.62447","1049530.55339","1050297.42556","1059530.76548","Mapping"
"Blocked","Male","done","24","M_reek.wav","None","727.506011259","201","1058753.51226","1051047.60156","1051815.30355","1052582.41564","1053349.92192","1054116.91034","1054867.46167","1055634.94384","1059521.04266","1060288.58388","1061055.14379","1047244.87819","1047995.68521","1048762.62447","1049530.55339","1050297.42556","1060298.30639","Mapping"
"Blocked","Male","done","24","M_cling.wav","None","725.215979386","201","1058753.51226","1051047.60156","1051815.30355","1052582.41564","1053349.92192","1054116.91034","1054867.46167","1055634.94384","1059521.04266","1060288.58388","1061055.14379","1061822.75705","1047995.68521","1048762.62447","1049530.55339","1050297.42556","1061064.07822","Mapping"
"Blocked","Male","done","24","M_greet.wav","None","720.280369278","201","1058753.51226","1051047.60156","1051815.30355","1052582.41564","1053349.92192","1054116.91034","1054867.46167","1055634.94384","1059521.04266","1060288.58388","1061055.14379","1061822.75705","1062573.18224","1048762.62447","1049530.55339","1050297.42556","1061832.40814","Mapping"
"Blocked","Male","done","24","M_done.wav","None","733.755290508","201","1058753.51226","1051047.60156","1051815.30355","1052582.41564","1053349.92192","1054116.91034","1054867.46167","1055634.94384","1059521.04266","1060288.58388","1061055.14379","1061822.75705","1062573.18224","1063340.69687","1049530.55339","1050297.42556","1062582.81879","Mapping"
"Blocked","Male","done","24","M_priest.wav","space","442.23149959","201","1058753.51226","1051047.60156","1051815.30355","1052582.41564","1053349.92192","1054116.91034","1054867.46167","1055634.94384","1059521.04266","1060288.58388","1061055.14379","1061822.75705","1062573.18224","1063340.69687","1064107.66117","1050297.42556","1063350.81944","Mapping"
"Blocked","Male","done","24","M_done.wav","None","725.607699249","201","1058753.51226","1051047.60156","1051815.30355","1052582.41564","1053349.92192","1054116.91034","1054867.46167","1055634.94384","1059521.04266","1060288.58388","1061055.14379","1061822.75705","1062573.18224","1063340.69687","1064107.66117","1064875.0441","1064117.20498","Mapping"
"Blocked","Male","done","24","M_romp.wav","space","572.709203232","201","1058753.51226","1065625.34252","1051815.30355","1052582.41564","1053349.92192","1054116.91034","1054867.46167","1055634.94384","1059521.04266","1060288.58388","1061055.14379","1061822.75705","1062573.18224","1063340.69687","1064107.66117","1064875.0441","1064884.33284","Mapping"
"Blocked","Male","done","24","M_done.wav","None","733.867828734","201","1058753.51226","1065625.34252","1066392.73812","1052582.41564","1053349.92192","1054116.91034","1054867.46167","1055634.94384","1059521.04266","1060288.58388","1061055.14379","1061822.75705","1062573.18224","1063340.69687","1064107.66117","1064875.0441","1065635.23199","Mapping"
"Blocked","Male","done","24","M_cling.wav","space","558.842561208","201","1058753.51226","1065625.34252","1066392.73812","1067160.07622","1053349.92192","1054116.91034","1054867.46167","1055634.94384","1059521.04266","1060288.58388","1061055.14379","1061822.75705","1062573.18224","1063340.69687","1064107.66117","1064875.0441","1066402.09674","Mapping"
"Blocked","Male","done","24","M_cling.wav","None","725.196810439","201","1058753.51226","1065625.34252","1066392.73812","1067160.07622","1067927.17656","1054116.91034","1054867.46167","1055634.94384","1059521.04266","1060288.58388","1061055.14379","1061822.75705","1062573.18224","1063340.69687","1064107.66117","1064875.0441","1067170.00927","Mapping"
"Blocked","Male","done","24","M_done.wav","None","721.797472332","201","1058753.51226","1065625.34252","1066392.73812","1067160.07622","1067927.17656","1068677.42861","1054867.46167","1055634.94384","1059521.04266","1060288.58388","1061055.14379","1061822.75705","1062573.18224","1063340.69687","1064107.66117","1064875.0441","1067936.93586","Mapping"
"Blocked","Male","done","24","M_romp.wav","space","393.216719851","201","1058753.51226","1065625.34252","1066392.73812","1067160.07622","1067927.17656","1068677.42861","1069445.01621","1055634.94384","1059521.04266","1060288.58388","1061055.14379","1061822.75705","1062573.18224","1063340.69687","1064107.66117","1064875.0441","1068687.71165","Mapping"
"Blocked","Male","done","24","M_bluff.wav","None","730.355024803","201","1058753.51226","1065625.34252","1066392.73812","1067160.07622","1067927.17656","1068677.42861","1069445.01621","1070212.3308","1059521.04266","1060288.58388","1061055.14379","1061822.75705","1062573.18224","1063340.69687","1064107.66117","1064875.0441","1069454.57671","Mapping"
"Blocked","Male","cave","9","M_lash.wav","None","726.891378406","201","1073314.24479","1065625.34252","1066392.73812","1067160.07622","1067927.17656","1068677.42861","1069445.01621","1070212.3308","1059521.04266","1060288.58388","1061055.14379","1061822.75705","1062573.18224","1063340.69687","1064107.66117","1064875.0441","1070221.66994","Mapping"
"Blocked","Male","cave","9","M_priest.wav","None","735.414612573","201","1073314.24479","1065625.34252","1066392.73812","1067160.07622","1067927.17656","1068677.42861","1069445.01621","1070212.3308","1074081.87103","1060288.58388","1061055.14379","1061822.75705","1062573.18224","1063340.69687","1064107.66117","1064875.0441","1073323.75242","Mapping"
"Blocked","Male","cave","9","M_greet.wav","None","731.010158546","201","1073314.24479","1065625.34252","1066392.73812","1067160.07622","1067927.17656","1068677.42861","1069445.01621","1070212.3308","1074081.87103","1074848.84801","1061055.14379","1061822.75705","1062573.18224","1063340.69687","1064107.66117","1064875.0441","1074091.84922","Mapping"
"Blocked","Male","cave","9","M_park.wav","None","728.318822104","201","1073314.24479","1065625.34252","1066392.73812","1067160.07622","1067927.17656","1068677.42861","1069445.01621","1070212.3308","1074081.87103","1074848.84801","1075616.14159","1061822.75705","1062573.18224","1063340.69687","1064107.66117","1064875.0441","1074858.10244","Mapping"
"Blocked","Male","cave","9","M_gnash.wav","None","724.141299725","201","1073314.24479","1065625.34252","1066392.73812","1067160.07622","1067927.17656","1068677.42861","1069445.01621","1070212.3308","1074081.87103","1074848.84801","1075616.14159","1076383.37951","1062573.18224","1063340.69687","1064107.66117","1064875.0441","1075625.93304","Mapping"
"Blocked","Male","cave","9","M_cave.wav","None","720.733614173","201","1073314.24479","1065625.34252","1066392.73812","1067160.07622","1067927.17656","1068677.42861","1069445.01621","1070212.3308","1074081.87103","1074848.84801","1075616.14159","1076383.37951","1077133.81026","1063340.69687","1064107.66117","1064875.0441","1076392.92888","Mapping"
"Blocked","Male","cave","9","M_gnash.wav","space","577.250619885","201","1073314.24479","1065625.34252","1066392.73812","1067160.07622","1067927.17656","1068677.42861","1069445.01621","1070212.3308","1074081.87103","1074848.84801","1075616.14159","1076383.37951","1077133.81026","1077901.29336","1064107.66117","1064875.0441","1077143.44404","Mapping"
"Blocked","Male","cave","9","M_dime.wav","None","728.465060238","201","1073314.24479","1065625.34252","1066392.73812","1067160.07622","1067927.17656","1068677.42861","1069445.01621","1070212.3308","1074081.87103","1074848.84801","1075616.14159","1076383.37951","1077133.81026","1077901.29336","1078668.13554","1064875.0441","1077911.43634","Mapping"
"Blocked","Male","cave","9","M_cave.wav","None","725.907905027","201","1073314.24479","1065625.34252","1066392.73812","1067160.07622","1067927.17656","1068677.42861","1069445.01621","1070212.3308","1074081.87103","1074848.84801","1075616.14159","1076383.37951","1077133.81026","1077901.29336","1078668.13554","1079435.72097","1078677.47715","Mapping"
"Blocked","Male","cave","9","M_jolt.wav","None","660.415532533","201","1073314.24479","1080185.9486","1066392.73812","1067160.07622","1067927.17656","1068677.42861","1069445.01621","1070212.3308","1074081.87103","1074848.84801","1075616.14159","1076383.37951","1077133.81026","1077901.29336","1078668.13554","1079435.72097","1079506.52367","Mapping"
"Blocked","Male","cave","9","M_cave.wav","space","0.0225696712732","201","1073314.24479","1080185.9486","1080953.51115","1067160.07622","1067927.17656","1068677.42861","1069445.01621","1070212.3308","1074081.87103","1074848.84801","1075616.14159","1076383.37951","1077133.81026","1077901.29336","1078668.13554","1079435.72097","1080195.33473","Mapping"
"Blocked","Male","cave","9","M_lash.wav","None","729.383917525","201","1073314.24479","1080185.9486","1080953.51115","1081720.41424","1067927.17656","1068677.42861","1069445.01621","1070212.3308","1074081.87103","1074848.84801","1075616.14159","1076383.37951","1077133.81026","1077901.29336","1078668.13554","1079435.72097","1080963.85942","Mapping"
"Blocked","Male","cave","9","M_tile.wav","space","438.827832695","201","1073314.24479","1080185.9486","1080953.51115","1081720.41424","1082488.06367","1068677.42861","1069445.01621","1070212.3308","1074081.87103","1074848.84801","1075616.14159","1076383.37951","1077133.81026","1077901.29336","1078668.13554","1079435.72097","1081729.83036","Mapping"
"Blocked","Male","cave","9","M_cave.wav","None","722.137869801","201","1073314.24479","1080185.9486","1080953.51115","1081720.41424","1082488.06367","1083238.2712","1069445.01621","1070212.3308","1074081.87103","1074848.84801","1075616.14159","1076383.37951","1077133.81026","1077901.29336","1078668.13554","1079435.72097","1082497.41239","Mapping"
"Blocked","Male","cave","9","M_knife.wav","space","593.419660348","201","1073314.24479","1080185.9486","1080953.51115","1081720.41424","1082488.06367","1083238.2712","1084005.65474","1070212.3308","1074081.87103","1074848.84801","1075616.14159","1076383.37951","1077133.81026","1077901.29336","1078668.13554","1079435.72097","1083247.19728","Mapping"
"Blocked","Male","cave","9","M_park.wav","None","731.355502736","201","1073314.24479","1080185.9486","1080953.51115","1081720.41424","1082488.06367","1083238.2712","1084005.65474","1084772.60174","1074081.87103","1074848.84801","1075616.14159","1076383.37951","1077133.81026","1077901.29336","1078668.13554","1079435.72097","1084014.7753","Mapping"
"Blocked","Male","ball","2","M_greet.wav","None","728.112296201","201","1087891.7851","1080185.9486","1080953.51115","1081720.41424","1082488.06367","1083238.2712","1084005.65474","1084772.60174","1074081.87103","1074848.84801","1075616.14159","1076383.37951","1077133.81026","1077901.29336","1078668.13554","1079435.72097","1084781.70034","Mapping"
"Blocked","Male","ball","2","M_lash.wav","None","735.713890754","201","1087891.7851","1080185.9486","1080953.51115","1081720.41424","1082488.06367","1083238.2712","1084005.65474","1084772.60174","1088659.09723","1074848.84801","1075616.14159","1076383.37951","1077133.81026","1077901.29336","1078668.13554","1079435.72097","1087901.20153","Mapping"
"Blocked","Male","ball","2","M_romp.wav","None","732.11822845","201","1087891.7851","1080185.9486","1080953.51115","1081720.41424","1082488.06367","1083238.2712","1084005.65474","1084772.60174","1088659.09723","1089426.51694","1075616.14159","1076383.37951","1077133.81026","1077901.29336","1078668.13554","1079435.72097","1088668.56931","Mapping"
"Blocked","Male","ball","2","M_depth.wav","None","728.859562892","201","1087891.7851","1080185.9486","1080953.51115","1081720.41424","1082488.06367","1083238.2712","1084005.65474","1084772.60174","1088659.09723","1089426.51694","1090193.47877","1076383.37951","1077133.81026","1077901.29336","1078668.13554","1079435.72097","1089435.47734","Mapping"
"Blocked","Male","ball","2","M_ball.wav","None","724.872180726","201","1087891.7851","1080185.9486","1080953.51115","1081720.41424","1082488.06367","1083238.2712","1084005.65474","1084772.60174","1088659.09723","1089426.51694","1090193.47877","1090960.7841","1077133.81026","1077901.29336","1078668.13554","1079435.72097","1090203.13543","Mapping"
"Blocked","Male","ball","2","M_reek.wav","space","406.498100143","201","1087891.7851","1080185.9486","1080953.51115","1081720.41424","1082488.06367","1083238.2712","1084005.65474","1084772.60174","1088659.09723","1089426.51694","1090193.47877","1090960.7841","1091711.21794","1077901.29336","1078668.13554","1079435.72097","1090969.94113","Mapping"
"Blocked","Male","ball","2","M_cave.wav","None","734.046529979","201","1087891.7851","1080185.9486","1080953.51115","1081720.41424","1082488.06367","1083238.2712","1084005.65474","1084772.60174","1088659.09723","1089426.51694","1090193.47877","1090960.7841","1091711.21794","1092478.50904","1078668.13554","1079435.72097","1091720.41455","Mapping"
"Blocked","Male","ball","2","M_ball.wav","None","730.576700531","201","1087891.7851","1080185.9486","1080953.51115","1081720.41424","1082488.06367","1083238.2712","1084005.65474","1084772.60174","1088659.09723","1089426.51694","1090193.47877","1090960.7841","1091711.21794","1092478.50904","1093246.39251","1079435.72097","1092487.53715","Mapping"
"Blocked","Male","ball","2","M_jaw.wav","space","712.256137282","201","1087891.7851","1080185.9486","1080953.51115","1081720.41424","1082488.06367","1083238.2712","1084005.65474","1084772.60174","1088659.09723","1089426.51694","1090193.47877","1090960.7841","1091711.21794","1092478.50904","1093246.39251","1094012.9821","1093256.13264","Mapping"
"Blocked","Male","ball","2","M_ball.wav","None","722.464354709","201","1087891.7851","1094763.64937","1080953.51115","1081720.41424","1082488.06367","1083238.2712","1084005.65474","1084772.60174","1088659.09723","1089426.51694","1090193.47877","1090960.7841","1091711.21794","1092478.50904","1093246.39251","1094012.9821","1094021.99939","Mapping"
"Blocked","Male","ball","2","M_reek.wav","space","450.974554289","201","1087891.7851","1094763.64937","1095530.74198","1081720.41424","1082488.06367","1083238.2712","1084005.65474","1084772.60174","1088659.09723","1089426.51694","1090193.47877","1090960.7841","1091711.21794","1092478.50904","1093246.39251","1094012.9821","1094773.34436","Mapping"
"Blocked","Male","ball","2","M_ball.wav","None","730.915861204","201","1087891.7851","1094763.64937","1095530.74198","1096298.24827","1082488.06367","1083238.2712","1084005.65474","1084772.60174","1088659.09723","1089426.51694","1090193.47877","1090960.7841","1091711.21794","1092478.50904","1093246.39251","1094012.9821","1095539.94509","Mapping"
"Blocked","Male","ball","2","M_park.wav","space","428.866952192","201","1087891.7851","1094763.64937","1095530.74198","1096298.24827","1097065.2911","1083238.2712","1084005.65474","1084772.60174","1088659.09723","1089426.51694","1090193.47877","1090960.7841","1091711.21794","1092478.50904","1093246.39251","1094012.9821","1096307.44518","Mapping"
"Blocked","Male","ball","2","M_cave.wav","None","723.179467954","201","1087891.7851","1094763.64937","1095530.74198","1096298.24827","1097065.2911","1097815.53357","1084005.65474","1084772.60174","1088659.09723","1089426.51694","1090193.47877","1090960.7841","1091711.21794","1092478.50904","1093246.39251","1094012.9821","1097074.12011","Mapping"
"Blocked","Male","ball","2","M_jolt.wav","None","736.163734458","201","1087891.7851","1094763.64937","1095530.74198","1096298.24827","1097065.2911","1097815.53357","1098583.37469","1084772.60174","1088659.09723","1089426.51694","1090193.47877","1090960.7841","1091711.21794","1092478.50904","1093246.39251","1094012.9821","1097824.82509","Mapping"
"Blocked","Male","ball","2","M_greet.wav","None","731.663746294","201","1087891.7851","1094763.64937","1095530.74198","1096298.24827","1097065.2911","1097815.53357","1098583.37469","1099350.32632","1088659.09723","1089426.51694","1090193.47877","1090960.7841","1091711.21794","1092478.50904","1093246.39251","1094012.9821","1098592.81925","Mapping"
"Blocked","Male","tile","16","M_gnash.wav","None","729.499547277","201","1102469.44414","1094763.64937","1095530.74198","1096298.24827","1097065.2911","1097815.53357","1098583.37469","1099350.32632","1088659.09723","1089426.51694","1090193.47877","1090960.7841","1091711.21794","1092478.50904","1093246.39251","1094012.9821","1099359.32351","Mapping"
"Blocked","Male","tile","16","M_tile.wav","None","735.590531025","201","1102469.44414","1094763.64937","1095530.74198","1096298.24827","1097065.2911","1097815.53357","1098583.37469","1099350.32632","1103236.46409","1089426.51694","1090193.47877","1090960.7841","1091711.21794","1092478.50904","1093246.39251","1094012.9821","1102479.20468","Mapping"
"Blocked","Male","tile","16","M_greet.wav","None","732.562507503","201","1102469.44414","1094763.64937","1095530.74198","1096298.24827","1097065.2911","1097815.53357","1098583.37469","1099350.32632","1103236.46409","1104003.85289","1090193.47877","1090960.7841","1091711.21794","1092478.50904","1093246.39251","1094012.9821","1103245.92906","Mapping"
"Blocked","Male","tile","16","M_park.wav","space","10.8435647562","201","1102469.44414","1094763.64937","1095530.74198","1096298.24827","1097065.2911","1097815.53357","1098583.37469","1099350.32632","1103236.46409","1104003.85289","1104771.22963","1090960.7841","1091711.21794","1092478.50904","1093246.39251","1094012.9821","1104013.26005","Mapping"
"Blocked","Male","tile","16","M_dime.wav","None","724.430375267","201","1102469.44414","1094763.64937","1095530.74198","1096298.24827","1097065.2911","1097815.53357","1098583.37469","1099350.32632","1103236.46409","1104003.85289","1104771.22963","1105538.64904","1091711.21794","1092478.50904","1093246.39251","1094012.9821","1104780.73139","Mapping"
"Blocked","Male","tile","16","M_tile.wav","None","720.567279961","201","1102469.44414","1094763.64937","1095530.74198","1096298.24827","1097065.2911","1097815.53357","1098583.37469","1099350.32632","1103236.46409","1104003.85289","1104771.22963","1105538.64904","1106288.51061","1092478.50904","1093246.39251","1094012.9821","1105548.50697","Mapping"
"Blocked","Male","tile","16","M_park.wav","space","430.776703171","201","1102469.44414","1094763.64937","1095530.74198","1096298.24827","1097065.2911","1097815.53357","1098583.37469","1099350.32632","1103236.46409","1104003.85289","1104771.22963","1105538.64904","1106288.51061","1107055.94362","1093246.39251","1094012.9821","1106297.29324","Mapping"
"Blocked","Male","tile","16","M_tile.wav","None","730.98913487","201","1102469.44414","1094763.64937","1095530.74198","1096298.24827","1097065.2911","1097815.53357","1098583.37469","1099350.32632","1103236.46409","1104003.85289","1104771.22963","1105538.64904","1106288.51061","1107055.94362","1107823.0724","1094012.9821","1107064.84249","Mapping"
"Blocked","Male","tile","16","M_priest.wav","space","528.106607031","201","1102469.44414","1094763.64937","1095530.74198","1096298.24827","1097065.2911","1097815.53357","1098583.37469","1099350.32632","1103236.46409","1104003.85289","1104771.22963","1105538.64904","1106288.51061","1107055.94362","1107823.0724","1108590.73358","1107831.90017","Mapping"
"Blocked","Male","tile","16","M_park.wav","None","721.727599856","201","1102469.44414","1109340.70212","1095530.74198","1096298.24827","1097065.2911","1097815.53357","1098583.37469","1099350.32632","1103236.46409","1104003.85289","1104771.22963","1105538.64904","1106288.51061","1107055.94362","1107823.0724","1108590.73358","1108600.59645","Mapping"
"Blocked","Male","tile","16","M_tile.wav","None","736.724880524","201","1102469.44414","1109340.70212","1110124.56728","1096298.24827","1097065.2911","1097815.53357","1098583.37469","1099350.32632","1103236.46409","1104003.85289","1104771.22963","1105538.64904","1106288.51061","1107055.94362","1107823.0724","1108590.73358","1109349.65696","Mapping"
"Blocked","Male","tile","16","M_bluff.wav","space","458.539357409","201","1102469.44414","1109340.70212","1110124.56728","1110875.22836","1097065.2911","1097815.53357","1098583.37469","1099350.32632","1103236.46409","1104003.85289","1104771.22963","1105538.64904","1106288.51061","1107055.94362","1107823.0724","1108590.73358","1110133.3935","Mapping"
"Blocked","Male","tile","16","M_jolt.wav","None","733.045741916","201","1102469.44414","1109340.70212","1110124.56728","1110875.22836","1111642.81781","1097815.53357","1098583.37469","1099350.32632","1103236.46409","1104003.85289","1104771.22963","1105538.64904","1106288.51061","1107055.94362","1107823.0724","1108590.73358","1110884.12507","Mapping"
"Blocked","Male","tile","16","M_done.wav","None","729.65908004","201","1102469.44414","1109340.70212","1110124.56728","1110875.22836","1111642.81781","1112409.99205","1098583.37469","1099350.32632","1103236.46409","1104003.85289","1104771.22963","1105538.64904","1106288.51061","1107055.94362","1107823.0724","1108590.73358","1111652.66925","Mapping"
"Blocked","Male","tile","16","M_park.wav","None","727.489625104","201","1102469.44414","1109340.70212","1110124.56728","1110875.22836","1111642.81781","1112409.99205","1113176.85587","1099350.32632","1103236.46409","1104003.85289","1104771.22963","1105538.64904","1106288.51061","1107055.94362","1107823.0724","1108590.73358","1112418.82569","Mapping"
"Blocked","Male","tile","16","M_gnash.wav","None","724.331749137","201","1102469.44414","1109340.70212","1110124.56728","1110875.22836","1111642.81781","1112409.99205","1113176.85587","1113944.25332","1103236.46409","1104003.85289","1104771.22963","1105538.64904","1106288.51061","1107055.94362","1107823.0724","1108590.73358","1113185.86358","Mapping"
"Blocked","Male","ball","5","M_romp.wav","None","720.705479383","201","1117046.43011","1109340.70212","1110124.56728","1110875.22836","1111642.81781","1112409.99205","1113176.85587","1113944.25332","1103236.46409","1104003.85289","1104771.22963","1105538.64904","1106288.51061","1107055.94362","1107823.0724","1108590.73358","1113953.42798","Mapping"
"Blocked","Male","ball","5","M_priest.wav","None","736.775275785","201","1117046.43011","1109340.70212","1110124.56728","1110875.22836","1111642.81781","1112409.99205","1113176.85587","1113944.25332","1117813.89898","1104003.85289","1104771.22963","1105538.64904","1106288.51061","1107055.94362","1107823.0724","1108590.73358","1117055.60013","Mapping"
"Blocked","Male","ball","5","M_ball.wav","None","732.674118131","201","1117046.43011","1109340.70212","1110124.56728","1110875.22836","1111642.81781","1112409.99205","1113176.85587","1113944.25332","1117813.89898","1118581.86098","1104771.22963","1105538.64904","1106288.51061","1107055.94362","1107823.0724","1108590.73358","1117823.3825","Mapping"
"Blocked","Male","ball","5","M_knife.wav","space","440.356684849","201","1117046.43011","1109340.70212","1110124.56728","1110875.22836","1111642.81781","1112409.99205","1113176.85587","1113944.25332","1117813.89898","1118581.86098","1119348.35102","1105538.64904","1106288.51061","1107055.94362","1107823.0724","1108590.73358","1118591.37109","Mapping"
"Blocked","Male","ball","5","M_gnash.wav","None","725.176714826","201","1117046.43011","1109340.70212","1110124.56728","1110875.22836","1111642.81781","1112409.99205","1113176.85587","1113944.25332","1117813.89898","1118581.86098","1119348.35102","1120115.75559","1106288.51061","1107055.94362","1107823.0724","1108590.73358","1119357.42581","Mapping"
"Blocked","Male","ball","5","M_romp.wav","None","721.840138081","201","1117046.43011","1109340.70212","1110124.56728","1110875.22836","1111642.81781","1112409.99205","1113176.85587","1113944.25332","1117813.89898","1118581.86098","1119348.35102","1120115.75559","1120865.97672","1107055.94362","1107823.0724","1108590.73358","1120124.72155","Mapping"
"Blocked","Male","ball","5","M_park.wav","None","735.388642177","201","1117046.43011","1109340.70212","1110124.56728","1110875.22836","1111642.81781","1112409.99205","1113176.85587","1113944.25332","1117813.89898","1118581.86098","1119348.35102","1120115.75559","1120865.97672","1121633.35624","1107823.0724","1108590.73358","1120875.41201","Mapping"
"Blocked","Male","ball","5","M_ball.wav","None","734.18009188","201","1117046.43011","1109340.70212","1110124.56728","1110875.22836","1111642.81781","1112409.99205","1113176.85587","1113944.25332","1117813.89898","1118581.86098","1119348.35102","1120115.75559","1120865.97672","1121633.35624","1122400.46864","1108590.73358","1121642.70558","Mapping"
"Blocked","Male","ball","5","M_lash.wav","space","438.024296891","201","1117046.43011","1109340.70212","1110124.56728","1110875.22836","1111642.81781","1112409.99205","1113176.85587","1113944.25332","1117813.89898","1118581.86098","1119348.35102","1120115.75559","1120865.97672","1121633.35624","1122400.46864","1123168.14713","1122409.63557","Mapping"
"Blocked","Male","ball","5","M_lash.wav","None","724.753150251","201","1117046.43011","1123935.13246","1110124.56728","1110875.22836","1111642.81781","1112409.99205","1113176.85587","1113944.25332","1117813.89898","1118581.86098","1119348.35102","1120115.75559","1120865.97672","1121633.35624","1122400.46864","1123168.14713","1123178.79777","Mapping"
"Blocked","Male","ball","5","M_ball.wav","None","722.771052737","201","1117046.43011","1123935.13246","1124685.74006","1110875.22836","1111642.81781","1112409.99205","1113176.85587","1113944.25332","1117813.89898","1118581.86098","1119348.35102","1120115.75559","1120865.97672","1121633.35624","1122400.46864","1123168.14713","1123944.75789","Mapping"
"Blocked","Male","ball","5","M_cling.wav","space","616.199091543","201","1117046.43011","1123935.13246","1124685.74006","1125453.20182","1111642.81781","1112409.99205","1113176.85587","1113944.25332","1117813.89898","1118581.86098","1119348.35102","1120115.75559","1120865.97672","1121633.35624","1122400.46864","1123168.14713","1124695.3995","Mapping"
"Blocked","Male","ball","5","M_jaw.wav","None","730.927919038","201","1117046.43011","1123935.13246","1124685.74006","1125453.20182","1126219.94971","1112409.99205","1113176.85587","1113944.25332","1117813.89898","1118581.86098","1119348.35102","1120115.75559","1120865.97672","1121633.35624","1122400.46864","1123168.14713","1125463.29256","Mapping"
"Blocked","Male","ball","5","M_depth.wav","None","729.635273572","201","1117046.43011","1123935.13246","1124685.74006","1125453.20182","1126219.94971","1126987.65139","1113176.85587","1113944.25332","1117813.89898","1118581.86098","1119348.35102","1120115.75559","1120865.97672","1121633.35624","1122400.46864","1123168.14713","1126228.63959","Mapping"
"Blocked","Male","ball","5","M_ball.wav","None","725.591622759","201","1117046.43011","1123935.13246","1124685.74006","1125453.20182","1126219.94971","1126987.65139","1127754.56499","1113944.25332","1117813.89898","1118581.86098","1119348.35102","1120115.75559","1120865.97672","1121633.35624","1122400.46864","1123168.14713","1126996.64889","Mapping"
"Blocked","Male","ball","5","M_tile.wav","space","395.599812269","201","1117046.43011","1123935.13246","1124685.74006","1125453.20182","1126219.94971","1126987.65139","1127754.56499","1128505.01399","1117813.89898","1118581.86098","1119348.35102","1120115.75559","1120865.97672","1121633.35624","1122400.46864","1123168.14713","1127763.95792","Mapping"
"Blocked","Male","done","19","M_greet.wav","None","734.392492566","201","1131624.29443","1123935.13246","1124685.74006","1125453.20182","1126219.94971","1126987.65139","1127754.56499","1128505.01399","1117813.89898","1118581.86098","1119348.35102","1120115.75559","1120865.97672","1121633.35624","1122400.46864","1123168.14713","1128514.50709","Mapping"
"Blocked","Male","done","19","M_cave.wav","None","736.386646982","201","1131624.29443","1123935.13246","1124685.74006","1125453.20182","1126219.94971","1126987.65139","1127754.56499","1128505.01399","1132391.47949","1118581.86098","1119348.35102","1120115.75559","1120865.97672","1121633.35624","1122400.46864","1123168.14713","1131633.44157","Mapping"
"Blocked","Male","done","19","M_cave.wav","None","733.625129331","201","1131624.29443","1123935.13246","1124685.74006","1125453.20182","1126219.94971","1126987.65139","1127754.56499","1128505.01399","1132391.47949","1133158.80923","1119348.35102","1120115.75559","1120865.97672","1121633.35624","1122400.46864","1123168.14713","1132400.1638","Mapping"
"Blocked","Male","done","19","M_depth.wav","None","729.184811004","201","1131624.29443","1123935.13246","1124685.74006","1125453.20182","1126219.94971","1126987.65139","1127754.56499","1128505.01399","1132391.47949","1133158.80923","1133925.78776","1120115.75559","1120865.97672","1121633.35624","1122400.46864","1123168.14713","1133168.43992","Mapping"
"Blocked","Male","done","19","M_priest.wav","None","726.420201361","201","1131624.29443","1123935.13246","1124685.74006","1125453.20182","1126219.94971","1126987.65139","1127754.56499","1128505.01399","1132391.47949","1133158.80923","1133925.78776","1134692.78979","1120865.97672","1121633.35624","1122400.46864","1123168.14713","1133935.23233","Mapping"
"Blocked","Male","done","19","M_done.wav","None","723.4673067","201","1131624.29443","1123935.13246","1124685.74006","1125453.20182","1126219.94971","1126987.65139","1127754.56499","1128505.01399","1132391.47949","1133158.80923","1133925.78776","1134692.78979","1135443.6203","1121633.35624","1122400.46864","1123168.14713","1134702.19632","Mapping"
"Blocked","Male","done","19","M_tile.wav","space","362.515701912","201","1131624.29443","1123935.13246","1124685.74006","1125453.20182","1126219.94971","1126987.65139","1127754.56499","1128505.01399","1132391.47949","1133158.80923","1133925.78776","1134692.78979","1135443.6203","1136211.07124","1122400.46864","1123168.14713","1135452.8605","Mapping"
"Blocked","Male","done","19","M_cling.wav","None","731.387656648","201","1131624.29443","1123935.13246","1124685.74006","1125453.20182","1126219.94971","1126987.65139","1127754.56499","1128505.01399","1132391.47949","1133158.80923","1133925.78776","1134692.78979","1135443.6203","1136211.07124","1136978.30762","1123168.14713","1136220.94308","Mapping"
"Blocked","Male","done","19","M_done.wav","None","728.874712251","201","1131624.29443","1123935.13246","1124685.74006","1125453.20182","1126219.94971","1126987.65139","1127754.56499","1128505.01399","1132391.47949","1133158.80923","1133925.78776","1134692.78979","1135443.6203","1136211.07124","1136978.30762","1137745.33777","1136987.31192","Mapping"
"Blocked","Male","done","19","M_bluff.wav","None","726.020752452","201","1131624.29443","1138512.39885","1124685.74006","1125453.20182","1126219.94971","1126987.65139","1127754.56499","1128505.01399","1132391.47949","1133158.80923","1133925.78776","1134692.78979","1135443.6203","1136211.07124","1136978.30762","1137745.33777","1137754.15689","Mapping"
"Blocked","Male","done","19","M_done.wav","space","6.09222007915","201","1131624.29443","1138512.39885","1139263.2677","1125453.20182","1126219.94971","1126987.65139","1127754.56499","1128505.01399","1132391.47949","1133158.80923","1133925.78776","1134692.78979","1135443.6203","1136211.07124","1136978.30762","1137745.33777","1138521.21425","Mapping"
"Blocked","Male","done","19","M_cave.wav","space","694.89555154","201","1131624.29443","1138512.39885","1139263.2677","1140030.31455","1126219.94971","1126987.65139","1127754.56499","1128505.01399","1132391.47949","1133158.80923","1133925.78776","1134692.78979","1135443.6203","1136211.07124","1136978.30762","1137745.33777","1139272.32858","Mapping"
"Blocked","Male","done","19","M_done.wav","None","730.082644615","201","1131624.29443","1138512.39885","1139263.2677","1140030.31455","1140797.70675","1126987.65139","1127754.56499","1128505.01399","1132391.47949","1133158.80923","1133925.78776","1134692.78979","1135443.6203","1136211.07124","1136978.30762","1137745.33777","1140039.39182","Mapping"
"Blocked","Male","done","19","M_knife.wav","space","576.250141952","201","1131624.29443","1138512.39885","1139263.2677","1140030.31455","1140797.70675","1141565.32156","1127754.56499","1128505.01399","1132391.47949","1133158.80923","1133925.78776","1134692.78979","1135443.6203","1136211.07124","1136978.30762","1137745.33777","1140806.96581","Mapping"
"Blocked","Male","done","19","M_cling.wav","None","721.654944122","201","1131624.29443","1138512.39885","1139263.2677","1140030.31455","1140797.70675","1141565.32156","1142315.41748","1128505.01399","1132391.47949","1133158.80923","1133925.78776","1134692.78979","1135443.6203","1136211.07124","1136978.30762","1137745.33777","1141574.39233","Mapping"
"Blocked","Male","done","19","M_lash.wav","None","736.579260789","201","1131624.29443","1138512.39885","1139263.2677","1140030.31455","1140797.70675","1141565.32156","1142315.41748","1143082.72867","1132391.47949","1133158.80923","1133925.78776","1134692.78979","1135443.6203","1136211.07124","1136978.30762","1137745.33777","1142324.30275","Mapping"
"Blocked","Male","done","21","M_reek.wav","None","732.660514768","201","1146201.40809","1138512.39885","1139263.2677","1140030.31455","1140797.70675","1141565.32156","1142315.41748","1143082.72867","1132391.47949","1133158.80923","1133925.78776","1134692.78979","1135443.6203","1136211.07124","1136978.30762","1137745.33777","1143092.25888","Mapping"
"Blocked","Male","done","21","M_done.wav","None","735.427906737","201","1146201.40809","1138512.39885","1139263.2677","1140030.31455","1140797.70675","1141565.32156","1142315.41748","1143082.72867","1146968.79874","1133158.80923","1133925.78776","1134692.78979","1135443.6203","1136211.07124","1136978.30762","1137745.33777","1146210.81246","Mapping"
"Blocked","Male","done","21","M_dime.wav","space","516.83267625","201","1146201.40809","1138512.39885","1139263.2677","1140030.31455","1140797.70675","1141565.32156","1142315.41748","1143082.72867","1146968.79874","1147736.27751","1133925.78776","1134692.78979","1135443.6203","1136211.07124","1136978.30762","1137745.33777","1146978.22414","Mapping"
"Blocked","Male","done","21","M_park.wav","None","727.23394027","201","1146201.40809","1138512.39885","1139263.2677","1140030.31455","1140797.70675","1141565.32156","1142315.41748","1143082.72867","1146968.79874","1147736.27751","1148503.35497","1134692.78979","1135443.6203","1136211.07124","1136978.30762","1137745.33777","1147745.73939","Mapping"
"Blocked","Male","done","21","M_bluff.wav","None","724.100489635","201","1146201.40809","1138512.39885","1139263.2677","1140030.31455","1140797.70675","1141565.32156","1142315.41748","1143082.72867","1146968.79874","1147736.27751","1148503.35497","1149270.65504","1135443.6203","1136211.07124","1136978.30762","1137745.33777","1148512.90156","Mapping"
"Blocked","Male","done","21","M_done.wav","None","721.327841282","201","1146201.40809","1138512.39885","1139263.2677","1140030.31455","1140797.70675","1141565.32156","1142315.41748","1143082.72867","1146968.79874","1147736.27751","1148503.35497","1149270.65504","1150021.03107","1136211.07124","1136978.30762","1137745.33777","1149279.65254","Mapping"
"Blocked","Male","done","21","M_park.wav","space","416.876362171","201","1146201.40809","1138512.39885","1139263.2677","1140030.31455","1140797.70675","1141565.32156","1142315.41748","1143082.72867","1146968.79874","1147736.27751","1148503.35497","1149270.65504","1150021.03107","1150788.74728","1136978.30762","1137745.33777","1150030.09813","Mapping"
"Blocked","Male","done","21","M_dime.wav","None","729.982473422","201","1146201.40809","1138512.39885","1139263.2677","1140030.31455","1140797.70675","1141565.32156","1142315.41748","1143082.72867","1146968.79874","1147736.27751","1148503.35497","1149270.65504","1150021.03107","1150788.74728","1151555.56751","1137745.33777","1150797.6307","Mapping"
"Blocked","Male","done","21","M_done.wav","None","726.578497328","201","1146201.40809","1138512.39885","1139263.2677","1140030.31455","1140797.70675","1141565.32156","1142315.41748","1143082.72867","1146968.79874","1147736.27751","1148503.35497","1149270.65504","1150021.03107","1150788.74728","1151555.56751","1152323.17953","1151565.09772","Mapping"
"Blocked","Male","done","21","M_greet.wav","space","578.153400216","201","1146201.40809","1153073.15518","1139263.2677","1140030.31455","1140797.70675","1141565.32156","1142315.41748","1143082.72867","1146968.79874","1147736.27751","1148503.35497","1149270.65504","1150021.03107","1150788.74728","1151555.56751","1152323.17953","1152332.80372","Mapping"
"Blocked","Male","done","21","M_park.wav","None","735.883006826","201","1146201.40809","1153073.15518","1153840.58355","1140030.31455","1140797.70675","1141565.32156","1142315.41748","1143082.72867","1146968.79874","1147736.27751","1148503.35497","1149270.65504","1150021.03107","1150788.74728","1151555.56751","1152323.17953","1153082.6285","Mapping"
"Blocked","Male","done","21","M_done.wav","None","732.846945059","201","1146201.40809","1153073.15518","1153840.58355","1154607.93618","1140797.70675","1141565.32156","1142315.41748","1143082.72867","1146968.79874","1147736.27751","1148503.35497","1149270.65504","1150021.03107","1150788.74728","1151555.56751","1152323.17953","1153849.65742","Mapping"
"Blocked","Male","done","21","M_bluff.wav","space","509.692674503","201","1146201.40809","1153073.15518","1153840.58355","1154607.93618","1155374.94006","1141565.32156","1142315.41748","1143082.72867","1146968.79874","1147736.27751","1148503.35497","1149270.65504","1150021.03107","1150788.74728","1151555.56751","1152323.17953","1154617.20977","Mapping"
"Blocked","Male","done","21","M_greet.wav","None","724.825805053","201","1146201.40809","1153073.15518","1153840.58355","1154607.93618","1155374.94006","1156142.42872","1142315.41748","1143082.72867","1146968.79874","1147736.27751","1148503.35497","1149270.65504","1150021.03107","1150788.74728","1151555.56751","1152323.17953","1155384.45882","Mapping"
"Blocked","Male","done","21","M_park.wav","None","722.445495427","201","1146201.40809","1153073.15518","1153840.58355","1154607.93618","1155374.94006","1156142.42872","1156892.53546","1143082.72867","1146968.79874","1147736.27751","1148503.35497","1149270.65504","1150021.03107","1150788.74728","1151555.56751","1152323.17953","1156151.58297","Mapping"
"Blocked","Male","done","21","M_cad.wav","None","736.388192978","201","1146201.40809","1153073.15518","1153840.58355","1154607.93618","1155374.94006","1156142.42872","1156892.53546","1157660.00866","1146968.79874","1147736.27751","1148503.35497","1149270.65504","1150021.03107","1150788.74728","1151555.56751","1152323.17953","1156901.68106","Mapping"
"Blocked","Male","tile","14","M_park.wav","None","732.650621329","201","1160778.82133","1153073.15518","1153840.58355","1154607.93618","1155374.94006","1156142.42872","1156892.53546","1157660.00866","1146968.79874","1147736.27751","1148503.35497","1149270.65504","1150021.03107","1150788.74728","1151555.56751","1152323.17953","1157669.55927","Mapping"
"Blocked","Male","tile","14","M_tile.wav","None","736.476616003","201","1160778.82133","1153073.15518","1153840.58355","1154607.93618","1155374.94006","1156142.42872","1156892.53546","1157660.00866","1161546.21786","1147736.27751","1148503.35497","1149270.65504","1150021.03107","1150788.74728","1151555.56751","1152323.17953","1160787.82626","Mapping"
"Blocked","Male","tile","14","M_lash.wav","None","733.005859423","201","1160778.82133","1153073.15518","1153840.58355","1154607.93618","1155374.94006","1156142.42872","1156892.53546","1157660.00866","1161546.21786","1162313.59213","1148503.35497","1149270.65504","1150021.03107","1150788.74728","1151555.56751","1152323.17953","1161555.50104","Mapping"
"Blocked","Male","tile","14","M_romp.wav","None","729.856330901","201","1160778.82133","1153073.15518","1153840.58355","1154607.93618","1155374.94006","1156142.42872","1156892.53546","1157660.00866","1161546.21786","1162313.59213","1163080.71133","1149270.65504","1150021.03107","1150788.74728","1151555.56751","1152323.17953","1162322.92106","Mapping"
"Blocked","Male","tile","14","M_knife.wav","None","727.187873796","201","1160778.82133","1153073.15518","1153840.58355","1154607.93618","1155374.94006","1156142.42872","1156892.53546","1157660.00866","1161546.21786","1162313.59213","1163080.71133","1163848.06426","1150021.03107","1150788.74728","1151555.56751","1152323.17953","1163089.79354","Mapping"
"Blocked","Male","tile","14","M_done.wav","None","723.816051614","201","1160778.82133","1153073.15518","1153840.58355","1154607.93618","1155374.94006","1156142.42872","1156892.53546","1157660.00866","1161546.21786","1162313.59213","1163080.71133","1163848.06426","1164615.19027","1150788.74728","1151555.56751","1152323.17953","1163857.37836","Mapping"
"Blocked","Male","tile","14","M_tile.wav","None","720.762366895","201","1160778.82133","1153073.15518","1153840.58355","1154607.93618","1155374.94006","1156142.42872","1156892.53546","1157660.00866","1161546.21786","1162313.59213","1163080.71133","1163848.06426","1164615.19027","1165365.66245","1151555.56751","1152323.17953","1164624.73593","Mapping"
"Blocked","Male","tile","14","M_romp.wav","space","494.883060455","201","1160778.82133","1153073.15518","1153840.58355","1154607.93618","1155374.94006","1156142.42872","1156892.53546","1157660.00866","1161546.21786","1162313.59213","1163080.71133","1163848.06426","1164615.19027","1165365.66245","1166132.96715","1152323.17953","1165375.76895","Mapping"
"Blocked","Male","tile","14","M_tile.wav","None","730.308030732","201","1160778.82133","1153073.15518","1153840.58355","1154607.93618","1155374.94006","1156142.42872","1156892.53546","1157660.00866","1161546.21786","1162313.59213","1163080.71133","1163848.06426","1164615.19027","1165365.66245","1166132.96715","1166900.01679","1166142.40553","Mapping"
"Blocked","Male","tile","14","M_dime.wav","space","536.606962793","201","1160778.82133","1167667.68508","1153840.58355","1154607.93618","1155374.94006","1156142.42872","1156892.53546","1157660.00866","1161546.21786","1162313.59213","1163080.71133","1163848.06426","1164615.19027","1165365.66245","1166132.96715","1166900.01679","1166909.01151","Mapping"
"Blocked","Male","tile","14","M_bluff.wav","None","722.420452628","201","1160778.82133","1167667.68508","1168434.69452","1154607.93618","1155374.94006","1156142.42872","1156892.53546","1157660.00866","1161546.21786","1162313.59213","1163080.71133","1163848.06426","1164615.19027","1165365.66245","1166132.96715","1166900.01679","1167677.34359","Mapping"
"Blocked","Male","tile","14","M_tile.wav","None","720.073224511","201","1160778.82133","1167667.68508","1168434.69452","1169185.12713","1155374.94006","1156142.42872","1156892.53546","1157660.00866","1161546.21786","1162313.59213","1163080.71133","1163848.06426","1164615.19027","1165365.66245","1166132.96715","1166900.01679","1168444.14836","Mapping"
"Blocked","Male","tile","14","M_jaw.wav","space","587.392674759","201","1160778.82133","1167667.68508","1168434.69452","1169185.12713","1169952.19532","1156142.42872","1156892.53546","1157660.00866","1161546.21786","1162313.59213","1163080.71133","1163848.06426","1164615.19027","1165365.66245","1166132.96715","1166900.01679","1169194.13793","Mapping"
"Blocked","Male","tile","14","M_jaw.wav","None","729.800989386","201","1160778.82133","1167667.68508","1168434.69452","1169185.12713","1169952.19532","1170719.54145","1156892.53546","1157660.00866","1161546.21786","1162313.59213","1163080.71133","1163848.06426","1164615.19027","1165365.66245","1166132.96715","1166900.01679","1169961.26888","Mapping"
"Blocked","Male","tile","14","M_cling.wav","None","726.048886776","201","1160778.82133","1167667.68508","1168434.69452","1169185.12713","1169952.19532","1170719.54145","1171486.94756","1157660.00866","1161546.21786","1162313.59213","1163080.71133","1163848.06426","1164615.19027","1165365.66245","1166132.96715","1166900.01679","1170729.23211","Mapping"
"Blocked","Male","tile","14","M_depth.wav","None","723.141130991","201","1160778.82133","1167667.68508","1168434.69452","1169185.12713","1169952.19532","1170719.54145","1171486.94756","1172254.02193","1161546.21786","1162313.59213","1163080.71133","1163848.06426","1164615.19027","1165365.66245","1166132.96715","1166900.01679","1171496.21064","Mapping"
"Blocked","Male","done","22","M_lash.wav","None","720.638389233","201","1175356.11524","1167667.68508","1168434.69452","1169185.12713","1169952.19532","1170719.54145","1171486.94756","1172254.02193","1161546.21786","1162313.59213","1163080.71133","1163848.06426","1164615.19027","1165365.66245","1166132.96715","1166900.01679","1172263.0485","Mapping"
"Blocked","Male","done","22","M_tile.wav","None","736.675722525","201","1175356.11524","1167667.68508","1168434.69452","1169185.12713","1169952.19532","1170719.54145","1171486.94756","1172254.02193","1176123.4184","1162313.59213","1163080.71133","1163848.06426","1164615.19027","1165365.66245","1166132.96715","1166900.01679","1175365.1149","Mapping"
"Blocked","Male","done","22","M_done.wav","None","739.354382269","201","1175356.11524","1167667.68508","1168434.69452","1169185.12713","1169952.19532","1170719.54145","1171486.94756","1172254.02193","1176123.4184","1176890.90613","1163080.71133","1163848.06426","1164615.19027","1165365.66245","1166132.96715","1166900.01679","1176127.08888","Mapping"
"Blocked","Male","done","22","M_park.wav","space","552.739829291","201","1175356.11524","1167667.68508","1168434.69452","1169185.12713","1169952.19532","1170719.54145","1171486.94756","1172254.02193","1176123.4184","1176890.90613","1177658.4557","1163848.06426","1164615.19027","1165365.66245","1166132.96715","1166900.01679","1176900.56866","Mapping"
"Blocked","Male","done","22","M_lash.wav","None","725.451876875","201","1175356.11524","1167667.68508","1168434.69452","1169185.12713","1169952.19532","1170719.54145","1171486.94756","1172254.02193","1176123.4184","1176890.90613","1177658.4557","1178425.36373","1164615.19027","1165365.66245","1166132.96715","1166900.01679","1177668.07927","Mapping"
"Blocked","Male","done","22","M_ball.wav","None","723.385375924","201","1175356.11524","1167667.68508","1168434.69452","1169185.12713","1169952.19532","1170719.54145","1171486.94756","1172254.02193","1176123.4184","1176890.90613","1177658.4557","1178425.36373","1179175.84828","1165365.66245","1166132.96715","1166900.01679","1178434.40328","Mapping"
"Blocked","Male","done","22","M_cad.wav","None","736.898325849","201","1175356.11524","1167667.68508","1168434.69452","1169185.12713","1169952.19532","1170719.54145","1171486.94756","1172254.02193","1176123.4184","1176890.90613","1177658.4557","1178425.36373","1179175.84828","1179943.03519","1166132.96715","1166900.01679","1179184.80992","Mapping"
"Blocked","Male","done","22","M_knife.wav","None","733.806612901","201","1175356.11524","1167667.68508","1168434.69452","1169185.12713","1169952.19532","1170719.54145","1171486.94756","1172254.02193","1176123.4184","1176890.90613","1177658.4557","1178425.36373","1179175.84828","1179943.03519","1180710.33649","1166900.01679","1179952.6634","Mapping"
"Blocked","Male","done","22","M_done.wav","None","731.298306026","201","1175356.11524","1167667.68508","1168434.69452","1169185.12713","1169952.19532","1170719.54145","1171486.94756","1172254.02193","1176123.4184","1176890.90613","1177658.4557","1178425.36373","1179175.84828","1179943.03519","1180710.33649","1181477.82453","1180719.42087","Mapping"
"Blocked","Male","done","22","M_cave.wav","space","526.515920646","201","1175356.11524","1182244.81234","1168434.69452","1169185.12713","1169952.19532","1170719.54145","1171486.94756","1172254.02193","1176123.4184","1176890.90613","1177658.4557","1178425.36373","1179175.84828","1179943.03519","1180710.33649","1181477.82453","1181486.74165","Mapping"
"Blocked","Male","done","22","M_depth.wav","None","724.27053377","201","1175356.11524","1182244.81234","1183012.35789","1169185.12713","1169952.19532","1170719.54145","1171486.94756","1172254.02193","1176123.4184","1176890.90613","1177658.4557","1178425.36373","1179175.84828","1179943.03519","1180710.33649","1181477.82453","1182253.89672","Mapping"
"Blocked","Male","done","22","M_done.wav","None","720.527705736","201","1175356.11524","1182244.81234","1183012.35789","1183762.51038","1169952.19532","1170719.54145","1171486.94756","1172254.02193","1176123.4184","1176890.90613","1177658.4557","1178425.36373","1179175.84828","1179943.03519","1180710.33649","1181477.82453","1183022.0739","Mapping"
"Blocked","Male","done","22","M_cave.wav","None","734.841408674","201","1175356.11524","1182244.81234","1183012.35789","1183762.51038","1184529.81076","1170719.54145","1171486.94756","1172254.02193","1176123.4184","1176890.90613","1177658.4557","1178425.36373","1179175.84828","1179943.03519","1180710.33649","1181477.82453","1183771.89775","Mapping"
"Blocked","Male","done","22","M_done.wav","space","0.0361730344594","201","1175356.11524","1182244.81234","1183012.35789","1183762.51038","1184529.81076","1185297.211","1171486.94756","1172254.02193","1176123.4184","1176890.90613","1177658.4557","1178425.36373","1179175.84828","1179943.03519","1180710.33649","1181477.82453","1184539.00644","Mapping"
"Blocked","Male","done","22","M_park.wav","space","490.901552606","201","1175356.11524","1182244.81234","1183012.35789","1183762.51038","1184529.81076","1185297.211","1186064.39543","1172254.02193","1176123.4184","1176890.90613","1177658.4557","1178425.36373","1179175.84828","1179943.03519","1180710.33649","1181477.82453","1185306.27373","Mapping"
"Blocked","Male","done","22","M_romp.wav","None","722.083764616","201","1175356.11524","1182244.81234","1183012.35789","1183762.51038","1184529.81076","1185297.211","1186064.39543","1186814.7526","1176123.4184","1176890.90613","1177658.4557","1178425.36373","1179175.84828","1179943.03519","1180710.33649","1181477.82453","1186074.19585","Mapping"
"Blocked","Male","ball","1","M_jolt.wav","None","736.395304091","201","1189934.06768","1182244.81234","1183012.35789","1183762.51038","1184529.81076","1185297.211","1186064.39543","1186814.7526","1176123.4184","1176890.90613","1177658.4557","1178425.36373","1179175.84828","1179943.03519","1180710.33649","1181477.82453","1186824.00177","Mapping"
"Blocked","Male","ball","1","M_ball.wav","None","736.458374653","201","1189934.06768","1182244.81234","1183012.35789","1183762.51038","1184529.81076","1185297.211","1186064.39543","1186814.7526","1190701.07094","1176890.90613","1177658.4557","1178425.36373","1179175.84828","1179943.03519","1180710.33649","1181477.82453","1189943.09053","Mapping"
"Blocked","Male","ball","1","M_cling.wav","None","733.567622956","201","1189934.06768","1182244.81234","1183012.35789","1183762.51038","1184529.81076","1185297.211","1186064.39543","1186814.7526","1190701.07094","1191468.59361","1177658.4557","1178425.36373","1179175.84828","1179943.03519","1180710.33649","1181477.82453","1190710.51859","Mapping"
"Blocked","Male","ball","1","M_romp.wav","space","31.3777937554","201","1189934.06768","1182244.81234","1183012.35789","1183762.51038","1184529.81076","1185297.211","1186064.39543","1186814.7526","1190701.07094","1191468.59361","1192235.44507","1178425.36373","1179175.84828","1179943.03519","1180710.33649","1181477.82453","1191477.6412","Mapping"
"Blocked","Male","ball","1","M_cling.wav","None","727.150773164","201","1189934.06768","1182244.81234","1183012.35789","1183762.51038","1184529.81076","1185297.211","1186064.39543","1186814.7526","1190701.07094","1191468.59361","1192235.44507","1193002.86416","1179175.84828","1179943.03519","1180710.33649","1181477.82453","1192244.69547","Mapping"
"Blocked","Male","ball","1","M_cling.wav","None","724.20004243","201","1189934.06768","1182244.81234","1183012.35789","1183762.51038","1184529.81076","1185297.211","1186064.39543","1186814.7526","1190701.07094","1191468.59361","1192235.44507","1193002.86416","1193770.02819","1179943.03519","1180710.33649","1181477.82453","1193012.1461","Mapping"
"Blocked","Male","ball","1","M_ball.wav","None","721.738111693","201","1189934.06768","1182244.81234","1183012.35789","1183762.51038","1184529.81076","1185297.211","1186064.39543","1186814.7526","1190701.07094","1191468.59361","1192235.44507","1193002.86416","1193770.02819","1194520.34672","1180710.33649","1181477.82453","1193779.01766","Mapping"
"Blocked","Male","ball","1","M_knife.wav","space","532.373789698","201","1189934.06768","1182244.81234","1183012.35789","1183762.51038","1184529.81076","1185297.211","1186064.39543","1186814.7526","1190701.07094","1191468.59361","1192235.44507","1193002.86416","1193770.02819","1194520.34672","1195287.64245","1181477.82453","1194529.55136","Mapping"
"Blocked","Male","ball","1","M_knife.wav","None","730.776424985","201","1189934.06768","1182244.81234","1183012.35789","1183762.51038","1184529.81076","1185297.211","1186064.39543","1186814.7526","1190701.07094","1191468.59361","1192235.44507","1193002.86416","1193770.02819","1194520.34672","1195287.64245","1196055.02198","1195296.98035","Mapping"
"Blocked","Male","ball","1","M_ball.wav","None","727.737889625","201","1189934.06768","1196822.29731","1183012.35789","1183762.51038","1184529.81076","1185297.211","1186064.39543","1186814.7526","1190701.07094","1191468.59361","1192235.44507","1193002.86416","1193770.02819","1194520.34672","1195287.64245","1196055.02198","1196064.36019","Mapping"
"Blocked","Male","ball","1","M_jolt.wav","space","436.983316671","201","1189934.06768","1196822.29731","1197589.33334","1183762.51038","1184529.81076","1185297.211","1186064.39543","1186814.7526","1190701.07094","1191468.59361","1192235.44507","1193002.86416","1193770.02819","1194520.34672","1195287.64245","1196055.02198","1196831.88688","Mapping"
"Blocked","Male","ball","1","M_dime.wav","None","720.561714843","201","1189934.06768","1196822.29731","1197589.33334","1198339.96042","1184529.81076","1185297.211","1186064.39543","1186814.7526","1190701.07094","1191468.59361","1192235.44507","1193002.86416","1193770.02819","1194520.34672","1195287.64245","1196055.02198","1197598.58406","Mapping"
"Blocked","Male","ball","1","M_jaw.wav","None","733.842476271","201","1189934.06768","1196822.29731","1197589.33334","1198339.96042","1199107.41353","1185297.211","1186064.39543","1186814.7526","1190701.07094","1191468.59361","1192235.44507","1193002.86416","1193770.02819","1194520.34672","1195287.64245","1196055.02198","1198349.78774","Mapping"
"Blocked","Male","ball","1","M_priest.wav","None","731.239872985","201","1189934.06768","1196822.29731","1197589.33334","1198339.96042","1199107.41353","1199874.51139","1186064.39543","1186814.7526","1190701.07094","1191468.59361","1192235.44507","1193002.86416","1193770.02819","1194520.34672","1195287.64245","1196055.02198","1199116.93291","Mapping"
