"Condition","Talker","Target","Trial","current_stimulus","response_response","response_time_response","subject_nr","time_Audio1","time_Audio10","time_Audio11","time_Audio12","time_Audio13","time_Audio14","time_Audio15","time_Audio16","time_Audio2","time_Audio3","time_Audio4","time_Audio5","time_Audio6","time_Audio7","time_Audio8","time_Audio9","time_response"
"Blocked","Male","ball","3","M_cling.wav","NA","NA","109","471473.616941","NA","NA","NA","NA","NA","NA","NA","NA","NA","NA","NA","NA","NA","NA","NA","NA"
"Blocked","Male","ball","3","M_cling.wav","None","715.329656494","109","471473.616941","NA","NA","NA","NA","NA","NA","NA","472223.331807","NA","NA","NA","NA","NA","NA","NA","471488.433093"
"Blocked","Male","ball","3","M_bluff.wav","None","734.835024108","109","471473.616941","NA","NA","NA","NA","NA","NA","NA","472223.331807","472989.766399","NA","NA","NA","NA","NA","NA","472233.098867"
"Blocked","Male","ball","3","M_jaw.wav","None","732.999777654","109","471473.616941","NA","NA","NA","NA","NA","NA","NA","472223.331807","472989.766399","473756.558703","NA","NA","NA","NA","NA","472999.268499"
"Blocked","Male","ball","3","M_ball.wav","None","733.433237183","109","471473.616941","NA","NA","NA","NA","NA","NA","NA","472223.331807","472989.766399","473756.558703","474523.180034","NA","NA","NA","NA","473763.017311"
"Blocked","Male","ball","3","M_jolt.wav","space","572.391598835","109","471473.616941","NA","NA","NA","NA","NA","NA","NA","472223.331807","472989.766399","473756.558703","474523.180034","475289.8261","NA","NA","NA","474532.735621"
"Blocked","Male","ball","3","M_priest.wav","None","725.366624072","109","471473.616941","NA","NA","NA","NA","NA","NA","NA","472223.331807","472989.766399","473756.558703","474523.180034","475289.8261","476056.909335","NA","NA","475299.281515"
"Blocked","Male","ball","3","M_ball.wav","None","721.720246715","109","471473.616941","NA","NA","NA","NA","NA","NA","NA","472223.331807","472989.766399","473756.558703","474523.180034","475289.8261","476056.909335","476824.284738","NA","476067.162105"
"Blocked","Male","ball","3","M_priest.wav","space","367.330016219","109","471473.616941","NA","NA","NA","NA","NA","NA","NA","472223.331807","472989.766399","473756.558703","474523.180034","475289.8261","476056.909335","476824.284738","477573.436601","476833.724385"
"Blocked","Male","ball","3","M_park.wav","None","736.094591906","109","471473.616941","478339.765456","NA","NA","NA","NA","NA","NA","472223.331807","472989.766399","473756.558703","474523.180034","475289.8261","476056.909335","476824.284738","477573.436601","477582.64035"
"Blocked","Male","ball","3","M_ball.wav","None","734.520905185","109","471473.616941","478339.765456","479106.521896","NA","NA","NA","NA","NA","472223.331807","472989.766399","473756.558703","474523.180034","475289.8261","476056.909335","476824.284738","477573.436601","478348.991465"
"Blocked","Male","ball","3","M_knife.wav","space","381.208449253","109","471473.616941","478339.765456","479106.521896","479873.095924","NA","NA","NA","NA","472223.331807","472989.766399","473756.558703","474523.180034","475289.8261","476056.909335","476824.284738","477573.436601","479115.78717"
"Blocked","Male","ball","3","M_done.wav","None","729.17933634","109","471473.616941","478339.765456","479106.521896","479873.095924","480639.876789","NA","NA","NA","472223.331807","472989.766399","473756.558703","474523.180034","475289.8261","476056.909335","476824.284738","477573.436601","479882.721384"
"Blocked","Male","ball","3","M_greet.wav","None","727.102317149","109","471473.616941","478339.765456","479106.521896","479873.095924","480639.876789","481406.582524","NA","NA","472223.331807","472989.766399","473756.558703","474523.180034","475289.8261","476056.909335","476824.284738","477573.436601","480649.159376"
"Blocked","Male","ball","3","M_ball.wav","None","724.93811138","109","471473.616941","478339.765456","479106.521896","479873.095924","480639.876789","481406.582524","482173.816017","NA","472223.331807","472989.766399","473756.558703","474523.180034","475289.8261","476056.909335","476824.284738","477573.436601","481416.16099"
"Blocked","Male","ball","3","M_jolt.wav","space","417.411282193","109","471473.616941","478339.765456","479106.521896","479873.095924","480639.876789","481406.582524","482173.816017","482940.928624","472223.331807","472989.766399","473756.558703","474523.180034","475289.8261","476056.909335","476824.284738","477573.436601","482183.494036"
"Blocked","Male","cave","8","M_depth.wav","None","718.985309009","109","486073.81611","478339.765456","479106.521896","479873.095924","480639.876789","481406.582524","482173.816017","482940.928624","472223.331807","472989.766399","473756.558703","474523.180034","475289.8261","476056.909335","476824.284738","477573.436601","482950.463186"
"Blocked","Male","cave","8","M_lash.wav","None","720.731204725","109","486073.81611","478339.765456","479106.521896","479873.095924","480639.876789","481406.582524","482173.816017","482940.928624","486840.556164","472989.766399","473756.558703","474523.180034","475289.8261","476056.909335","476824.284738","477573.436601","486083.466303"
"Blocked","Male","cave","8","M_priest.wav","None","718.920382904","109","486073.81611","478339.765456","479106.521896","479873.095924","480639.876789","481406.582524","482173.816017","482940.928624","486840.556164","487590.182297","473756.558703","474523.180034","475289.8261","476056.909335","476824.284738","477573.436601","486850.01467"
"Blocked","Male","cave","8","M_cave.wav","None","733.677174081","109","486073.81611","478339.765456","479106.521896","479873.095924","480639.876789","481406.582524","482173.816017","482940.928624","486840.556164","487590.182297","488357.413007","474523.180034","475289.8261","476056.909335","476824.284738","477573.436601","487599.504768"
"Blocked","Male","cave","8","M_priest.wav","space","537.362383562","109","486073.81611","478339.765456","479106.521896","479873.095924","480639.876789","481406.582524","482173.816017","482940.928624","486840.556164","487590.182297","488357.413007","489123.504418","475289.8261","476056.909335","476824.284738","477573.436601","488367.446574"
"Blocked","Male","cave","8","M_cave.wav","None","728.365285671","109","486073.81611","478339.765456","479106.521896","479873.095924","480639.876789","481406.582524","482173.816017","482940.928624","486840.556164","487590.182297","488357.413007","489123.504418","489890.027433","476056.909335","476824.284738","477573.436601","489133.08783"
"Blocked","Male","cave","8","M_knife.wav","space","517.840938875","109","486073.81611","478339.765456","479106.521896","479873.095924","480639.876789","481406.582524","482173.816017","482940.928624","486840.556164","487590.182297","488357.413007","489123.504418","489890.027433","490657.173739","476824.284738","477573.436601","489898.973641"
"Blocked","Male","cave","8","M_tile.wav","None","722.631995683","109","486073.81611","478339.765456","479106.521896","479873.095924","480639.876789","481406.582524","482173.816017","482940.928624","486840.556164","487590.182297","488357.413007","489123.504418","489890.027433","490657.173739","491423.674184","477573.436601","490666.955949"
"Blocked","Male","cave","8","M_cave.wav","None","720.400390448","109","486073.81611","478339.765456","479106.521896","479873.095924","480639.876789","481406.582524","482173.816017","482940.928624","486840.556164","487590.182297","488357.413007","489123.504418","489890.027433","490657.173739","491423.674184","492173.478092","491433.693839"
"Blocked","Male","cave","8","M_depth.wav","space","497.809360037","109","486073.81611","492940.004199","479106.521896","479873.095924","480639.876789","481406.582524","482173.816017","482940.928624","486840.556164","487590.182297","488357.413007","489123.504418","489890.027433","490657.173739","491423.674184","492173.478092","492182.933197"
"Blocked","Male","cave","8","M_cad.wav","None","733.105823747","109","486073.81611","492940.004199","493706.774861","479873.095924","480639.876789","481406.582524","482173.816017","482940.928624","486840.556164","487590.182297","488357.413007","489123.504418","489890.027433","490657.173739","491423.674184","492173.478092","492949.374282"
"Blocked","Male","cave","8","M_done.wav","None","731.010563555","109","486073.81611","492940.004199","493706.774861","494473.275615","480639.876789","481406.582524","482173.816017","482940.928624","486840.556164","487590.182297","488357.413007","489123.504418","489890.027433","490657.173739","491423.674184","492173.478092","493715.85865"
"Blocked","Male","cave","8","M_cave.wav","None","728.424028493","109","486073.81611","492940.004199","493706.774861","494473.275615","495239.888599","481406.582524","482173.816017","482940.928624","486840.556164","487590.182297","488357.413007","489123.504418","489890.027433","490657.173739","491423.674184","492173.478092","494482.971875"
"Blocked","Male","cave","8","M_bluff.wav","space","487.850303762","109","486073.81611","492940.004199","493706.774861","494473.275615","495239.888599","496006.687705","482173.816017","482940.928624","486840.556164","487590.182297","488357.413007","489123.504418","489890.027433","490657.173739","491423.674184","492173.478092","495248.875309"
"Blocked","Male","cave","8","M_gnash.wav","None","723.586101318","109","486073.81611","492940.004199","493706.774861","494473.275615","495239.888599","496006.687705","496773.798147","482940.928624","486840.556164","487590.182297","488357.413007","489123.504418","489890.027433","490657.173739","491423.674184","492173.478092","496016.059952"
"Blocked","Male","cave","8","M_jaw.wav","None","720.435945317","109","486073.81611","492940.004199","493706.774861","494473.275615","495239.888599","496006.687705","496773.798147","497522.911055","486840.556164","487590.182297","488357.413007","489123.504418","489890.027433","490657.173739","491423.674184","492173.478092","496783.550058"
"Blocked","Male","tile","17","M_bluff.wav","None","735.591259436","109","500656.981743","492940.004199","493706.774861","494473.275615","495239.888599","496006.687705","496773.798147","497522.911055","486840.556164","487590.182297","488357.413007","489123.504418","489890.027433","490657.173739","491423.674184","492173.478092","497532.696974"
"Blocked","Male","tile","17","M_gnash.wav","None","720.280740759","109","500656.981743","492940.004199","493706.774861","494473.275615","495239.888599","496006.687705","496773.798147","497522.911055","501406.286956","487590.182297","488357.413007","489123.504418","489890.027433","490657.173739","491423.674184","492173.478092","500666.751895"
"Blocked","Male","tile","17","M_park.wav","None","735.596824554","109","500656.981743","492940.004199","493706.774861","494473.275615","495239.888599","496006.687705","496773.798147","497522.911055","501406.286956","502173.261981","488357.413007","489123.504418","489890.027433","490657.173739","491423.674184","492173.478092","501415.894792"
"Blocked","Male","tile","17","M_tile.wav","None","733.192392043","109","500656.981743","492940.004199","493706.774861","494473.275615","495239.888599","496006.687705","496773.798147","497522.911055","501406.286956","502173.261981","502939.777575","489123.504418","489890.027433","490657.173739","491423.674184","492173.478092","502182.714922"
"Blocked","Male","tile","17","M_cad.wav","space","467.334251967","109","500656.981743","492940.004199","493706.774861","494473.275615","495239.888599","496006.687705","496773.798147","497522.911055","501406.286956","502173.261981","502939.777575","503706.502789","489890.027433","490657.173739","491423.674184","492173.478092","502949.184759"
"Blocked","Male","tile","17","M_cling.wav","None","728.468240122","109","500656.981743","492940.004199","493706.774861","494473.275615","495239.888599","496006.687705","496773.798147","497522.911055","501406.286956","502173.261981","502939.777575","503706.502789","504473.096295","490657.173739","491423.674184","492173.478092","503716.115263"
"Blocked","Male","tile","17","M_greet.wav","None","726.379472413","109","500656.981743","492940.004199","493706.774861","494473.275615","495239.888599","496006.687705","496773.798147","497522.911055","501406.286956","502173.261981","502939.777575","503706.502789","504473.096295","505239.681144","491423.674184","492173.478092","504482.680635"
"Blocked","Male","tile","17","M_dime.wav","None","725.235844264","109","500656.981743","492940.004199","493706.774861","494473.275615","495239.888599","496006.687705","496773.798147","497522.911055","501406.286956","502173.261981","502939.777575","503706.502789","504473.096295","505239.681144","506006.605465","492173.478092","505248.655178"
"Blocked","Male","tile","17","M_tile.wav","None","721.433025668","109","500656.981743","492940.004199","493706.774861","494473.275615","495239.888599","496006.687705","496773.798147","497522.911055","501406.286956","502173.261981","502939.777575","503706.502789","504473.096295","505239.681144","506006.605465","506773.403025","506016.670258"
"Blocked","Male","tile","17","M_greet.wav","space","513.074430521","109","500656.981743","507522.585187","493706.774861","494473.275615","495239.888599","496006.687705","496773.798147","497522.911055","501406.286956","502173.261981","502939.777575","503706.502789","504473.096295","505239.681144","506006.605465","506773.403025","506783.323435"
"Blocked","Male","tile","17","M_tile.wav","None","735.150070628","109","500656.981743","507522.585187","508289.490957","494473.275615","495239.888599","496006.687705","496773.798147","497522.911055","501406.286956","502173.261981","502939.777575","503706.502789","504473.096295","505239.681144","506006.605465","506773.403025","507531.619509"
"Blocked","Male","tile","17","M_priest.wav","space","565.922169597","109","500656.981743","507522.585187","508289.490957","509056.046435","495239.888599","496006.687705","496773.798147","497522.911055","501406.286956","502173.261981","502939.777575","503706.502789","504473.096295","505239.681144","506006.605465","506773.403025","508298.489106"
"Blocked","Male","tile","17","M_reek.wav","None","730.551751796","109","500656.981743","507522.585187","508289.490957","509056.046435","509823.016204","496006.687705","496773.798147","497522.911055","501406.286956","502173.261981","502939.777575","503706.502789","504473.096295","505239.681144","506006.605465","506773.403025","509065.441871"
"Blocked","Male","tile","17","M_reek.wav","None","727.767037461","109","500656.981743","507522.585187","508289.490957","509056.046435","509823.016204","510589.589305","496773.798147","497522.911055","501406.286956","502173.261981","502939.777575","503706.502789","504473.096295","505239.681144","506006.605465","506773.403025","509832.770898"
"Blocked","Male","tile","17","M_tile.wav","None","725.896854536","109","500656.981743","507522.585187","508289.490957","509056.046435","509823.016204","510589.589305","511356.709331","497522.911055","501406.286956","502173.261981","502939.777575","503706.502789","504473.096295","505239.681144","506006.605465","506773.403025","510599.10068"
"Blocked","Male","tile","17","M_ball.wav","space","441.6630622","109","500656.981743","507522.585187","508289.490957","509056.046435","509823.016204","510589.589305","511356.709331","512123.459897","501406.286956","502173.261981","502939.777575","503706.502789","504473.096295","505239.681144","506006.605465","506773.403025","511366.705798"
"Blocked","Male","done","22","M_cling.wav","None","720.698741614","109","515240.000519","507522.585187","508289.490957","509056.046435","509823.016204","510589.589305","511356.709331","512123.459897","501406.286956","502173.261981","502939.777575","503706.502789","504473.096295","505239.681144","506006.605465","506773.403025","512133.22603"
"Blocked","Male","done","22","M_lash.wav","None","720.943606109","109","515240.000519","507522.585187","508289.490957","509056.046435","509823.016204","510589.589305","511356.709331","512123.459897","515989.630672","502173.261981","502939.777575","503706.502789","504473.096295","505239.681144","506006.605465","506773.403025","515249.58084"
"Blocked","Male","done","22","M_done.wav","None","727.952540736","109","515240.000519","507522.585187","508289.490957","509056.046435","509823.016204","510589.589305","511356.709331","512123.459897","515989.630672","516756.099891","502939.777575","503706.502789","504473.096295","505239.681144","506006.605465","506773.403025","516006.830542"
"Blocked","Male","done","22","M_bluff.wav","space","442.694151658","109","515240.000519","507522.585187","508289.490957","509056.046435","509823.016204","510589.589305","511356.709331","512123.459897","515989.630672","516756.099891","517522.769454","503706.502789","504473.096295","505239.681144","506006.605465","506773.403025","516765.484196"
"Blocked","Male","done","22","M_gnash.wav","None","736.716955551","109","515240.000519","507522.585187","508289.490957","509056.046435","509823.016204","510589.589305","511356.709331","512123.459897","515989.630672","516756.099891","517522.769454","518289.53486","504473.096295","505239.681144","506006.605465","506773.403025","517526.964921"
"Blocked","Male","done","22","M_reek.wav","None","728.916849126","109","515240.000519","507522.585187","508289.490957","509056.046435","509823.016204","510589.589305","511356.709331","512123.459897","515989.630672","516756.099891","517522.769454","518289.53486","519056.124656","505239.681144","506006.605465","506773.403025","518299.371793"
"Blocked","Male","done","22","M_ball.wav","None","726.873529726","109","515240.000519","507522.585187","508289.490957","509056.046435","509823.016204","510589.589305","511356.709331","512123.459897","515989.630672","516756.099891","517522.769454","518289.53486","519056.124656","519822.724036","506006.605465","506773.403025","519065.925416"
"Blocked","Male","done","22","M_done.wav","None","725.019114558","109","515240.000519","507522.585187","508289.490957","509056.046435","509823.016204","510589.589305","511356.709331","512123.459897","515989.630672","516756.099891","517522.769454","518289.53486","519056.124656","519822.724036","520589.798614","506773.403025","519832.433281"
"Blocked","Male","done","22","M_jaw.wav","space","472.210207372","109","515240.000519","507522.585187","508289.490957","509056.046435","509823.016204","510589.589305","511356.709331","512123.459897","515989.630672","516756.099891","517522.769454","518289.53486","519056.124656","519822.724036","520589.798614","521356.25052","520599.942247"
"Blocked","Male","done","22","M_romp.wav","None","719.091045903","109","515240.000519","522105.966932","508289.490957","509056.046435","509823.016204","510589.589305","511356.709331","512123.459897","515989.630672","516756.099891","517522.769454","518289.53486","519056.124656","519822.724036","520589.798614","521356.25052","521367.480892"
"Blocked","Male","done","22","M_cave.wav","None","735.181297059","109","515240.000519","522105.966932","522872.553018","509056.046435","509823.016204","510589.589305","511356.709331","512123.459897","515989.630672","516756.099891","517522.769454","518289.53486","519056.124656","519822.724036","520589.798614","521356.25052","522115.968035"
"Blocked","Male","done","22","M_done.wav","None","733.424271224","109","515240.000519","522105.966932","522872.553018","523639.290907","509823.016204","510589.589305","511356.709331","512123.459897","515989.630672","516756.099891","517522.769454","518289.53486","519056.124656","519822.724036","520589.798614","521356.25052","522882.3006"
"Blocked","Male","done","22","M_park.wav","space","375.154856592","109","515240.000519","522105.966932","522872.553018","523639.290907","524405.756107","510589.589305","511356.709331","512123.459897","515989.630672","516756.099891","517522.769454","518289.53486","519056.124656","519822.724036","520589.798614","521356.25052","523648.954395"
"Blocked","Male","done","22","M_tile.wav","None","729.236533167","109","515240.000519","522105.966932","522872.553018","523639.290907","524405.756107","525172.632815","511356.709331","512123.459897","515989.630672","516756.099891","517522.769454","518289.53486","519056.124656","519822.724036","520589.798614","521356.25052","524415.255424"
"Blocked","Male","done","22","M_done.wav","None","726.933199912","109","515240.000519","522105.966932","522872.553018","523639.290907","524405.756107","525172.632815","525939.200042","512123.459897","515989.630672","516756.099891","517522.769454","518289.53486","519056.124656","519822.724036","520589.798614","521356.25052","525182.657416"
"Blocked","Male","done","22","M_ball.wav","space","514.794664807","109","515240.000519","522105.966932","522872.553018","523639.290907","524405.756107","525172.632815","525939.200042","526706.225152","515989.630672","516756.099891","517522.769454","518289.53486","519056.124656","519822.724036","520589.798614","521356.25052","525949.237628"
"Blocked","Male","tile","13","M_park.wav","None","722.031273996","109","529822.907066","522105.966932","522872.553018","523639.290907","524405.756107","525172.632815","525939.200042","526706.225152","515989.630672","516756.099891","517522.769454","518289.53486","519056.124656","519822.724036","520589.798614","521356.25052","526716.38177"
"Blocked","Male","tile","13","M_tile.wav","None","720.697195735","109","529822.907066","522105.966932","522872.553018","523639.290907","524405.756107","525172.632815","525939.200042","526706.225152","530589.477075","516756.099891","517522.769454","518289.53486","519056.124656","519822.724036","520589.798614","521356.25052","529832.624968"
"Blocked","Male","tile","13","M_dime.wav","space","384.095499641","109","529822.907066","522105.966932","522872.553018","523639.290907","524405.756107","525172.632815","525939.200042","526706.225152","530589.477075","531339.058997","517522.769454","518289.53486","519056.124656","519822.724036","520589.798614","521356.25052","530599.782405"
"Blocked","Male","tile","13","M_park.wav","None","733.664807165","109","529822.907066","522105.966932","522872.553018","523639.290907","524405.756107","525172.632815","525939.200042","526706.225152","530589.477075","531339.058997","532105.83306","518289.53486","519056.124656","519822.724036","520589.798614","521356.25052","531348.97848"
"Blocked","Male","tile","13","M_romp.wav","None","731.791532598","109","529822.907066","522105.966932","522872.553018","523639.290907","524405.756107","525172.632815","525939.200042","526706.225152","530589.477075","531339.058997","532105.83306","532872.560129","519056.124656","519822.724036","520589.798614","521356.25052","532115.517881"
"Blocked","Male","tile","13","M_bluff.wav","None","735.523550771","109","529822.907066","522105.966932","522872.553018","523639.290907","524405.756107","525172.632815","525939.200042","526706.225152","530589.477075","531339.058997","532105.83306","532872.560129","533639.103549","519822.724036","520589.798614","521356.25052","532876.724988"
"Blocked","Male","tile","13","M_cling.wav","None","727.977583767","109","529822.907066","522105.966932","522872.553018","523639.290907","524405.756107","525172.632815","525939.200042","526706.225152","530589.477075","531339.058997","532105.83306","532872.560129","533639.103549","534405.806193","520589.798614","521356.25052","533648.964907"
"Blocked","Male","tile","13","M_tile.wav","None","725.824817433","109","529822.907066","522105.966932","522872.553018","523639.290907","524405.756107","525172.632815","525939.200042","526706.225152","530589.477075","531339.058997","532105.83306","532872.560129","533639.103549","534405.806193","535172.444838","521356.25052","534415.782254"
"Blocked","Male","tile","13","M_cad.wav","space","401.664830628","109","529822.907066","522105.966932","522872.553018","523639.290907","524405.756107","525172.632815","525939.200042","526706.225152","530589.477075","531339.058997","532105.83306","532872.560129","533639.103549","534405.806193","535172.444838","535939.160158","535182.172634"
"Blocked","Male","tile","13","M_tile.wav","None","721.85566416","109","529822.907066","536706.167646","522872.553018","523639.290907","524405.756107","525172.632815","525939.200042","526706.225152","530589.477075","531339.058997","532105.83306","532872.560129","533639.103549","534405.806193","535172.444838","535939.160158","535948.766758"
"Blocked","Male","tile","13","M_reek.wav","None","718.680465245","109","529822.907066","536706.167646","537455.492028","523639.290907","524405.756107","525172.632815","525939.200042","526706.225152","530589.477075","531339.058997","532105.83306","532872.560129","533639.103549","534405.806193","535172.444838","535939.160158","536716.394755"
"Blocked","Male","tile","13","M_greet.wav","space","0.0340088736266","109","529822.907066","536706.167646","537455.492028","538222.369663","524405.756107","525172.632815","525939.200042","526706.225152","530589.477075","531339.058997","532105.83306","532872.560129","533639.103549","534405.806193","535172.444838","535939.160158","537465.186432"
"Blocked","Male","tile","13","M_park.wav","None","731.902216212","109","529822.907066","536706.167646","537455.492028","538222.369663","538989.31408","525172.632815","525939.200042","526706.225152","530589.477075","531339.058997","532105.83306","532872.560129","533639.103549","534405.806193","535172.444838","535939.160158","538232.171351"
"Blocked","Male","tile","13","M_cling.wav","None","729.866935289","109","529822.907066","536706.167646","537455.492028","538222.369663","538989.31408","539755.656229","525939.200042","526706.225152","530589.477075","531339.058997","532105.83306","532872.560129","533639.103549","534405.806193","535172.444838","535939.160158","538998.967365"
"Blocked","Male","tile","13","M_tile.wav","None","727.973564528","109","529822.907066","536706.167646","537455.492028","538222.369663","538989.31408","539755.656229","540522.037025","526706.225152","530589.477075","531339.058997","532105.83306","532872.560129","533639.103549","534405.806193","535172.444838","535939.160158","539765.546649"
"Blocked","Male","tile","13","M_ball.wav","space","348.374356865","109","529822.907066","536706.167646","537455.492028","538222.369663","538989.31408","539755.656229","540522.037025","541289.413355","530589.477075","531339.058997","532105.83306","532872.560129","533639.103549","534405.806193","535172.444838","535939.160158","540531.374026"
"Blocked","Male","ball","6","M_greet.wav","None","722.707742825","109","544406.038072","536706.167646","537455.492028","538222.369663","538989.31408","539755.656229","540522.037025","541289.413355","530589.477075","531339.058997","532105.83306","532872.560129","533639.103549","534405.806193","535172.444838","535939.160158","541299.775572"
"Blocked","Male","ball","6","M_priest.wav","None","719.635807443","109","544406.038072","536706.167646","537455.492028","538222.369663","538989.31408","539755.656229","540522.037025","541289.413355","545155.56929","531339.058997","532105.83306","532872.560129","533639.103549","534405.806193","535172.444838","535939.160158","544416.235809"
"Blocked","Male","ball","6","M_tile.wav","None","735.277140513","109","544406.038072","536706.167646","537455.492028","538222.369663","538989.31408","539755.656229","540522.037025","541289.413355","545155.56929","545922.197423","532105.83306","532872.560129","533639.103549","534405.806193","535172.444838","535939.160158","545165.299559"
"Blocked","Male","ball","6","M_ball.wav","None","733.44282154","109","544406.038072","536706.167646","537455.492028","538222.369663","538989.31408","539755.656229","540522.037025","541289.413355","545155.56929","545922.197423","546688.866058","532872.560129","533639.103549","534405.806193","535172.444838","535939.160158","545931.766613"
"Blocked","Male","ball","6","M_cave.wav","space","364.90765179","109","544406.038072","536706.167646","537455.492028","538222.369663","538989.31408","539755.656229","540522.037025","541289.413355","545155.56929","545922.197423","546688.866058","547455.589726","533639.103549","534405.806193","535172.444838","535939.160158","546698.675475"
"Blocked","Male","ball","6","M_bluff.wav","None","728.806783794","109","544406.038072","536706.167646","537455.492028","538222.369663","538989.31408","539755.656229","540522.037025","541289.413355","545155.56929","545922.197423","546688.866058","547455.589726","548221.859529","534405.806193","535172.444838","535939.160158","547465.290314"
"Blocked","Male","ball","6","M_ball.wav","None","727.89627139","109","544406.038072","536706.167646","537455.492028","538222.369663","538989.31408","539755.656229","540522.037025","541289.413355","545155.56929","545922.197423","546688.866058","547455.589726","548221.859529","548988.827752","535172.444838","535939.160158","548230.959705"
"Blocked","Male","ball","6","M_lash.wav","space","409.246352501","109","544406.038072","536706.167646","537455.492028","538222.369663","538989.31408","539755.656229","540522.037025","541289.413355","545155.56929","545922.197423","546688.866058","547455.589726","548221.859529","548988.827752","549755.765676","535939.160158","548998.306045"
"Blocked","Male","ball","6","M_lash.wav","None","721.753328224","109","544406.038072","536706.167646","537455.492028","538222.369663","538989.31408","539755.656229","540522.037025","541289.413355","545155.56929","545922.197423","546688.866058","547455.589726","548221.859529","548988.827752","549755.765676","550522.327956","549766.125419"
"Blocked","Male","ball","6","M_lash.wav","None","720.16263695","109","544406.038072","551272.057662","537455.492028","538222.369663","538989.31408","539755.656229","540522.037025","541289.413355","545155.56929","545922.197423","546688.866058","547455.589726","548221.859529","548988.827752","549755.765676","550522.327956","550532.42243"
"Blocked","Male","ball","6","M_ball.wav","None","735.429562279","109","544406.038072","551272.057662","552038.744538","538222.369663","538989.31408","539755.656229","540522.037025","541289.413355","545155.56929","545922.197423","546688.866058","547455.589726","548221.859529","548988.827752","549755.765676","550522.327956","551281.753613"
"Blocked","Male","ball","6","M_priest.wav","space","311.079836567","109","544406.038072","551272.057662","552038.744538","552805.209738","538989.31408","539755.656229","540522.037025","541289.413355","545155.56929","545922.197423","546688.866058","547455.589726","548221.859529","548988.827752","549755.765676","550522.327956","552048.282502"
"Blocked","Male","ball","6","M_cad.wav","None","731.446805527","109","544406.038072","551272.057662","552038.744538","552805.209738","553572.055838","539755.656229","540522.037025","541289.413355","545155.56929","545922.197423","546688.866058","547455.589726","548221.859529","548988.827752","549755.765676","550522.327956","552814.658969"
"Blocked","Male","ball","6","M_romp.wav","None","729.702764889","109","544406.038072","551272.057662","552038.744538","552805.209738","553572.055838","554338.756318","540522.037025","541289.413355","545155.56929","545922.197423","546688.866058","547455.589726","548221.859529","548988.827752","549755.765676","550522.327956","553581.824135"
"Blocked","Male","ball","6","M_ball.wav","None","727.503004367","109","544406.038072","551272.057662","552038.744538","552805.209738","553572.055838","554338.756318","555105.257072","541289.413355","545155.56929","545922.197423","546688.866058","547455.589726","548221.859529","548988.827752","549755.765676","550522.327956","554348.620767"
"Blocked","Male","ball","6","M_done.wav","space","436.170308152","109","544406.038072","551272.057662","552038.744538","552805.209738","553572.055838","554338.756318","555105.257072","555872.347109","545155.56929","545922.197423","546688.866058","547455.589726","548221.859529","548988.827752","549755.765676","550522.327956","555115.253538"
"Blocked","Male","ball","5","M_gnash.wav","None","722.587784054","109","558989.166914","551272.057662","552038.744538","552805.209738","553572.055838","554338.756318","555105.257072","555872.347109","545155.56929","545922.197423","546688.866058","547455.589726","548221.859529","548988.827752","549755.765676","550522.327956","555882.312967"
"Blocked","Male","ball","5","M_ball.wav","None","719.114233973","109","558989.166914","551272.057662","552038.744538","552805.209738","553572.055838","554338.756318","555105.257072","555872.347109","559738.41091","545922.197423","546688.866058","547455.589726","548221.859529","548988.827752","549755.765676","550522.327956","558999.621882"
"Blocked","Male","ball","5","M_cave.wav","space","355.250656838","109","558989.166914","551272.057662","552038.744538","552805.209738","553572.055838","554338.756318","555105.257072","555872.347109","559738.41091","560505.418707","546688.866058","547455.589726","548221.859529","548988.827752","549755.765676","550522.327956","559748.080272"
"Blocked","Male","ball","5","M_depth.wav","None","732.236122247","109","558989.166914","551272.057662","552038.744538","552805.209738","553572.055838","554338.756318","555105.257072","555872.347109","559738.41091","560505.418707","561271.916679","547455.589726","548221.859529","548988.827752","549755.765676","550522.327956","560515.215757"
"Blocked","Male","ball","5","M_ball.wav","None","730.912246625","109","558989.166914","551272.057662","552038.744538","552805.209738","553572.055838","554338.756318","555105.257072","555872.347109","559738.41091","560505.418707","561271.916679","562038.568001","548221.859529","548988.827752","549755.765676","550522.327956","561281.477522"
"Blocked","Male","ball","5","M_knife.wav","space","422.835400095","109","558989.166914","551272.057662","552038.744538","552805.209738","553572.055838","554338.756318","555105.257072","555872.347109","559738.41091","560505.418707","561271.916679","562038.568001","562805.377","548988.827752","549755.765676","550522.327956","562048.457803"
"Blocked","Male","ball","5","M_cad.wav","None","726.66143754","109","558989.166914","551272.057662","552038.744538","552805.209738","553572.055838","554338.756318","555105.257072","555872.347109","559738.41091","560505.418707","561271.916679","562038.568001","562805.377","563571.533955","549755.765676","550522.327956","562814.57271"
"Blocked","Male","ball","5","M_depth.wav","None","731.357763871","109","558989.166914","551272.057662","552038.744538","552805.209738","553572.055838","554338.756318","555105.257072","555872.347109","559738.41091","560505.418707","561271.916679","562038.568001","562805.377","563571.533955","564339.250066","550522.327956","563575.316677"
"Blocked","Male","ball","5","M_greet.wav","None","722.245221143","109","558989.166914","551272.057662","552038.744538","552805.209738","553572.055838","554338.756318","555105.257072","555872.347109","559738.41091","560505.418707","561271.916679","562038.568001","562805.377","563571.533955","564339.250066","565105.67631","564349.418432"
"Blocked","Male","ball","5","M_cling.wav","None","720.208703657","109","558989.166914","565872.125742","552038.744538","552805.209738","553572.055838","554338.756318","555105.257072","555872.347109","559738.41091","560505.418707","561271.916679","562038.568001","562805.377","563571.533955","564339.250066","565105.67631","565116.099743"
"Blocked","Male","ball","5","M_ball.wav","None","719.142986811","109","558989.166914","565872.125742","566621.389834","552805.209738","553572.055838","554338.756318","555105.257072","555872.347109","559738.41091","560505.418707","561271.916679","562038.568001","562805.377","563571.533955","564339.250066","565105.67631","565882.079851"
"Blocked","Male","ball","5","M_knife.wav","space","320.20258205","109","558989.166914","565872.125742","566621.389834","567388.394231","553572.055838","554338.756318","555105.257072","555872.347109","559738.41091","560505.418707","561271.916679","562038.568001","562805.377","563571.533955","564339.250066","565105.67631","566630.987159"
"Blocked","Male","ball","5","M_priest.wav","None","731.843782705","109","558989.166914","565872.125742","566621.389834","567388.394231","568155.188699","554338.756318","555105.257072","555872.347109","559738.41091","560505.418707","561271.916679","562038.568001","562805.377","563571.533955","564339.250066","565105.67631","567398.190662"
"Blocked","Male","ball","5","M_ball.wav","None","729.780985392","109","558989.166914","565872.125742","566621.389834","567388.394231","568155.188699","568921.707385","555105.257072","555872.347109","559738.41091","560505.418707","561271.916679","562038.568001","562805.377","563571.533955","564339.250066","565105.67631","568165.183619"
"Blocked","Male","ball","5","M_cad.wav","space","403.80832192","109","558989.166914","565872.125742","566621.389834","567388.394231","568155.188699","568921.707385","569688.567707","555872.347109","559738.41091","560505.418707","561271.916679","562038.568001","562805.377","563571.533955","564339.250066","565105.67631","568931.32357"
"Blocked","Male","ball","5","M_priest.wav","None","725.314992364","109","558989.166914","565872.125742","566621.389834","567388.394231","568155.188699","568921.707385","569688.567707","570455.295085","559738.41091","560505.418707","561271.916679","562038.568001","562805.377","563571.533955","564339.250066","565105.67631","569698.54315"
"Blocked","Male","done","21","M_dime.wav","None","722.65240096","109","573571.906508","565872.125742","566621.389834","567388.394231","568155.188699","568921.707385","569688.567707","570455.295085","559738.41091","560505.418707","561271.916679","562038.568001","562805.377","563571.533955","564339.250066","565105.67631","570466.05397"
"Blocked","Male","done","21","M_ball.wav","None","720.891355886","109","573571.906508","565872.125742","566621.389834","567388.394231","568155.188699","568921.707385","569688.567707","570455.295085","574338.611934","560505.418707","561271.916679","562038.568001","562805.377","563571.533955","564339.250066","565105.67631","573581.94935"
"Blocked","Male","done","21","M_done.wav","None","719.082698226","109","573571.906508","565872.125742","566621.389834","567388.394231","568155.188699","568921.707385","569688.567707","570455.295085","574338.611934","575088.164485","561271.916679","562038.568001","562805.377","563571.533955","564339.250066","565105.67631","574348.557696"
"Blocked","Male","done","21","M_cave.wav","space","557.683966006","109","573571.906508","565872.125742","566621.389834","567388.394231","568155.188699","568921.707385","569688.567707","570455.295085","574338.611934","575088.164485","575854.966064","562038.568001","562805.377","563571.533955","564339.250066","565105.67631","575097.300834"
"Blocked","Male","done","21","M_done.wav","None","732.060821611","109","573571.906508","565872.125742","566621.389834","567388.394231","568155.188699","568921.707385","569688.567707","570455.295085","574338.611934","575088.164485","575854.966064","576621.288426","562805.377","563571.533955","564339.250066","565105.67631","575864.516704"
"Blocked","Male","done","21","M_cling.wav","space","520.355436718","109","573571.906508","565872.125742","566621.389834","567388.394231","568155.188699","568921.707385","569688.567707","570455.295085","574338.611934","575088.164485","575854.966064","576621.288426","577388.132362","563571.533955","564339.250066","565105.67631","576630.601312"
"Blocked","Male","done","21","M_greet.wav","None","727.374079637","109","573571.906508","565872.125742","566621.389834","567388.394231","568155.188699","568921.707385","569688.567707","570455.295085","574338.611934","575088.164485","575854.966064","576621.288426","577388.132362","578154.850773","564339.250066","565105.67631","577398.138721"
"Blocked","Male","done","21","M_cling.wav","None","725.964872516","109","573571.906508","565872.125742","566621.389834","567388.394231","568155.188699","568921.707385","569688.567707","570455.295085","574338.611934","575088.164485","575854.966064","576621.288426","577388.132362","578154.850773","578921.742012","565105.67631","578164.448717"
"Blocked","Male","done","21","M_greet.wav","None","723.093898967","109","573571.906508","565872.125742","566621.389834","567388.394231","568155.188699","568921.707385","569688.567707","570455.295085","574338.611934","575088.164485","575854.966064","576621.288426","577388.132362","578154.850773","578921.742012","579688.65984","578932.102684"
"Blocked","Male","done","21","M_romp.wav","None","721.731995349","109","573571.906508","580455.397421","566621.389834","567388.394231","568155.188699","568921.707385","569688.567707","570455.295085","574338.611934","575088.164485","575854.966064","576621.288426","577388.132362","578154.850773","578921.742012","579688.65984","579698.364448"
"Blocked","Male","done","21","M_done.wav","None","719.394653104","109","573571.906508","580455.397421","581222.066365","567388.394231","568155.188699","568921.707385","569688.567707","570455.295085","574338.611934","575088.164485","575854.966064","576621.288426","577388.132362","578154.850773","578921.742012","579688.65984","580465.700895"
"Blocked","Male","done","21","M_ball.wav","space","510.947634582","109","573571.906508","580455.397421","581222.066365","581971.141554","568155.188699","568921.707385","569688.567707","570455.295085","574338.611934","575088.164485","575854.966064","576621.288426","577388.132362","578154.850773","578921.742012","579688.65984","581231.940399"
"Blocked","Male","done","21","M_done.wav","None","732.54653113","109","573571.906508","580455.397421","581222.066365","581971.141554","582738.059381","568921.707385","569688.567707","570455.295085","574338.611934","575088.164485","575854.966064","576621.288426","577388.132362","578154.850773","578921.742012","579688.65984","581981.391232"
"Blocked","Male","done","21","M_romp.wav","space","611.198589671","109","573571.906508","580455.397421","581222.066365","581971.141554","582738.059381","583504.804073","569688.567707","570455.295085","574338.611934","575088.164485","575854.966064","576621.288426","577388.132362","578154.850773","578921.742012","579688.65984","582747.648359"
"Blocked","Male","done","21","M_park.wav","None","728.128150688","109","573571.906508","580455.397421","581222.066365","581971.141554","582738.059381","583504.804073","584271.393251","570455.295085","574338.611934","575088.164485","575854.966064","576621.288426","577388.132362","578154.850773","578921.742012","579688.65984","583514.805486"
"Blocked","Male","done","21","M_depth.wav","None","726.904756157","109","573571.906508","580455.397421","581222.066365","581971.141554","582738.059381","583504.804073","584271.393251","585038.039625","574338.611934","575088.164485","575854.966064","576621.288426","577388.132362","578154.850773","578921.742012","579688.65984","584281.004488"
"Blocked","Male","ball","4","M_reek.wav","None","724.97583041","109","588171.736525","580455.397421","581222.066365","581971.141554","582738.059381","583504.804073","584271.393251","585038.039625","574338.611934","575088.164485","575854.966064","576621.288426","577388.132362","578154.850773","578921.742012","579688.65984","585047.683635"
"Blocked","Male","ball","4","M_ball.wav","None","720.442128717","109","588171.736525","580455.397421","581222.066365","581971.141554","582738.059381","583504.804073","584271.393251","585038.039625","588938.006637","575088.164485","575854.966064","576621.288426","577388.132362","578154.850773","578921.742012","579688.65984","588181.622307"
"Blocked","Male","ball","4","M_park.wav","space","355.304143508","109","588171.736525","580455.397421","581222.066365","581971.141554","582738.059381","583504.804073","584271.393251","585038.039625","588938.006637","589687.85321","575854.966064","576621.288426","577388.132362","578154.850773","578921.742012","579688.65984","588947.416294"
"Blocked","Male","ball","4","M_bluff.wav","None","733.864841633","109","588171.736525","580455.397421","581222.066365","581971.141554","582738.059381","583504.804073","584271.393251","585038.039625","588938.006637","589687.85321","590454.673339","576621.288426","577388.132362","578154.850773","578921.742012","579688.65984","589697.476505"
"Blocked","Male","ball","4","M_knife.wav","None","731.9368436","109","588171.736525","580455.397421","581222.066365","581971.141554","582738.059381","583504.804073","584271.393251","585038.039625","588938.006637","589687.85321","590454.673339","591221.118443","577388.132362","578154.850773","578921.742012","579688.65984","590464.40299"
"Blocked","Male","ball","4","M_ball.wav","None","730.896478985","109","588171.736525","580455.397421","581222.066365","581971.141554","582738.059381","583504.804073","584271.393251","585038.039625","588938.006637","589687.85321","590454.673339","591221.118443","591987.76389","578154.850773","578921.742012","579688.65984","591230.460082"
"Blocked","Male","ball","4","M_priest.wav","space","353.28679462","109","588171.736525","580455.397421","581222.066365","581971.141554","582738.059381","583504.804073","584271.393251","585038.039625","588938.006637","589687.85321","590454.673339","591221.118443","591987.76389","592754.558667","578921.742012","579688.65984","591997.370799"
"Blocked","Male","ball","4","M_bluff.wav","None","725.779059925","109","588171.736525","580455.397421","581222.066365","581971.141554","582738.059381","583504.804073","584271.393251","585038.039625","588938.006637","589687.85321","590454.673339","591221.118443","591987.76389","592754.558667","593520.885976","579688.65984","592764.72827"
"Blocked","Male","ball","4","M_lash.wav","None","725.666830433","109","588171.736525","580455.397421","581222.066365","581971.141554","582738.059381","583504.804073","584271.393251","585038.039625","588938.006637","589687.85321","590454.673339","591221.118443","591987.76389","592754.558667","593520.885976","594288.112976","593530.244929"
"Blocked","Male","ball","4","M_cave.wav","None","722.818735638","109","588171.736525","595054.000642","581222.066365","581971.141554","582738.059381","583504.804073","584271.393251","585038.039625","588938.006637","589687.85321","590454.673339","591221.118443","591987.76389","592754.558667","593520.885976","594288.112976","594298.086873"
"Blocked","Male","ball","4","M_ball.wav","None","724.721072591","109","588171.736525","595054.000642","595821.437571","581971.141554","582738.059381","583504.804073","584271.393251","585038.039625","588938.006637","589687.85321","590454.673339","591221.118443","591987.76389","592754.558667","593520.885976","594288.112976","595062.962309"
"Blocked","Male","ball","4","M_dime.wav","space","367.025172571","109","588171.736525","595054.000642","595821.437571","596588.094148","582738.059381","583504.804073","584271.393251","585038.039625","588938.006637","589687.85321","590454.673339","591221.118443","591987.76389","592754.558667","593520.885976","594288.112976","595831.50762"
"Blocked","Male","ball","4","M_ball.wav","None","718.498672009","109","588171.736525","595054.000642","595821.437571","596588.094148","597337.412964","583504.804073","584271.393251","585038.039625","588938.006637","589687.85321","590454.673339","591221.118443","591987.76389","592754.558667","593520.885976","594288.112976","596598.150903"
"Blocked","Male","ball","4","M_cling.wav","space","499.736739788","109","588171.736525","595054.000642","595821.437571","596588.094148","597337.412964","598104.152709","584271.393251","585038.039625","588938.006637","589687.85321","590454.673339","591221.118443","591987.76389","592754.558667","593520.885976","594288.112976","597346.810873"
"Blocked","Male","ball","4","M_gnash.wav","None","732.561680605","109","588171.736525","595054.000642","595821.437571","596588.094148","597337.412964","598104.152709","598871.093416","585038.039625","588938.006637","589687.85321","590454.673339","591221.118443","591987.76389","592754.558667","593520.885976","594288.112976","598113.290295"
"Blocked","Male","ball","4","M_park.wav","None","729.989985935","109","588171.736525","595054.000642","595821.437571","596588.094148","597337.412964","598104.152709","598871.093416","599637.741645","588938.006637","589687.85321","590454.673339","591221.118443","591987.76389","592754.558667","593520.885976","594288.112976","598881.099157"
"Blocked","Male","tile","16","M_greet.wav","None","728.200496989","109","602771.553247","595054.000642","595821.437571","596588.094148","597337.412964","598104.152709","598871.093416","599637.741645","588938.006637","589687.85321","590454.673339","591221.118443","591987.76389","592754.558667","593520.885976","594288.112976","599648.077273"
"Blocked","Male","tile","16","M_tile.wav","None","720.685756416","109","602771.553247","595054.000642","595821.437571","596588.094148","597337.412964","598104.152709","598871.093416","599637.741645","603537.979491","589687.85321","590454.673339","591221.118443","591987.76389","592754.558667","593520.885976","594288.112976","602781.24456"
"Blocked","Male","tile","16","M_reek.wav","space","410.323817749","109","602771.553247","595054.000642","595821.437571","596588.094148","597337.412964","598104.152709","598871.093416","599637.741645","603537.979491","604287.539462","590454.673339","591221.118443","591987.76389","592754.558667","593520.885976","594288.112976","603548.071183"
"Blocked","Male","tile","16","M_tile.wav","None","734.068895341","109","602771.553247","595054.000642","595821.437571","596588.094148","597337.412964","598104.152709","598871.093416","599637.741645","603537.979491","604287.539462","605054.254782","591221.118443","591987.76389","592754.558667","593520.885976","594288.112976","604296.800407"
"Blocked","Male","tile","16","M_romp.wav","space","406.175653799","109","602771.553247","595054.000642","595821.437571","596588.094148","597337.412964","598104.152709","598871.093416","599637.741645","603537.979491","604287.539462","605054.254782","605820.853544","591987.76389","592754.558667","593520.885976","594288.112976","605064.203636"
"Blocked","Male","tile","16","M_greet.wav","None","729.701837292","109","602771.553247","595054.000642","595821.437571","596588.094148","597337.412964","598104.152709","598871.093416","599637.741645","603537.979491","604287.539462","605054.254782","605820.853544","606587.523725","592754.558667","593520.885976","594288.112976","605830.474984"
"Blocked","Male","tile","16","M_done.wav","None","728.481534519","109","602771.553247","595054.000642","595821.437571","596588.094148","597337.412964","598104.152709","598871.093416","599637.741645","603537.979491","604287.539462","605054.254782","605820.853544","606587.523725","607354.358386","593520.885976","594288.112976","606596.78127"
"Blocked","Male","tile","16","M_knife.wav","None","726.240035729","109","602771.553247","595054.000642","595821.437571","596588.094148","597337.412964","598104.152709","598871.093416","599637.741645","603537.979491","604287.539462","605054.254782","605820.853544","606587.523725","607354.358386","608120.845846","594288.112976","607364.097311"
"Blocked","Male","tile","16","M_dime.wav","None","724.321003654","109","602771.553247","595054.000642","595821.437571","596588.094148","597337.412964","598104.152709","598871.093416","599637.741645","603537.979491","604287.539462","605054.254782","605820.853544","606587.523725","607354.358386","608120.845846","608887.930936","608131.157668"
"Blocked","Male","tile","16","M_tile.wav","None","723.109666724","109","602771.553247","609654.698506","595821.437571","596588.094148","597337.412964","598104.152709","598871.093416","599637.741645","603537.979491","604287.539462","605054.254782","605820.853544","606587.523725","607354.358386","608120.845846","608887.930936","608897.467045"
"Blocked","Male","tile","16","M_gnash.wav","space","405.493619735","109","602771.553247","609654.698506","610421.42743","596588.094148","597337.412964","598104.152709","598871.093416","599637.741645","603537.979491","604287.539462","605054.254782","605820.853544","606587.523725","607354.358386","608120.845846","608887.930936","609664.752787"
"Blocked","Male","tile","16","M_depth.wav","None","718.97294221","109","602771.553247","609654.698506","610421.42743","611170.588259","597337.412964","598104.152709","598871.093416","599637.741645","603537.979491","604287.539462","605054.254782","605820.853544","606587.523725","607354.358386","608120.845846","608887.930936","610431.391742"
"Blocked","Male","tile","16","M_depth.wav","None","735.090709524","109","602771.553247","609654.698506","610421.42743","611170.588259","611937.308217","598104.152709","598871.093416","599637.741645","603537.979491","604287.539462","605054.254782","605820.853544","606587.523725","607354.358386","608120.845846","608887.930936","611180.46353"
"Blocked","Male","tile","16","M_tile.wav","None","734.232756658","109","602771.553247","609654.698506","610421.42743","611170.588259","611937.308217","612704.165756","598871.093416","599637.741645","603537.979491","604287.539462","605054.254782","605820.853544","606587.523725","607354.358386","608120.845846","608887.930936","611946.593896"
"Blocked","Male","tile","16","M_greet.wav","space","388.402268873","109","602771.553247","609654.698506","610421.42743","611170.588259","611937.308217","612704.165756","613470.712268","599637.741645","603537.979491","604287.539462","605054.254782","605820.853544","606587.523725","607354.358386","608120.845846","608887.930936","612713.81935"
"Blocked","Male","tile","16","M_depth.wav","None","728.83151751","109","602771.553247","609654.698506","610421.42743","611170.588259","611937.308217","612704.165756","613470.712268","614237.389869","603537.979491","604287.539462","605054.254782","605820.853544","606587.523725","607354.358386","608120.845846","608887.930936","613481.41983"
"Blocked","Male","tile","14","M_dime.wav","None","728.294485249","109","617371.065126","609654.698506","610421.42743","611170.588259","611937.308217","612704.165756","613470.712268","614237.389869","603537.979491","604287.539462","605054.254782","605820.853544","606587.523725","607354.358386","608120.845846","608887.930936","614247.069434"
"Blocked","Male","tile","14","M_tile.wav","None","720.644018147","109","617371.065126","609654.698506","610421.42743","611170.588259","611937.308217","612704.165756","613470.712268","614237.389869","618137.538055","604287.539462","605054.254782","605820.853544","606587.523725","607354.358386","608120.845846","608887.930936","617380.961421"
"Blocked","Male","tile","14","M_cad.wav","space","474.308250239","109","617371.065126","609654.698506","610421.42743","611170.588259","611937.308217","612704.165756","613470.712268","614237.389869","618137.538055","618887.209019","605054.254782","605820.853544","606587.523725","607354.358386","608120.845846","608887.930936","618147.804738"
"Blocked","Male","tile","14","M_knife.wav","None","734.113416169","109","617371.065126","609654.698506","610421.42743","611170.588259","611937.308217","612704.165756","613470.712268","614237.389869","618137.538055","618887.209019","619653.962985","605820.853544","606587.523725","607354.358386","608120.845846","608887.930936","618896.699679"
"Blocked","Male","tile","14","M_tile.wav","None","732.430900796","109","617371.065126","609654.698506","610421.42743","611170.588259","611937.308217","612704.165756","613470.712268","614237.389869","618137.538055","618887.209019","619653.962985","620420.77755","606587.523725","607354.358386","608120.845846","608887.930936","619663.928225"
"Blocked","Male","tile","14","M_cling.wav","space","631.298804772","109","617371.065126","609654.698506","610421.42743","611170.588259","611937.308217","612704.165756","613470.712268","614237.389869","618137.538055","618887.209019","619653.962985","620420.77755","621187.186171","607354.358386","608120.845846","608887.930936","620430.745881"
"Blocked","Male","tile","14","M_tile.wav","None","728.664255352","109","617371.065126","609654.698506","610421.42743","611170.588259","611937.308217","612704.165756","613470.712268","614237.389869","618137.538055","618887.209019","619653.962985","620420.77755","621187.186171","621953.578406","608120.845846","608887.930936","621197.400913"
"Blocked","Male","tile","14","M_romp.wav","space","395.502100349","109","617371.065126","609654.698506","610421.42743","611170.588259","611937.308217","612704.165756","613470.712268","614237.389869","618137.538055","618887.209019","619653.962985","620420.77755","621187.186171","621953.578406","622720.604135","608887.930936","621962.534198"
"Blocked","Male","tile","14","M_greet.wav","None","725.23831774","109","617371.065126","609654.698506","610421.42743","611170.588259","611937.308217","612704.165756","613470.712268","614237.389869","618137.538055","618887.209019","619653.962985","620420.77755","621187.186171","621953.578406","622720.604135","623487.628627","622730.361302"
"Blocked","Male","tile","14","M_cad.wav","None","723.215403734","109","617371.065126","624254.115778","610421.42743","611170.588259","611937.308217","612704.165756","613470.712268","614237.389869","618137.538055","618887.209019","619653.962985","620420.77755","621187.186171","621953.578406","622720.604135","623487.628627","623497.563259"
"Blocked","Male","tile","14","M_ball.wav","None","721.827529487","109","617371.065126","624254.115778","625021.098532","611170.588259","611937.308217","612704.165756","613470.712268","614237.389869","618137.538055","618887.209019","619653.962985","620420.77755","621187.186171","621953.578406","622720.604135","623487.628627","624264.371949"
"Blocked","Male","tile","14","M_greet.wav","None","719.727940857","109","617371.065126","624254.115778","625021.098532","625787.660194","611937.308217","612704.165756","613470.712268","614237.389869","618137.538055","618887.209019","619653.962985","620420.77755","621187.186171","621953.578406","622720.604135","623487.628627","625031.618427"
"Blocked","Male","tile","14","M_jolt.wav","None","718.879572116","109","617371.065126","624254.115778","625021.098532","625787.660194","626537.198522","612704.165756","613470.712268","614237.389869","618137.538055","618887.209019","619653.962985","620420.77755","621187.186171","621953.578406","622720.604135","623487.628627","625797.704582"
"Blocked","Male","tile","14","M_tile.wav","None","734.977243352","109","617371.065126","624254.115778","625021.098532","625787.660194","626537.198522","627303.739469","613470.712268","614237.389869","618137.538055","618887.209019","619653.962985","620420.77755","621187.186171","621953.578406","622720.604135","623487.628627","626546.975785"
"Blocked","Male","tile","14","M_gnash.wav","space","428.762850352","109","617371.065126","624254.115778","625021.098532","625787.660194","626537.198522","627303.739469","628070.44706","614237.389869","618137.538055","618887.209019","619653.962985","620420.77755","621187.186171","621953.578406","622720.604135","623487.628627","627313.116663"
"Blocked","Male","tile","14","M_priest.wav","None","731.472466839","109","617371.065126","624254.115778","625021.098532","625787.660194","626537.198522","627303.739469","628070.44706","628837.107038","618137.538055","618887.209019","619653.962985","620420.77755","621187.186171","621953.578406","622720.604135","623487.628627","628080.197116"
"Blocked","Male","done","19","M_priest.wav","None","730.266695027","109","631970.755707","624254.115778","625021.098532","625787.660194","626537.198522","627303.739469","628070.44706","628837.107038","618137.538055","618887.209019","619653.962985","620420.77755","621187.186171","621953.578406","622720.604135","623487.628627","628846.379423"
"Blocked","Male","done","19","M_gnash.wav","None","720.651129144","109","631970.755707","624254.115778","625021.098532","625787.660194","626537.198522","627303.739469","628070.44706","628837.107038","632737.317368","618887.209019","619653.962985","620420.77755","621187.186171","621953.578406","622720.604135","623487.628627","631980.492159"
"Blocked","Male","done","19","M_cling.wav","None","719.106195378","109","631970.755707","624254.115778","625021.098532","625787.660194","626537.198522","627303.739469","628070.44706","628837.107038","632737.317368","633486.867445","619653.962985","620420.77755","621187.186171","621953.578406","622720.604135","623487.628627","632747.236232"
"Blocked","Male","done","19","M_ball.wav","None","734.682293027","109","631970.755707","624254.115778","625021.098532","625787.660194","626537.198522","627303.739469","628070.44706","628837.107038","632737.317368","633486.867445","634253.588021","620420.77755","621187.186171","621953.578406","622720.604135","623487.628627","633496.918635"
"Blocked","Male","done","19","M_gnash.wav","None","733.624614775","109","631970.755707","624254.115778","625021.098532","625787.660194","626537.198522","627303.739469","628070.44706","628837.107038","632737.317368","633486.867445","634253.588021","635020.503376","621187.186171","621953.578406","622720.604135","623487.628627","634263.287064"
"Blocked","Male","done","19","M_done.wav","None","731.975180912","109","631970.755707","624254.115778","625021.098532","625787.660194","626537.198522","627303.739469","628070.44706","628837.107038","632737.317368","633486.867445","634253.588021","635020.503376","635786.860056","621953.578406","622720.604135","623487.628627","635030.275692"
"Blocked","Male","done","19","M_lash.wav","space","392.884338973","109","631970.755707","624254.115778","625021.098532","625787.660194","626537.198522","627303.739469","628070.44706","628837.107038","632737.317368","633486.867445","634253.588021","635020.503376","635786.860056","636553.810965","622720.604135","623487.628627","635796.823132"
"Blocked","Male","done","19","M_ball.wav","None","728.073427104","109","631970.755707","624254.115778","625021.098532","625787.660194","626537.198522","627303.739469","628070.44706","628837.107038","632737.317368","633486.867445","634253.588021","635020.503376","635786.860056","636553.810965","637320.278948","623487.628627","636563.474144"
"Blocked","Male","done","19","M_park.wav","None","726.876621367","109","631970.755707","624254.115778","625021.098532","625787.660194","626537.198522","627303.739469","628070.44706","628837.107038","632737.317368","633486.867445","634253.588021","635020.503376","635786.860056","636553.810965","637320.278948","638086.802272","637329.883383"
"Blocked","Male","done","19","M_done.wav","None","725.843058666","109","631970.755707","638854.084923","625021.098532","625787.660194","626537.198522","627303.739469","628070.44706","628837.107038","632737.317368","633486.867445","634253.588021","635020.503376","635786.860056","636553.810965","637320.278948","638086.802272","638096.119796"
"Blocked","Male","done","19","M_jolt.wav","space","549.411444226","109","631970.755707","638854.084923","639620.541157","625787.660194","626537.198522","627303.739469","628070.44706","628837.107038","632737.317368","633486.867445","634253.588021","635020.503376","635786.860056","636553.810965","637320.278948","638086.802272","638864.247724"
"Blocked","Male","done","19","M_reek.wav","None","720.67091614","109","631970.755707","638854.084923","639620.541157","640387.169908","626537.198522","627303.739469","628070.44706","628837.107038","632737.317368","633486.867445","634253.588021","635020.503376","635786.860056","636553.810965","637320.278948","638086.802272","639630.529275"
"Blocked","Male","done","19","M_done.wav","None","718.951918418","109","631970.755707","638854.084923","639620.541157","640387.169908","641136.524279","627303.739469","628070.44706","628837.107038","632737.317368","633486.867445","634253.588021","635020.503376","635786.860056","636553.810965","637320.278948","638086.802272","640397.459779"
"Blocked","Male","done","19","M_cling.wav","space","595.431732712","109","631970.755707","638854.084923","639620.541157","640387.169908","641136.524279","641903.487865","628070.44706","628837.107038","632737.317368","633486.867445","634253.588021","635020.503376","635786.860056","636553.810965","637320.278948","638086.802272","641146.163652"
"Blocked","Male","done","19","M_done.wav","None","732.744092238","109","631970.755707","638854.084923","639620.541157","640387.169908","641136.524279","641903.487865","642669.86526","628837.107038","632737.317368","633486.867445","634253.588021","635020.503376","635786.860056","636553.810965","637320.278948","638086.802272","641913.184434"
"Blocked","Male","done","19","M_tile.wav","space","526.052862988","109","631970.755707","638854.084923","639620.541157","640387.169908","641136.524279","641903.487865","642669.86526","643436.891607","632737.317368","633486.867445","634253.588021","635020.503376","635786.860056","636553.810965","637320.278948","638086.802272","642679.534931"
"Blocked","Male","tile","18","M_lash.wav","None","729.012074065","109","646570.430828","638854.084923","639620.541157","640387.169908","641136.524279","641903.487865","642669.86526","643436.891607","632737.317368","633486.867445","634253.588021","635020.503376","635786.860056","636553.810965","637320.278948","638086.802272","643446.754202"
"Blocked","Male","tile","18","M_knife.wav","None","721.2268078","109","646570.430828","638854.084923","639620.541157","640387.169908","641136.524279","641903.487865","642669.86526","643436.891607","647337.151714","633486.867445","634253.588021","635020.503376","635786.860056","636553.810965","637320.278948","638086.802272","646580.566731"
"Blocked","Male","tile","18","M_tile.wav","None","719.986408716","109","646570.430828","638854.084923","639620.541157","640387.169908","641136.524279","641903.487865","642669.86526","643436.891607","647337.151714","648103.844773","634253.588021","635020.503376","635786.860056","636553.810965","637320.278948","638086.802272","647347.242477"
"Blocked","Male","tile","18","M_knife.wav","space","459.352970473","109","646570.430828","638854.084923","639620.541157","640387.169908","641136.524279","641903.487865","642669.86526","643436.891607","647337.151714","648103.844773","648853.310446","635020.503376","635786.860056","636553.810965","637320.278948","638086.802272","648114.112384"
"Blocked","Male","tile","18","M_jolt.wav","None","733.276796062","109","646570.430828","638854.084923","639620.541157","640387.169908","641136.524279","641903.487865","642669.86526","643436.891607","647337.151714","648103.844773","648853.310446","649619.972898","635786.860056","636553.810965","637320.278948","638086.802272","648863.346487"
"Blocked","Male","tile","18","M_cave.wav","None","732.194693293","109","646570.430828","638854.084923","639620.541157","640387.169908","641136.524279","641903.487865","642669.86526","643436.891607","647337.151714","648103.844773","648853.310446","649619.972898","650386.597631","636553.810965","637320.278948","638086.802272","649629.816015"
"Blocked","Male","tile","18","M_tile.wav","None","730.599673581","109","646570.430828","638854.084923","639620.541157","640387.169908","641136.524279","641903.487865","642669.86526","643436.891607","647337.151714","648103.844773","648853.310446","649619.972898","650386.597631","651153.440639","637320.278948","638086.802272","650396.748065"
"Blocked","Male","tile","18","M_cad.wav","space","514.240628225","109","646570.430828","638854.084923","639620.541157","640387.169908","641136.524279","641903.487865","642669.86526","643436.891607","647337.151714","648103.844773","648853.310446","649619.972898","650386.597631","651153.440639","651919.973547","638086.802272","651163.173381"
"Blocked","Male","tile","18","M_lash.wav","None","726.903210278","109","646570.430828","638854.084923","639620.541157","640387.169908","641136.524279","641903.487865","642669.86526","643436.891607","647337.151714","648103.844773","648853.310446","649619.972898","650386.597631","651153.440639","651919.973547","652686.557469","651930.075441"
"Blocked","Male","tile","18","M_tile.wav","None","726.534367772","109","646570.430828","653453.271552","639620.541157","640387.169908","641136.524279","641903.487865","642669.86526","643436.891607","647337.151714","648103.844773","648853.310446","649619.972898","650386.597631","651153.440639","651919.973547","652686.557469","652695.860153"
"Blocked","Male","tile","18","M_cave.wav","space","446.082061157","109","646570.430828","653453.271552","654220.364372","640387.169908","641136.524279","641903.487865","642669.86526","643436.891607","647337.151714","648103.844773","648853.310446","649619.972898","650386.597631","651153.440639","651919.973547","652686.557469","653463.309448"
"Blocked","Male","tile","18","M_jaw.wav","None","721.856282442","109","646570.430828","653453.271552","654220.364372","654986.84132","641136.524279","641903.487865","642669.86526","643436.891607","647337.151714","648103.844773","648853.310446","649619.972898","650386.597631","651153.440639","651919.973547","652686.557469","654230.147509"
"Blocked","Male","tile","18","M_park.wav","None","720.905268681","109","646570.430828","653453.271552","654220.364372","654986.84132","655753.61662","641903.487865","642669.86526","643436.891607","647337.151714","648103.844773","648853.310446","649619.972898","650386.597631","651153.440639","651919.973547","652686.557469","654996.485639"
"Blocked","Male","tile","18","M_priest.wav","None","718.797332374","109","646570.430828","653453.271552","654220.364372","654986.84132","655753.61662","656520.246917","642669.86526","643436.891607","647337.151714","648103.844773","648853.310446","649619.972898","650386.597631","651153.440639","651919.973547","652686.557469","655764.063859"
"Blocked","Male","tile","18","M_tile.wav","None","717.738726526","109","646570.430828","653453.271552","654220.364372","654986.84132","655753.61662","656520.246917","657269.697441","643436.891607","647337.151714","648103.844773","648853.310446","649619.972898","650386.597631","651153.440639","651919.973547","652686.557469","656531.078767"
"Blocked","Male","tile","18","M_jaw.wav","space","461.895602988","109","646570.430828","653453.271552","654220.364372","654986.84132","655753.61662","656520.246917","657269.697441","658036.367622","647337.151714","648103.844773","648853.310446","649619.972898","650386.597631","651153.440639","651919.973547","652686.557469","657279.357837"
"Blocked","Male","tile","15","M_reek.wav","None","732.670509256","109","661170.134394","653453.271552","654220.364372","654986.84132","655753.61662","656520.246917","657269.697441","658036.367622","647337.151714","648103.844773","648853.310446","649619.972898","650386.597631","651153.440639","651919.973547","652686.557469","658045.939285"
"Blocked","Male","tile","15","M_tile.wav","None","720.743262442","109","661170.134394","653453.271552","654220.364372","654986.84132","655753.61662","656520.246917","657269.697441","658036.367622","661936.752016","648103.844773","648853.310446","649619.972898","650386.597631","651153.440639","651919.973547","652686.557469","661180.012447"
"Blocked","Male","tile","15","M_bluff.wav","space","466.8967732","109","661170.134394","653453.271552","654220.364372","654986.84132","655753.61662","656520.246917","657269.697441","658036.367622","661936.752016","662686.290344","648853.310446","649619.972898","650386.597631","651153.440639","651919.973547","652686.557469","661946.299564"
"Blocked","Male","tile","15","M_knife.wav","None","734.822966391","109","661170.134394","653453.271552","654220.364372","654986.84132","655753.61662","656520.246917","657269.697441","658036.367622","661936.752016","662686.290344","663453.075537","649619.972898","650386.597631","651153.440639","651919.973547","652686.557469","662695.526865"
"Blocked","Male","tile","15","M_tile.wav","None","732.869925443","109","661170.134394","653453.271552","654220.364372","654986.84132","655753.61662","656520.246917","657269.697441","658036.367622","661936.752016","662686.290344","663453.075537","664219.715419","650386.597631","651153.440639","651919.973547","652686.557469","663462.871969"
"Blocked","Male","tile","15","M_bluff.wav","space","463.159499108","109","661170.134394","653453.271552","654220.364372","654986.84132","655753.61662","656520.246917","657269.697441","658036.367622","661936.752016","662686.290344","663453.075537","664219.715419","664986.272134","651153.440639","651919.973547","652686.557469","664229.916558"
"Blocked","Male","tile","15","M_greet.wav","None","729.570439202","109","661170.134394","653453.271552","654220.364372","654986.84132","655753.61662","656520.246917","657269.697441","658036.367622","661936.752016","662686.290344","663453.075537","664219.715419","664986.272134","665752.972923","651919.973547","652686.557469","664995.824629"
"Blocked","Male","tile","15","M_greet.wav","None","731.007780996","109","661170.134394","653453.271552","654220.364372","654986.84132","655753.61662","656520.246917","657269.697441","658036.367622","661936.752016","662686.290344","663453.075537","664219.715419","664986.272134","665752.972923","666519.510469","652686.557469","665759.788007"
"Blocked","Male","tile","15","M_tile.wav","None","727.039864403","109","661170.134394","653453.271552","654220.364372","654986.84132","655753.61662","656520.246917","657269.697441","658036.367622","661936.752016","662686.290344","663453.075537","664219.715419","664986.272134","665752.972923","666519.510469","667286.29257","666529.290205"
"Blocked","Male","tile","15","M_depth.wav","space","476.630752208","109","661170.134394","668053.432384","654220.364372","654986.84132","655753.61662","656520.246917","657269.697441","658036.367622","661936.752016","662686.290344","663453.075537","664219.715419","664986.272134","665752.972923","666519.510469","667286.29257","667296.408377"
"Blocked","Male","tile","15","M_reek.wav","None","722.543881624","109","661170.134394","668053.432384","668820.032383","654986.84132","655753.61662","656520.246917","657269.697441","658036.367622","661936.752016","662686.290344","663453.075537","664219.715419","664986.272134","665752.972923","666519.510469","667286.29257","668063.587146"
"Blocked","Male","tile","15","M_ball.wav","None","721.757347346","109","661170.134394","668053.432384","668820.032383","669586.523553","655753.61662","656520.246917","657269.697441","658036.367622","661936.752016","662686.290344","663453.075537","664219.715419","664986.272134","665752.972923","666519.510469","667286.29257","668829.865297"
"Blocked","Male","tile","15","M_tile.wav","None","721.282458748","109","661170.134394","668053.432384","668820.032383","669586.523553","670353.109021","656520.246917","657269.697441","658036.367622","661936.752016","662686.290344","663453.075537","664219.715419","664986.272134","665752.972923","666519.510469","667286.29257","669596.246711"
"Blocked","Male","tile","15","M_bluff.wav","space","377.587423776","109","661170.134394","668053.432384","668820.032383","669586.523553","670353.109021","671102.694653","657269.697441","658036.367622","661936.752016","662686.290344","663453.075537","664219.715419","664986.272134","665752.972923","666519.510469","667286.29257","670363.404766"
"Blocked","Male","tile","15","M_done.wav","None","734.165047994","109","661170.134394","668053.432384","668820.032383","669586.523553","670353.109021","671102.694653","671869.522511","658036.367622","661936.752016","662686.290344","663453.075537","664219.715419","664986.272134","665752.972923","666519.510469","667286.29257","671113.127361"
"Blocked","Male","tile","15","M_jaw.wav","None","733.784456854","109","661170.134394","668053.432384","668820.032383","669586.523553","670353.109021","671102.694653","671869.522511","672636.155282","661936.752016","662686.290344","663453.075537","664219.715419","664986.272134","665752.972923","666519.510469","667286.29257","671879.076243"
"Blocked","Male","cave","10","M_done.wav","None","733.162402292","109","675770.001203","668053.432384","668820.032383","669586.523553","670353.109021","671102.694653","671869.522511","672636.155282","661936.752016","662686.290344","663453.075537","664219.715419","664986.272134","665752.972923","666519.510469","667286.29257","672645.397677"
"Blocked","Male","cave","10","M_cave.wav","None","720.605062437","109","675770.001203","668053.432384","668820.032383","669586.523553","670353.109021","671102.694653","671869.522511","672636.155282","676536.376433","662686.290344","663453.075537","664219.715419","664986.272134","665752.972923","666519.510469","667286.29257","675779.642739"
"Blocked","Male","cave","10","M_jolt.wav","space","514.227024512","109","675770.001203","668053.432384","668820.032383","669586.523553","670353.109021","671102.694653","671869.522511","672636.155282","676536.376433","677286.077696","663453.075537","664219.715419","664986.272134","665752.972923","666519.510469","667286.29257","676546.615909"
"Blocked","Male","cave","10","M_gnash.wav","None","734.11434365","109","675770.001203","668053.432384","668820.032383","669586.523553","670353.109021","671102.694653","671869.522511","672636.155282","676536.376433","677286.077696","678052.763954","664219.715419","664986.272134","665752.972923","666519.510469","667286.29257","677295.532183"
"Blocked","Male","cave","10","M_cave.wav","None","732.071642531","109","675770.001203","668053.432384","668820.032383","669586.523553","670353.109021","671102.694653","671869.522511","672636.155282","676536.376433","677286.077696","678052.763954","678819.349112","664986.272134","665752.972923","666519.510469","667286.29257","678062.988898"
"Blocked","Male","cave","10","M_dime.wav","space","480.143567198","109","675770.001203","668053.432384","668820.032383","669586.523553","670353.109021","671102.694653","671869.522511","672636.155282","676536.376433","677286.077696","678052.763954","678819.349112","679585.887276","665752.972923","666519.510469","667286.29257","678828.6351"
"Blocked","Male","cave","10","M_jolt.wav","None","729.74512144","109","675770.001203","668053.432384","668820.032383","669586.523553","670353.109021","671102.694653","671869.522511","672636.155282","676536.376433","677286.077696","678052.763954","678819.349112","679585.887276","680352.839113","666519.510469","667286.29257","679595.748016"
"Blocked","Male","cave","10","M_cave.wav","None","728.43979625","109","675770.001203","668053.432384","668820.032383","669586.523553","670353.109021","671102.694653","671869.522511","672636.155282","676536.376433","677286.077696","678052.763954","678819.349112","679585.887276","680352.839113","681119.344196","667286.29257","680362.575566"
"Blocked","Male","cave","10","M_gnash.wav","space","379.718548153","109","675770.001203","668053.432384","668820.032383","669586.523553","670353.109021","671102.694653","671869.522511","672636.155282","676536.376433","677286.077696","678052.763954","678819.349112","679585.887276","680352.839113","681119.344196","681886.020561","681129.042311"
"Blocked","Male","cave","10","M_jolt.wav","None","724.824954406","109","675770.001203","682653.074424","668820.032383","669586.523553","670353.109021","671102.694653","671869.522511","672636.155282","676536.376433","677286.077696","678052.763954","678819.349112","679585.887276","680352.839113","681119.344196","681886.020561","681895.588514"
"Blocked","Male","cave","10","M_depth.wav","None","722.764012171","109","675770.001203","682653.074424","683419.621864","669586.523553","670353.109021","671102.694653","671869.522511","672636.155282","676536.376433","677286.077696","678052.763954","678819.349112","679585.887276","680352.839113","681119.344196","681886.020561","682663.435714"
"Blocked","Male","cave","10","M_lash.wav","None","721.77156934","109","675770.001203","682653.074424","683419.621864","684186.132203","670353.109021","671102.694653","671869.522511","672636.155282","676536.376433","677286.077696","678052.763954","678819.349112","679585.887276","680352.839113","681119.344196","681886.020561","683429.773534"
"Blocked","Male","cave","10","M_cave.wav","None","720.920418156","109","675770.001203","682653.074424","683419.621864","684186.132203","684953.113102","671102.694653","671869.522511","672636.155282","676536.376433","677286.077696","678052.763954","678819.349112","679585.887276","680352.839113","681119.344196","681886.020561","684196.204725"
"Blocked","Male","cave","10","M_tile.wav","space","553.363283863","109","675770.001203","682653.074424","683419.621864","684186.132203","684953.113102","685702.47953","671869.522511","672636.155282","676536.376433","677286.077696","678052.763954","678819.349112","679585.887276","680352.839113","681119.344196","681886.020561","684963.351031"
"Blocked","Male","cave","10","M_lash.wav","None","734.590159729","109","675770.001203","682653.074424","683419.621864","684186.132203","684953.113102","685702.47953","686469.233806","672636.155282","676536.376433","677286.077696","678052.763954","678819.349112","679585.887276","680352.839113","681119.344196","681886.020561","685712.218456"
"Blocked","Male","cave","10","M_jaw.wav","None","732.777173747","109","675770.001203","682653.074424","683419.621864","684186.132203","684953.113102","685702.47953","686469.233806","687235.596052","676536.376433","677286.077696","678052.763954","678819.349112","679585.887276","680352.839113","681119.344196","681886.020561","686479.44391"
"Blocked","Male","cave","7","M_depth.wav","None","732.784903026","109","690369.287386","682653.074424","683419.621864","684186.132203","684953.113102","685702.47953","686469.233806","687235.596052","676536.376433","677286.077696","678052.763954","678819.349112","679585.887276","680352.839113","681119.344196","681886.020561","687244.969536"
"Blocked","Male","cave","7","M_cave.wav","None","722.294998006","109","690369.287386","682653.074424","683419.621864","684186.132203","684953.113102","685702.47953","686469.233806","687235.596052","691136.114008","677286.077696","678052.763954","678819.349112","679585.887276","680352.839113","681119.344196","681886.020561","690378.728888"
"Blocked","Male","cave","7","M_depth.wav","space","434.755535913","109","690369.287386","682653.074424","683419.621864","684186.132203","684953.113102","685702.47953","686469.233806","687235.596052","691136.114008","691885.396651","678052.763954","678819.349112","679585.887276","680352.839113","681119.344196","681886.020561","691145.751216"
"Blocked","Male","cave","7","M_jaw.wav","None","734.171540476","109","690369.287386","682653.074424","683419.621864","684186.132203","684953.113102","685702.47953","686469.233806","687235.596052","691136.114008","691885.396651","692652.236258","678819.349112","679585.887276","680352.839113","681119.344196","681886.020561","691896.281678"
"Blocked","Male","cave","7","M_cave.wav","None","733.907816582","109","690369.287386","682653.074424","683419.621864","684186.132203","684953.113102","685702.47953","686469.233806","687235.596052","691136.114008","691885.396651","692652.236258","693419.097508","679585.887276","680352.839113","681119.344196","681886.020561","692662.153576"
"Blocked","Male","cave","7","M_done.wav","space","511.776525294","109","690369.287386","682653.074424","683419.621864","684186.132203","684953.113102","685702.47953","686469.233806","687235.596052","691136.114008","691885.396651","692652.236258","693419.097508","694185.702762","680352.839113","681119.344196","681886.020561","693428.755739"
"Blocked","Male","cave","7","M_priest.wav","None","731.243370101","109","690369.287386","682653.074424","683419.621864","684186.132203","684953.113102","685702.47953","686469.233806","687235.596052","691136.114008","691885.396651","692652.236258","693419.097508","694185.702762","694952.375108","681119.344196","681886.020561","694195.298232"
"Blocked","Male","cave","7","M_jaw.wav","None","729.414307163","109","690369.287386","682653.074424","683419.621864","684186.132203","684953.113102","685702.47953","686469.233806","687235.596052","691136.114008","691885.396651","692652.236258","693419.097508","694185.702762","694952.375108","695719.462362","681886.020561","694962.608709"
"Blocked","Male","cave","7","M_cave.wav","None","728.761644568","109","690369.287386","682653.074424","683419.621864","684186.132203","684953.113102","685702.47953","686469.233806","687235.596052","691136.114008","691885.396651","692652.236258","693419.097508","694185.702762","694952.375108","695719.462362","696485.624882","695728.84945"
"Blocked","Male","cave","7","M_jolt.wav","space","469.488873379","109","690369.287386","697252.338965","683419.621864","684186.132203","684953.113102","685702.47953","686469.233806","687235.596052","691136.114008","691885.396651","692652.236258","693419.097508","694185.702762","694952.375108","695719.462362","696485.624882","696494.99682"
"Blocked","Male","cave","7","M_done.wav","None","725.228424184","109","690369.287386","697252.338965","698019.532575","684186.132203","684953.113102","685702.47953","686469.233806","687235.596052","691136.114008","691885.396651","692652.236258","693419.097508","694185.702762","694952.375108","695719.462362","696485.624882","697262.030897"
"Blocked","Male","cave","7","M_tile.wav","None","722.775142407","109","690369.287386","697252.338965","698019.532575","698785.849681","684953.113102","685702.47953","686469.233806","687235.596052","691136.114008","691885.396651","692652.236258","693419.097508","694185.702762","694952.375108","695719.462362","696485.624882","698030.015678"
"Blocked","Male","cave","7","M_bluff.wav","None","722.283558571","109","690369.287386","697252.338965","698019.532575","698785.849681","699552.418144","685702.47953","686469.233806","687235.596052","691136.114008","691885.396651","692652.236258","693419.097508","694185.702762","694952.375108","695719.462362","696485.624882","698796.023921"
"Blocked","Male","cave","7","M_dime.wav","None","722.126189852","109","690369.287386","697252.338965","698019.532575","698785.849681","699552.418144","700319.308456","686469.233806","687235.596052","691136.114008","691885.396651","692652.236258","693419.097508","694185.702762","694952.375108","695719.462362","696485.624882","699561.872013"
"Blocked","Male","cave","7","M_cave.wav","None","720.132338116","109","690369.287386","697252.338965","698019.532575","698785.849681","699552.418144","700319.308456","701085.935044","687235.596052","691136.114008","691885.396651","692652.236258","693419.097508","694185.702762","694952.375108","695719.462362","696485.624882","700329.467547"
"Blocked","Male","cave","7","M_dime.wav","space","404.363285983","109","690369.287386","697252.338965","698019.532575","698785.849681","699552.418144","700319.308456","701085.935044","701835.204392","691136.114008","691885.396651","692652.236258","693419.097508","694185.702762","694952.375108","695719.462362","696485.624882","701095.939548"
"Blocked","Male","cave","11","M_jolt.wav","None","734.693423263","109","704968.919224","697252.338965","698019.532575","698785.849681","699552.418144","700319.308456","701085.935044","701835.204392","691136.114008","691885.396651","692652.236258","693419.097508","694185.702762","694952.375108","695719.462362","696485.624882","701844.538302"
"Blocked","Male","cave","11","M_romp.wav","None","720.516330097","109","704968.919224","697252.338965","698019.532575","698785.849681","699552.418144","700319.308456","701085.935044","701835.204392","705735.845708","691885.396651","692652.236258","693419.097508","694185.702762","694952.375108","695719.462362","696485.624882","704979.059455"
"Blocked","Male","cave","11","M_cave.wav","None","719.689603429","109","704968.919224","697252.338965","698019.532575","698785.849681","699552.418144","700319.308456","701085.935044","701835.204392","705735.845708","706485.440615","692652.236258","693419.097508","694185.702762","694952.375108","695719.462362","696485.624882","705745.490336"
"Blocked","Male","cave","11","M_jolt.wav","space","525.081134518","109","704968.919224","697252.338965","698019.532575","698785.849681","699552.418144","700319.308456","701085.935044","701835.204392","705735.845708","706485.440615","707252.24374","693419.097508","694185.702762","694952.375108","695719.462362","696485.624882","706495.152643"
"Blocked","Male","cave","11","M_greet.wav","None","732.335366542","109","704968.919224","697252.338965","698019.532575","698785.849681","699552.418144","700319.308456","701085.935044","701835.204392","705735.845708","706485.440615","707252.24374","708018.860744","694185.702762","694952.375108","695719.462362","696485.624882","707262.307297"
"Blocked","Male","cave","11","M_cave.wav","None","731.813483872","109","704968.919224","697252.338965","698019.532575","698785.849681","699552.418144","700319.308456","701085.935044","701835.204392","705735.845708","706485.440615","707252.24374","708018.860744","708785.366754","694952.375108","695719.462362","696485.624882","708028.492696"
"Blocked","Male","cave","11","M_ball.wav","space","489.7458388","109","704968.919224","697252.338965","698019.532575","698785.849681","699552.418144","700319.308456","701085.935044","701835.204392","705735.845708","706485.440615","707252.24374","708018.860744","708785.366754","709551.978501","695719.462362","696485.624882","708794.460128"
"Blocked","Male","cave","11","M_greet.wav","None","728.724543937","109","704968.919224","697252.338965","698019.532575","698785.849681","699552.418144","700319.308456","701085.935044","701835.204392","705735.845708","706485.440615","707252.24374","708018.860744","708785.366754","709551.978501","710318.725357","696485.624882","709561.516465"
"Blocked","Male","cave","11","M_greet.wav","None","727.672121604","109","704968.919224","697252.338965","698019.532575","698785.849681","699552.418144","700319.308456","701085.935044","701835.204392","705735.845708","706485.440615","707252.24374","708018.860744","708785.366754","709551.978501","710318.725357","711085.407287","710328.541267"
"Blocked","Male","cave","11","M_bluff.wav","None","726.715542725","109","704968.919224","711852.028927","698019.532575","698785.849681","699552.418144","700319.308456","701085.935044","701835.204392","705735.845708","706485.440615","707252.24374","708018.860744","708785.366754","709551.978501","710318.725357","711085.407287","711095.043567"
"Blocked","Male","cave","11","M_ball.wav","None","725.432477891","109","704968.919224","711852.028927","712618.730026","698785.849681","699552.418144","700319.308456","701085.935044","701835.204392","705735.845708","706485.440615","707252.24374","708018.860744","708785.366754","709551.978501","710318.725357","711085.407287","711862.081972"
"Blocked","Male","cave","11","M_cave.wav","None","724.911213503","109","704968.919224","711852.028927","712618.730026","713385.667331","699552.418144","700319.308456","701085.935044","701835.204392","705735.845708","706485.440615","707252.24374","708018.860744","708785.366754","709551.978501","710318.725357","711085.407287","712628.296124"
"Blocked","Male","cave","11","M_knife.wav","space","384.441463393","109","704968.919224","711852.028927","712618.730026","713385.667331","714152.309378","700319.308456","701085.935044","701835.204392","705735.845708","706485.440615","707252.24374","708018.860744","708785.366754","709551.978501","710318.725357","711085.407287","713395.604436"
"Blocked","Male","cave","11","M_cave.wav","None","720.219215495","109","704968.919224","711852.028927","712618.730026","713385.667331","714152.309378","714919.075093","701085.935044","701835.204392","705735.845708","706485.440615","707252.24374","708018.860744","708785.366754","709551.978501","710318.725357","711085.407287","714162.772076"
"Blocked","Male","cave","11","M_tile.wav","space","563.089533476","109","704968.919224","711852.028927","712618.730026","713385.667331","714152.309378","714919.075093","715668.111016","701835.204392","705735.845708","706485.440615","707252.24374","708018.860744","708785.366754","709551.978501","710318.725357","711085.407287","714928.972315"
"Blocked","Male","cave","11","M_dime.wav","None","736.255670548","109","704968.919224","711852.028927","712618.730026","713385.667331","714152.309378","714919.075093","715668.111016","716435.036883","705735.845708","706485.440615","707252.24374","708018.860744","708785.366754","709551.978501","710318.725357","711085.407287","715677.234071"
"Blocked","Male","ball","2","M_done.wav","None","734.197820188","109","719568.930106","711852.028927","712618.730026","713385.667331","714152.309378","714919.075093","715668.111016","716435.036883","705735.845708","706485.440615","707252.24374","708018.860744","708785.366754","709551.978501","710318.725357","711085.407287","716445.32428"
"Blocked","Male","ball","2","M_ball.wav","None","720.462843194","109","719568.930106","711852.028927","712618.730026","713385.667331","714152.309378","714919.075093","715668.111016","716435.036883","720335.73014","706485.440615","707252.24374","708018.860744","708785.366754","709551.978501","710318.725357","711085.407287","719579.159998"
"Blocked","Male","ball","2","M_bluff.wav","space","346.18170734","109","719568.930106","711852.028927","712618.730026","713385.667331","714152.309378","714919.075093","715668.111016","716435.036883","720335.73014","721085.078327","707252.24374","708018.860744","708785.366754","709551.978501","710318.725357","711085.407287","720345.790295"
"Blocked","Male","ball","2","M_ball.wav","None","735.115134157","109","719568.930106","711852.028927","712618.730026","713385.667331","714152.309378","714919.075093","715668.111016","716435.036883","720335.73014","721085.078327","721851.748817","708018.860744","708785.366754","709551.978501","710318.725357","711085.407287","721094.215913"
"Blocked","Male","ball","2","M_cave.wav","space","567.071053665","109","719568.930106","711852.028927","712618.730026","713385.667331","714152.309378","714919.075093","715668.111016","716435.036883","720335.73014","721085.078327","721851.748817","722618.101478","708785.366754","709551.978501","710318.725357","711085.407287","721860.807873"
"Blocked","Male","ball","2","M_park.wav","None","734.086208977","109","719568.930106","711852.028927","712618.730026","713385.667331","714152.309378","714919.075093","715668.111016","716435.036883","720335.73014","721085.078327","721851.748817","722618.101478","723384.996118","709551.978501","710318.725357","711085.407287","722627.435079"
"Blocked","Male","ball","2","M_ball.wav","None","733.16549405","109","719568.930106","711852.028927","712618.730026","713385.667331","714152.309378","714919.075093","715668.111016","716435.036883","720335.73014","721085.078327","721851.748817","722618.101478","723384.996118","724151.842218","710318.725357","711085.407287","723394.764106"
"Blocked","Male","ball","2","M_romp.wav","space","442.167012952","109","719568.930106","711852.028927","712618.730026","713385.667331","714152.309378","714919.075093","715668.111016","716435.036883","720335.73014","721085.078327","721851.748817","722618.101478","723384.996118","724151.842218","724918.130881","711085.407287","724161.71718"
"Blocked","Male","ball","2","M_dime.wav","None","730.931106256","109","719568.930106","711852.028927","712618.730026","713385.667331","714152.309378","714919.075093","715668.111016","716435.036883","720335.73014","721085.078327","721851.748817","722618.101478","723384.996118","724151.842218","724918.130881","725684.77942","724927.070596"
"Blocked","Male","ball","2","M_park.wav","None","729.436567635","109","719568.930106","726451.720744","712618.730026","713385.667331","714152.309378","714919.075093","715668.111016","716435.036883","720335.73014","721085.078327","721851.748817","722618.101478","723384.996118","724151.842218","724918.130881","725684.77942","725694.237308"
"Blocked","Male","ball","2","M_ball.wav","None","728.332204395","109","719568.930106","726451.720744","727218.462344","713385.667331","714152.309378","714919.075093","715668.111016","716435.036883","720335.73014","721085.078327","721851.748817","722618.101478","723384.996118","724151.842218","724918.130881","725684.77942","726461.588286"
"Blocked","Male","ball","2","M_lash.wav","space","378.227410372","109","719568.930106","726451.720744","727218.462344","727985.008238","714152.309378","714919.075093","715668.111016","716435.036883","720335.73014","721085.078327","721851.748817","722618.101478","723384.996118","724151.842218","724918.130881","725684.77942","727225.59804"
"Blocked","Male","ball","2","M_gnash.wav","None","727.579988306","109","719568.930106","726451.720744","727218.462344","727985.008238","728751.626787","714919.075093","715668.111016","716435.036883","720335.73014","721085.078327","721851.748817","722618.101478","723384.996118","724151.842218","724918.130881","725684.77942","727994.530743"
"Blocked","Male","ball","2","M_gnash.wav","None","726.594038075","109","719568.930106","726451.720744","727218.462344","727985.008238","728751.626787","729518.326339","715668.111016","716435.036883","720335.73014","721085.078327","721851.748817","722618.101478","723384.996118","724151.842218","724918.130881","725684.77942","728761.32954"
"Blocked","Male","ball","2","M_gnash.wav","None","725.585208973","109","719568.930106","726451.720744","727218.462344","727985.008238","728751.626787","729518.326339","730284.633861","716435.036883","720335.73014","721085.078327","721851.748817","722618.101478","723384.996118","724151.842218","724918.130881","725684.77942","729528.04115"
"Blocked","Male","ball","2","M_reek.wav","None","725.424130214","109","719568.930106","726451.720744","727218.462344","727985.008238","728751.626787","729518.326339","730284.633861","731051.384427","720335.73014","721085.078327","721851.748817","722618.101478","723384.996118","724151.842218","724918.130881","725684.77942","730294.018476"
"Blocked","Male","done","20","M_cad.wav","None","724.717980833","109","734168.566891","726451.720744","727218.462344","727985.008238","728751.626787","729518.326339","730284.633861","731051.384427","720335.73014","721085.078327","721851.748817","722618.101478","723384.996118","724151.842218","724918.130881","725684.77942","731060.57148"
"Blocked","Male","done","20","M_done.wav","None","720.303310314","109","734168.566891","726451.720744","727218.462344","727985.008238","728751.626787","729518.326339","730284.633861","731051.384427","734935.072901","721085.078327","721851.748817","722618.101478","723384.996118","724151.842218","724918.130881","725684.77942","734178.666621"
"Blocked","Male","done","20","M_jaw.wav","space","514.193324838","109","734168.566891","726451.720744","727218.462344","727985.008238","728751.626787","729518.326339","730284.633861","731051.384427","734935.072901","735684.792096","721851.748817","722618.101478","723384.996118","724151.842218","724918.130881","725684.77942","734945.492006"
"Blocked","Male","done","20","M_knife.wav","None","734.404965653","109","734168.566891","726451.720744","727218.462344","727985.008238","728751.626787","729518.326339","730284.633861","731051.384427","734935.072901","735684.792096","736451.480518","722618.101478","723384.996118","724151.842218","724918.130881","725684.77942","735694.417864"
"Blocked","Male","done","20","M_done.wav","None","733.397991513","109","734168.566891","726451.720744","727218.462344","727985.008238","728751.626787","729518.326339","730284.633861","731051.384427","734935.072901","735684.792096","736451.480518","737218.173268","723384.996118","724151.842218","724918.130881","725684.77942","736461.394126"
"Blocked","Male","done","20","M_romp.wav","space","583.866526722","109","734168.566891","726451.720744","727218.462344","727985.008238","728751.626787","729518.326339","730284.633861","731051.384427","734935.072901","735684.792096","736451.480518","737218.173268","737984.739567","724151.842218","724918.130881","725684.77942","737227.72298"
