Condition,Talker,Target,Trial,current_stimulus,response_response,response_time_response,subject_nr,time_Audio1,time_Audio10,time_Audio11,time_Audio12,time_Audio13,time_Audio14,time_Audio15,time_Audio16,time_Audio2,time_Audio3,time_Audio4,time_Audio5,time_Audio6,time_Audio7,time_Audio8,time_Audio9,time_response,title
Blocked,Male,tile,16,M_bluff.wav,NA,NA,3410,252541.6869,NA,NA,NA,NA,NA,NA,NA,NA,NA,NA,NA,NA,NA,NA,NA,NA,Mapping
Blocked,Male,tile,16,M_tile.wav,None,717.2267903,3410,252541.6869,NA,NA,NA,NA,NA,NA,NA,253308.3687,NA,NA,NA,NA,NA,NA,NA,252556.6178,Mapping
Blocked,Male,tile,16,M_cad.wav,None,718.9859864,3410,252541.6869,NA,NA,NA,NA,NA,NA,NA,253308.3687,254074.7742,NA,NA,NA,NA,NA,NA,253320.5635,Mapping
Blocked,Male,tile,16,M_knife.wav,None,719.7100697,3410,252541.6869,NA,NA,NA,NA,NA,NA,NA,253308.3687,254074.7742,254841.4411,NA,NA,NA,NA,NA,254085.5995,Mapping
Blocked,Male,tile,16,M_tile.wav,None,717.9740621,3410,252541.6869,NA,NA,NA,NA,NA,NA,NA,253308.3687,254074.7742,254841.4411,255591.0384,NA,NA,NA,NA,254853.1721,Mapping
Blocked,Male,tile,16,M_park.wav,None,736.073989,3410,252541.6869,NA,NA,NA,NA,NA,NA,NA,253308.3687,254074.7742,254841.4411,255591.0384,256357.5965,NA,NA,NA,255600.7881,Mapping
Blocked,Male,tile,16,M_tile.wav,None,731.6487925,3410,252541.6869,NA,NA,NA,NA,NA,NA,NA,253308.3687,254074.7742,254841.4411,255591.0384,256357.5965,257124.4051,NA,NA,256370.7821,Mapping
Blocked,Male,tile,16,M_romp.wav,None,733.6766599,3410,252541.6869,NA,NA,NA,NA,NA,NA,NA,253308.3687,254074.7742,254841.4411,255591.0384,256357.5965,257124.4051,257891.0069,NA,257134.4294,Mapping
Blocked,Male,tile,16,M_cad.wav,None,733.2509281,3410,252541.6869,NA,NA,NA,NA,NA,NA,NA,253308.3687,254074.7742,254841.4411,255591.0384,256357.5965,257124.4051,257891.0069,258657.7264,257900.6834,Mapping
Blocked,Male,tile,16,M_reek.wav,None,732.0330953,3410,252541.6869,259424.3603,NA,NA,NA,NA,NA,NA,253308.3687,254074.7742,254841.4411,255591.0384,256357.5965,257124.4051,257891.0069,258657.7264,258667.9056,Mapping
Blocked,Male,tile,16,M_greet.wav,None,730.9123422,3410,252541.6869,259424.3603,260191.278,NA,NA,NA,NA,NA,253308.3687,254074.7742,254841.4411,255591.0384,256357.5965,257124.4051,257891.0069,258657.7264,259434.6307,Mapping
Blocked,Male,tile,16,M_greet.wav,None,729.2706324,3410,252541.6869,259424.3603,260191.278,260958.0109,NA,NA,NA,NA,253308.3687,254074.7742,254841.4411,255591.0384,256357.5965,257124.4051,257891.0069,258657.7264,260202.0141,Mapping
Blocked,Male,tile,16,M_cling.wav,None,722.5795062,3410,252541.6869,259424.3603,260191.278,260958.0109,261724.8355,NA,NA,NA,253308.3687,254074.7742,254841.4411,255591.0384,256357.5965,257124.4051,257891.0069,258657.7264,260974.3717,Mapping
Blocked,Male,tile,16,M_tile.wav,None,728.1913091,3410,252541.6869,259424.3603,260191.278,260958.0109,261724.8355,262491.2586,NA,NA,253308.3687,254074.7742,254841.4411,255591.0384,256357.5965,257124.4051,257891.0069,258657.7264,261734.4583,Mapping
Blocked,Male,tile,16,M_jolt.wav,None,727.5562668,3410,252541.6869,259424.3603,260191.278,260958.0109,261724.8355,262491.2586,263257.8767,NA,253308.3687,254074.7742,254841.4411,255591.0384,256357.5965,257124.4051,257891.0069,258657.7264,262500.826,Mapping
Blocked,Male,tile,16,M_park.wav,None,726.5950474,3410,252541.6869,259424.3603,260191.278,260958.0109,261724.8355,262491.2586,263257.8767,264024.749,253308.3687,254074.7742,254841.4411,255591.0384,256357.5965,257124.4051,257891.0069,258657.7264,263267.5597,Mapping
Blocked,Male,tile,13,M_park.wav,None,725.0566017,3410,267191.5557,259424.3603,260191.278,260958.0109,261724.8355,262491.2586,263257.8767,264024.749,253308.3687,254074.7742,254841.4411,255591.0384,256357.5965,257124.4051,257891.0069,258657.7264,264034.8494,Mapping
Blocked,Male,tile,13,M_priest.wav,space,0.024115667,3410,267191.5557,259424.3603,260191.278,260958.0109,261724.8355,262491.2586,263257.8767,264024.749,267958.2156,254074.7742,254841.4411,255591.0384,256357.5965,257124.4051,257891.0069,258657.7264,267201.1502,Mapping
Blocked,Male,tile,13,M_cad.wav,None,721.4995641,3410,267191.5557,259424.3603,260191.278,260958.0109,261724.8355,262491.2586,263257.8767,264024.749,267958.2156,268725.0612,254841.4411,255591.0384,256357.5965,257124.4051,257891.0069,258657.7264,267968.2532,Mapping
Blocked,Male,tile,13,M_tile.wav,None,720.4468292,3410,267191.5557,259424.3603,260191.278,260958.0109,261724.8355,262491.2586,263257.8767,264024.749,267958.2156,268725.0612,269492.2684,255591.0384,256357.5965,257124.4051,257891.0069,258657.7264,268735.2086,Mapping
Blocked,Male,tile,13,M_depth.wav,None,719.3622496,3410,267191.5557,259424.3603,260191.278,260958.0109,261724.8355,262491.2586,263257.8767,264024.749,267958.2156,268725.0612,269492.2684,270257.972,256357.5965,257124.4051,257891.0069,258657.7264,269502.2092,Mapping
Blocked,Male,tile,13,M_bluff.wav,None,719.7038862,3410,267191.5557,259424.3603,260191.278,260958.0109,261724.8355,262491.2586,263257.8767,264024.749,267958.2156,268725.0612,269492.2684,270257.972,271025.0467,257124.4051,257891.0069,258657.7264,270267.6911,Mapping
Blocked,Male,tile,13,M_tile.wav,None,718.1088617,3410,267191.5557,259424.3603,260191.278,260958.0109,261724.8355,262491.2586,263257.8767,264024.749,267958.2156,268725.0612,269492.2684,270257.972,271025.0467,271774.3456,257891.0069,258657.7264,271035.3941,Mapping
Blocked,Male,tile,13,M_knife.wav,None,735.1461602,3410,267191.5557,259424.3603,260191.278,260958.0109,261724.8355,262491.2586,263257.8767,264024.749,267958.2156,268725.0612,269492.2684,270257.972,271025.0467,271774.3456,272540.9885,258657.7264,271784.087,Mapping
Blocked,Male,tile,13,M_cad.wav,None,733.2527838,3410,267191.5557,259424.3603,260191.278,260958.0109,261724.8355,262491.2586,263257.8767,264024.749,267958.2156,268725.0612,269492.2684,270257.972,271025.0467,271774.3456,272540.9885,273307.8252,272551.6645,Mapping
Blocked,Male,tile,13,M_knife.wav,None,732.9096012,3410,267191.5557,274074.2149,260191.278,260958.0109,261724.8355,262491.2586,263257.8767,264024.749,267958.2156,268725.0612,269492.2684,270257.972,271025.0467,271774.3456,272540.9885,273307.8252,273317.745,Mapping
Blocked,Male,tile,13,M_tile.wav,None,732.6158867,3410,267191.5557,274074.2149,274841.1038,260958.0109,261724.8355,262491.2586,263257.8767,264024.749,267958.2156,268725.0612,269492.2684,270257.972,271025.0467,271774.3456,272540.9885,273307.8252,274083.7334,Mapping
Blocked,Male,tile,13,M_cad.wav,None,731.5996345,3410,267191.5557,274074.2149,274841.1038,275607.863,261724.8355,262491.2586,263257.8767,264024.749,267958.2156,268725.0612,269492.2684,270257.972,271025.0467,271774.3456,272540.9885,273307.8252,274850.6128,Mapping
Blocked,Male,tile,13,M_lash.wav,None,730.194442,3410,267191.5557,274074.2149,274841.1038,275607.863,276374.5306,262491.2586,263257.8767,264024.749,267958.2156,268725.0612,269492.2684,270257.972,271025.0467,271774.3456,272540.9885,273307.8252,275617.7364,Mapping
Blocked,Male,tile,13,M_jolt.wav,None,729.6036123,3410,267191.5557,274074.2149,274841.1038,275607.863,276374.5306,277141.1305,263257.8767,264024.749,267958.2156,268725.0612,269492.2684,270257.972,271025.0467,271774.3456,272540.9885,273307.8252,276384.3001,Mapping
Blocked,Male,tile,13,M_tile.wav,None,728.1158706,3410,267191.5557,274074.2149,274841.1038,275607.863,276374.5306,277141.1305,277907.7192,264024.749,267958.2156,268725.0612,269492.2684,270257.972,271025.0467,271774.3456,272540.9885,273307.8252,277151.5725,Mapping
Blocked,Male,tile,13,M_jolt.wav,None,727.9328401,3410,267191.5557,274074.2149,274841.1038,275607.863,276374.5306,277141.1305,277907.7192,278674.5127,267958.2156,268725.0612,269492.2684,270257.972,271025.0467,271774.3456,272540.9885,273307.8252,277917.5995,Mapping
Blocked,Male,done,24,M_bluff.wav,None,727.0823047,3410,281807.8309,274074.2149,274841.1038,275607.863,276374.5306,277141.1305,277907.7192,278674.5127,267958.2156,268725.0612,269492.2684,270257.972,271025.0467,271774.3456,272540.9885,273307.8252,278684.2773,Mapping
Blocked,Male,done,24,M_cad.wav,None,721.4871971,3410,281807.8309,274074.2149,274841.1038,275607.863,276374.5306,277141.1305,277907.7192,278674.5127,282574.9827,268725.0612,269492.2684,270257.972,271025.0467,271774.3456,272540.9885,273307.8252,281818.4937,Mapping
Blocked,Male,done,24,M_park.wav,None,720.9897377,3410,281807.8309,274074.2149,274841.1038,275607.863,276374.5306,277141.1305,277907.7192,278674.5127,282574.9827,283341.4255,269492.2684,270257.972,271025.0467,271774.3456,272540.9885,273307.8252,282584.7006,Mapping
Blocked,Male,done,24,M_greet.wav,None,720.0832418,3410,281807.8309,274074.2149,274841.1038,275607.863,276374.5306,277141.1305,277907.7192,278674.5127,282574.9827,283341.4255,284107.8575,270257.972,271025.0467,271774.3456,272540.9885,273307.8252,283351.439,Mapping
Blocked,Male,done,24,M_done.wav,None,718.9600156,3410,281807.8309,274074.2149,274841.1038,275607.863,276374.5306,277141.1305,277907.7192,278674.5127,282574.9827,283341.4255,284107.8575,284858.1155,271025.0467,271774.3456,272540.9885,273307.8252,284118.294,Mapping
Blocked,Male,done,24,M_dime.wav,None,735.0237272,3410,281807.8309,274074.2149,274841.1038,275607.863,276374.5306,277141.1305,277907.7192,278674.5127,282574.9827,283341.4255,284107.8575,284858.1155,285624.1802,271774.3456,272540.9885,273307.8252,284867.8804,Mapping
Blocked,Male,done,24,M_greet.wav,None,735.1625464,3410,281807.8309,274074.2149,274841.1038,275607.863,276374.5306,277141.1305,277907.7192,278674.5127,282574.9827,283341.4255,284107.8575,284858.1155,285624.1802,286390.594,272540.9885,273307.8252,285633.6344,Mapping
Blocked,Male,done,24,M_done.wav,None,739.7352178,3410,281807.8309,274074.2149,274841.1038,275607.863,276374.5306,277141.1305,277907.7192,278674.5127,282574.9827,283341.4255,284107.8575,284858.1155,285624.1802,286390.594,287157.4288,273307.8252,286395.0219,Mapping
Blocked,Male,done,24,M_romp.wav,None,733.1717801,3410,281807.8309,274074.2149,274841.1038,275607.863,276374.5306,277141.1305,277907.7192,278674.5127,282574.9827,283341.4255,284107.8575,284858.1155,285624.1802,286390.594,287157.4288,287924.234,287167.3669,Mapping
Blocked,Male,done,24,M_bluff.wav,None,732.0055785,3410,281807.8309,288690.8478,274841.1038,275607.863,276374.5306,277141.1305,277907.7192,278674.5127,282574.9827,283341.4255,284107.8575,284858.1155,285624.1802,286390.594,287157.4288,287924.234,287934.3526,Mapping
Blocked,Male,done,24,M_knife.wav,None,731.4997716,3410,281807.8309,288690.8478,289457.3995,275607.863,276374.5306,277141.1305,277907.7192,278674.5127,282574.9827,283341.4255,284107.8575,284858.1155,285624.1802,286390.594,287157.4288,287924.234,288700.584,Mapping
Blocked,Male,done,24,M_bluff.wav,None,730.8062962,3410,281807.8309,288690.8478,289457.3995,290224.188,276374.5306,277141.1305,277907.7192,278674.5127,282574.9827,283341.4255,284107.8575,284858.1155,285624.1802,286390.594,287157.4288,287924.234,289467.0846,Mapping
Blocked,Male,done,24,M_done.wav,None,729.6734853,3410,281807.8309,288690.8478,289457.3995,290224.188,290990.9171,277141.1305,277907.7192,278674.5127,282574.9827,283341.4255,284107.8575,284858.1155,285624.1802,286390.594,287157.4288,287924.234,290234.0317,Mapping
Blocked,Male,done,24,M_bluff.wav,None,729.0996597,3410,281807.8309,288690.8478,289457.3995,290224.188,290990.9171,291757.4038,277907.7192,278674.5127,282574.9827,283341.4255,284107.8575,284858.1155,285624.1802,286390.594,287157.4288,287924.234,291000.452,Mapping
Blocked,Male,done,24,M_done.wav,None,728.3384753,3410,281807.8309,288690.8478,289457.3995,290224.188,290990.9171,291757.4038,292524.3219,278674.5127,282574.9827,283341.4255,284107.8575,284858.1155,285624.1802,286390.594,287157.4288,287924.234,291767.2043,Mapping
Blocked,Male,done,24,M_cling.wav,None,727.6153192,3410,281807.8309,288690.8478,289457.3995,290224.188,290990.9171,291757.4038,292524.3219,293290.808,282574.9827,283341.4255,284107.8575,284858.1155,285624.1802,286390.594,287157.4288,287924.234,292533.6886,Mapping
Blocked,Male,ball,2,M_depth.wav,None,726.5236289,3410,296424.71,288690.8478,289457.3995,290224.188,290990.9171,291757.4038,292524.3219,293290.808,282574.9827,283341.4255,284107.8575,284858.1155,285624.1802,286390.594,287157.4288,287924.234,293300.738,Mapping
Blocked,Male,ball,2,M_gnash.wav,None,721.591698,3410,296424.71,288690.8478,289457.3995,290224.188,290990.9171,291757.4038,292524.3219,293290.808,297190.7466,283341.4255,284107.8575,284858.1155,285624.1802,286390.594,287157.4288,287924.234,296435.1545,Mapping
Blocked,Male,ball,2,M_ball.wav,None,723.3171933,3410,296424.71,288690.8478,289457.3995,290224.188,290990.9171,291757.4038,292524.3219,293290.808,297190.7466,297957.7598,284107.8575,284858.1155,285624.1802,286390.594,287157.4288,287924.234,297200.2138,Mapping
Blocked,Male,ball,2,M_cad.wav,None,721.2519166,3410,296424.71,288690.8478,289457.3995,290224.188,290990.9171,291757.4038,292524.3219,293290.808,297190.7466,297957.7598,298724.3866,284858.1155,285624.1802,286390.594,287157.4288,287924.234,297968.0998,Mapping
Blocked,Male,ball,2,M_cad.wav,None,720.4978433,3410,296424.71,288690.8478,289457.3995,290224.188,290990.9171,291757.4038,292524.3219,293290.808,297190.7466,297957.7598,298724.3866,299491.1164,285624.1802,286390.594,287157.4288,287924.234,298734.6657,Mapping
Blocked,Male,ball,2,M_dime.wav,None,719.6989395,3410,296424.71,288690.8478,289457.3995,290224.188,290990.9171,291757.4038,292524.3219,293290.808,297190.7466,297957.7598,298724.3866,299491.1164,300257.5042,286390.594,287157.4288,287924.234,299501.4081,Mapping
Blocked,Male,ball,2,M_jolt.wav,None,719.4673684,3410,296424.71,288690.8478,289457.3995,290224.188,290990.9171,291757.4038,292524.3219,293290.808,297190.7466,297957.7598,298724.3866,299491.1164,300257.5042,301007.4155,287157.4288,287924.234,300267.4929,Mapping
Blocked,Male,ball,2,M_bluff.wav,None,735.9670149,3410,296424.71,288690.8478,289457.3995,290224.188,290990.9171,291757.4038,292524.3219,293290.808,297190.7466,297957.7598,298724.3866,299491.1164,300257.5042,301007.4155,301790.5389,287924.234,301016.8741,Mapping
Blocked,Male,ball,2,M_greet.wav,None,723.8158896,3410,296424.71,288690.8478,289457.3995,290224.188,290990.9171,291757.4038,292524.3219,293290.808,297190.7466,297957.7598,298724.3866,299491.1164,300257.5042,301007.4155,301790.5389,302557.5039,301799.922,Mapping
Blocked,Male,ball,2,M_ball.wav,None,721.9800195,3410,296424.71,303324.4559,289457.3995,290224.188,290990.9171,291757.4038,292524.3219,293290.808,297190.7466,297957.7598,298724.3866,299491.1164,300257.5042,301007.4155,301790.5389,302557.5039,302567.7576,Mapping
Blocked,Male,ball,2,M_knife.wav,None,720.8067072,3410,296424.71,303324.4559,304091.0113,290224.188,290990.9171,291757.4038,292524.3219,293290.808,297190.7466,297957.7598,298724.3866,299491.1164,300257.5042,301007.4155,301790.5389,302557.5039,303334.7412,Mapping
Blocked,Male,ball,2,M_ball.wav,None,720.2780209,3410,296424.71,303324.4559,304091.0113,304857.8326,290990.9171,291757.4038,292524.3219,293290.808,297190.7466,297957.7598,298724.3866,299491.1164,300257.5042,301007.4155,301790.5389,302557.5039,304101.167,Mapping
Blocked,Male,ball,2,M_priest.wav,None,719.7351125,3410,296424.71,303324.4559,304091.0113,304857.8326,305624.3035,291757.4038,292524.3219,293290.808,297190.7466,297957.7598,298724.3866,299491.1164,300257.5042,301007.4155,301790.5389,302557.5039,304867.7023,Mapping
Blocked,Male,ball,2,M_lash.wav,None,719.1356262,3410,296424.71,303324.4559,304091.0113,304857.8326,305624.3035,306390.9294,292524.3219,293290.808,297190.7466,297957.7598,298724.3866,299491.1164,300257.5042,301007.4155,301790.5389,302557.5039,305634.3226,Mapping
Blocked,Male,ball,2,M_ball.wav,None,718.6047756,3410,296424.71,303324.4559,304091.0113,304857.8326,305624.3035,306390.9294,307140.7431,293290.808,297190.7466,297957.7598,298724.3866,299491.1164,300257.5042,301007.4155,301790.5389,302557.5039,306401.0511,Mapping
Blocked,Male,ball,2,M_gnash.wav,None,734.8972755,3410,296424.71,303324.4559,304091.0113,304857.8326,305624.3035,306390.9294,307140.7431,307907.0375,297190.7466,297957.7598,298724.3866,299491.1164,300257.5042,301007.4155,301790.5389,302557.5039,307150.7872,Mapping
Blocked,Male,tile,17,M_greet.wav,None,735.0336211,3410,311040.8764,303324.4559,304091.0113,304857.8326,305624.3035,306390.9294,307140.7431,307907.0375,297190.7466,297957.7598,298724.3866,299491.1164,300257.5042,301007.4155,301790.5389,302557.5039,307916.6157,Mapping
Blocked,Male,tile,17,M_jolt.wav,None,721.4779221,3410,311040.8764,303324.4559,304091.0113,304857.8326,305624.3035,306390.9294,307140.7431,307907.0375,311807.4797,297957.7598,298724.3866,299491.1164,300257.5042,301007.4155,301790.5389,302557.5039,311051.0717,Mapping
Blocked,Male,tile,17,M_jaw.wav,None,721.1319571,3410,311040.8764,303324.4559,304091.0113,304857.8326,305624.3035,306390.9294,307140.7431,307907.0375,311807.4797,312574.2364,298724.3866,299491.1164,300257.5042,301007.4155,301790.5389,302557.5039,311817.4753,Mapping
Blocked,Male,tile,17,M_tile.wav,None,720.2208242,3410,311040.8764,303324.4559,304091.0113,304857.8326,305624.3035,306390.9294,307140.7431,307907.0375,311807.4797,312574.2364,313340.9683,299491.1164,300257.5042,301007.4155,301790.5389,302557.5039,312584.4063,Mapping
Blocked,Male,tile,17,M_dime.wav,None,719.6596744,3410,311040.8764,303324.4559,304091.0113,304857.8326,305624.3035,306390.9294,307140.7431,307907.0375,311807.4797,312574.2364,313340.9683,314107.3882,300257.5042,301007.4155,301790.5389,302557.5039,313350.9304,Mapping
Blocked,Male,tile,17,M_gnash.wav,None,719.5428074,3410,311040.8764,303324.4559,304091.0113,304857.8326,305624.3035,306390.9294,307140.7431,307907.0375,311807.4797,312574.2364,313340.9683,314107.3882,314874.2086,301007.4155,301790.5389,302557.5039,314117.1309,Mapping
Blocked,Male,tile,17,M_tile.wav,None,718.0071436,3410,311040.8764,303324.4559,304091.0113,304857.8326,305624.3035,306390.9294,307140.7431,307907.0375,311807.4797,312574.2364,313340.9683,314107.3882,314874.2086,315623.7458,301790.5389,302557.5039,314884.8803,Mapping
Blocked,Male,tile,17,M_reek.wav,None,735.9385709,3410,311040.8764,303324.4559,304091.0113,304857.8326,305624.3035,306390.9294,307140.7431,307907.0375,311807.4797,312574.2364,313340.9683,314107.3882,314874.2086,315623.7458,316390.0773,302557.5039,315633.0773,Mapping
Blocked,Male,tile,17,M_knife.wav,None,735.3214612,3410,311040.8764,303324.4559,304091.0113,304857.8326,305624.3035,306390.9294,307140.7431,307907.0375,311807.4797,312574.2364,313340.9683,314107.3882,314874.2086,315623.7458,316390.0773,317156.8943,316399.6935,Mapping
Blocked,Male,tile,17,M_dime.wav,None,735.0240364,3410,311040.8764,317923.3532,304091.0113,304857.8326,305624.3035,306390.9294,307140.7431,307907.0375,311807.4797,312574.2364,313340.9683,314107.3882,314874.2086,315623.7458,316390.0773,317156.8943,317166.0721,Mapping
Blocked,Male,tile,17,M_tile.wav,None,734.1973074,3410,311040.8764,317923.3532,318690.376,304857.8326,305624.3035,306390.9294,307140.7431,307907.0375,311807.4797,312574.2364,313340.9683,314107.3882,314874.2086,315623.7458,316390.0773,317156.8943,317932.9666,Mapping
Blocked,Male,tile,17,M_park.wav,None,733.3149272,3410,311040.8764,317923.3532,318690.376,319456.9184,305624.3035,306390.9294,307140.7431,307907.0375,311807.4797,312574.2364,313340.9683,314107.3882,314874.2086,315623.7458,316390.0773,317156.8943,318699.9115,Mapping
Blocked,Male,tile,17,M_priest.wav,None,732.7581062,3410,311040.8764,317923.3532,318690.376,319456.9184,320223.8232,306390.9294,307140.7431,307907.0375,311807.4797,312574.2364,313340.9683,314107.3882,314874.2086,315623.7458,316390.0773,317156.8943,319466.5077,Mapping
Blocked,Male,tile,17,M_tile.wav,None,731.7171204,3410,311040.8764,317923.3532,318690.376,319456.9184,320223.8232,320990.2487,307140.7431,307907.0375,311807.4797,312574.2364,313340.9683,314107.3882,314874.2086,315623.7458,316390.0773,317156.8943,320233.6042,Mapping
Blocked,Male,tile,17,M_reek.wav,None,731.2205876,3410,311040.8764,317923.3532,318690.376,319456.9184,320223.8232,320990.2487,321756.608,307907.0375,311807.4797,312574.2364,313340.9683,314107.3882,314874.2086,315623.7458,316390.0773,317156.8943,321000.3478,Mapping
Blocked,Male,tile,17,M_romp.wav,None,731.5832484,3410,311040.8764,317923.3532,318690.376,319456.9184,320223.8232,320990.2487,321756.608,322523.5993,311807.4797,312574.2364,313340.9683,314107.3882,314874.2086,315623.7458,316390.0773,317156.8943,321765.877,Mapping
Blocked,Male,ball,3,M_knife.wav,None,729.8070481,3410,325657.2756,317923.3532,318690.376,319456.9184,320223.8232,320990.2487,321756.608,322523.5993,311807.4797,312574.2364,313340.9683,314107.3882,314874.2086,315623.7458,316390.0773,317156.8943,322533.8401,Mapping
Blocked,Male,ball,3,M_park.wav,None,721.915402,3410,325657.2756,317923.3532,318690.376,319456.9184,320223.8232,320990.2487,321756.608,322523.5993,326424.0839,312574.2364,313340.9683,314107.3882,314874.2086,315623.7458,316390.0773,317156.8943,325667.3296,Mapping
Blocked,Male,ball,3,M_dime.wav,None,721.4269084,3410,325657.2756,317923.3532,318690.376,319456.9184,320223.8232,320990.2487,321756.608,322523.5993,326424.0839,327190.7373,313340.9683,314107.3882,314874.2086,315623.7458,316390.0773,317156.8943,326433.8498,Mapping
Blocked,Male,ball,3,M_ball.wav,None,721.2268733,3410,325657.2756,317923.3532,318690.376,319456.9184,320223.8232,320990.2487,321756.608,322523.5993,326424.0839,327190.7373,327957.1109,314107.3882,314874.2086,315623.7458,316390.0773,317156.8943,327200.8253,Mapping
Blocked,Male,ball,3,M_gnash.wav,None,720.6054353,3410,325657.2756,317923.3532,318690.376,319456.9184,320223.8232,320990.2487,321756.608,322523.5993,326424.0839,327190.7373,327957.1109,328724.0156,314874.2086,315623.7458,316390.0773,317156.8943,327967.5615,Mapping
Blocked,Male,ball,3,M_priest.wav,None,720.0263538,3410,325657.2756,317923.3532,318690.376,319456.9184,320223.8232,320990.2487,321756.608,322523.5993,326424.0839,327190.7373,327957.1109,328724.0156,329490.7055,315623.7458,316390.0773,317156.8943,328734.1512,Mapping
Blocked,Male,ball,3,M_ball.wav,None,719.6667856,3410,325657.2756,317923.3532,318690.376,319456.9184,320223.8232,320990.2487,321756.608,322523.5993,326424.0839,327190.7373,327957.1109,328724.0156,329490.7055,330257.1242,316390.0773,317156.8943,329500.7267,Mapping
Blocked,Male,ball,3,M_lash.wav,None,719.63896,3410,325657.2756,317923.3532,318690.376,319456.9184,320223.8232,320990.2487,321756.608,322523.5993,326424.0839,327190.7373,327957.1109,328724.0156,329490.7055,330257.1242,331024.0175,317156.8943,330266.9185,Mapping
Blocked,Male,ball,3,M_ball.wav,None,718.2136714,3410,325657.2756,317923.3532,318690.376,319456.9184,320223.8232,320990.2487,321756.608,322523.5993,326424.0839,327190.7373,327957.1109,328724.0156,329490.7055,330257.1242,331024.0175,331773.2391,331034.4002,Mapping
Blocked,Male,ball,3,M_jaw.wav,None,736.026376,3410,325657.2756,332539.7583,318690.376,319456.9184,320223.8232,320990.2487,321756.608,322523.5993,326424.0839,327190.7373,327957.1109,328724.0156,329490.7055,330257.1242,331024.0175,331773.2391,331782.6967,Mapping
Blocked,Male,ball,3,M_priest.wav,None,735.1307012,3410,325657.2756,332539.7583,333323.3392,319456.9184,320223.8232,320990.2487,321756.608,322523.5993,326424.0839,327190.7373,327957.1109,328724.0156,329490.7055,330257.1242,331024.0175,331773.2391,332549.5884,Mapping
Blocked,Male,ball,3,M_ball.wav,None,722.0297963,3410,325657.2756,332539.7583,333323.3392,334090.5408,320223.8232,320990.2487,321756.608,322523.5993,326424.0839,327190.7373,327957.1109,328724.0156,329490.7055,330257.1242,331024.0175,331773.2391,333332.5788,Mapping
Blocked,Male,ball,3,M_bluff.wav,None,720.9575837,3410,325657.2756,332539.7583,333323.3392,334090.5408,334857.0504,320990.2487,321756.608,322523.5993,326424.0839,327190.7373,327957.1109,328724.0156,329490.7055,330257.1242,331024.0175,331773.2391,334100.5023,Mapping
Blocked,Male,ball,3,M_knife.wav,None,720.5769913,3410,325657.2756,332539.7583,333323.3392,334090.5408,334857.0504,335623.8791,321756.608,322523.5993,326424.0839,327190.7373,327957.1109,328724.0156,329490.7055,330257.1242,331024.0175,331773.2391,334867.1189,Mapping
Blocked,Male,ball,3,M_bluff.wav,None,719.4478908,3410,325657.2756,332539.7583,333323.3392,334090.5408,334857.0504,335623.8791,336390.3602,322523.5993,326424.0839,327190.7373,327957.1109,328724.0156,329490.7055,330257.1242,331024.0175,331773.2391,335634.2951,Mapping
Blocked,Male,ball,3,M_knife.wav,None,719.3402988,3410,325657.2756,332539.7583,333323.3392,334090.5408,334857.0504,335623.8791,336390.3602,337156.9576,326424.0839,327190.7373,327957.1109,328724.0156,329490.7055,330257.1242,331024.0175,331773.2391,336400.6297,Mapping
Blocked,Male,tile,14,M_jaw.wav,None,719.0280333,3410,340273.822,332539.7583,333323.3392,334090.5408,334857.0504,335623.8791,336390.3602,337156.9576,326424.0839,327190.7373,327957.1109,328724.0156,329490.7055,330257.1242,331024.0175,331773.2391,337167.0231,Mapping
Blocked,Male,tile,14,M_bluff.wav,None,722.1933487,3410,340273.822,332539.7583,333323.3392,334090.5408,334857.0504,335623.8791,336390.3602,337156.9576,341040.3789,327190.7373,327957.1109,328724.0156,329490.7055,330257.1242,331024.0175,331773.2391,340283.8009,Mapping
Blocked,Male,tile,14,M_cad.wav,None,721.6779571,3410,340273.822,332539.7583,333323.3392,334090.5408,334857.0504,335623.8791,336390.3602,337156.9576,341040.3789,341806.8849,327957.1109,328724.0156,329490.7055,330257.1242,331024.0175,331773.2391,341050.5545,Mapping
Blocked,Male,tile,14,M_romp.wav,None,721.0735236,3410,340273.822,332539.7583,333323.3392,334090.5408,334857.0504,335623.8791,336390.3602,337156.9576,341040.3789,341806.8849,342573.609,328724.0156,329490.7055,330257.1242,331024.0175,331773.2391,341817.4116,Mapping
Blocked,Male,tile,14,M_tile.wav,None,720.6202755,3410,340273.822,332539.7583,333323.3392,334090.5408,334857.0504,335623.8791,336390.3602,337156.9576,341040.3789,341806.8849,342573.609,343340.3218,329490.7055,330257.1242,331024.0175,331773.2391,342583.9877,Mapping
Blocked,Male,tile,14,M_knife.wav,None,719.8077682,3410,340273.822,332539.7583,333323.3392,334090.5408,334857.0504,335623.8791,336390.3602,337156.9576,341040.3789,341806.8849,342573.609,343340.3218,344106.7736,330257.1242,331024.0175,331773.2391,343350.9063,Mapping
Blocked,Male,tile,14,M_lash.wav,None,720.3055373,3410,340273.822,332539.7583,333323.3392,334090.5408,334857.0504,335623.8791,336390.3602,337156.9576,341040.3789,341806.8849,342573.609,343340.3218,344106.7736,344873.3141,331024.0175,331773.2391,344117.0963,Mapping
Blocked,Male,tile,14,M_tile.wav,None,720.854938,3410,340273.822,332539.7583,333323.3392,334090.5408,334857.0504,335623.8791,336390.3602,337156.9576,341040.3789,341806.8849,342573.609,343340.3218,344106.7736,344873.3141,345640.2659,331773.2391,344882.8728,Mapping
Blocked,Male,tile,14,M_depth.wav,None,719.6179358,3410,340273.822,332539.7583,333323.3392,334090.5408,334857.0504,335623.8791,336390.3602,337156.9576,341040.3789,341806.8849,342573.609,343340.3218,344106.7736,344873.3141,345640.2659,346406.9746,345650.36,Mapping
Blocked,Male,tile,14,M_tile.wav,None,719.0255602,3410,340273.822,347173.76,333323.3392,334090.5408,334857.0504,335623.8791,336390.3602,337156.9576,341040.3789,341806.8849,342573.609,343340.3218,344106.7736,344873.3141,345640.2659,346406.9746,346417.262,Mapping
Blocked,Male,tile,14,M_jolt.wav,None,718.5540712,3410,340273.822,347173.76,347940.1942,334090.5408,334857.0504,335623.8791,336390.3602,337156.9576,341040.3789,341806.8849,342573.609,343340.3218,344106.7736,344873.3141,345640.2659,346406.9746,347184.0533,Mapping
Blocked,Male,tile,14,M_lash.wav,None,718.496874,3410,340273.822,347173.76,347940.1942,348690.0628,334857.0504,335623.8791,336390.3602,337156.9576,341040.3789,341806.8849,342573.609,343340.3218,344106.7736,344873.3141,345640.2659,346406.9746,347950.4133,Mapping
Blocked,Male,tile,14,M_park.wav,None,735.2382937,3410,340273.822,347173.76,347940.1942,348690.0628,349456.3013,335623.8791,336390.3602,337156.9576,341040.3789,341806.8849,342573.609,343340.3218,344106.7736,344873.3141,345640.2659,346406.9746,348699.8621,Mapping
Blocked,Male,tile,14,M_greet.wav,None,735.0228,3410,340273.822,347173.76,347940.1942,348690.0628,349456.3013,350223.0227,336390.3602,337156.9576,341040.3789,341806.8849,342573.609,343340.3218,344106.7736,344873.3141,345640.2659,346406.9746,349466.3584,Mapping
Blocked,Male,tile,14,M_tile.wav,None,734.9640569,3410,340273.822,347173.76,347940.1942,348690.0628,349456.3013,350223.0227,350989.4164,337156.9576,341040.3789,341806.8849,342573.609,343340.3218,344106.7736,344873.3141,345640.2659,346406.9746,350232.7063,Mapping
Blocked,Male,tile,14,M_knife.wav,None,734.750418,3410,340273.822,347173.76,347940.1942,348690.0628,349456.3013,350223.0227,350989.4164,351756.2321,341040.3789,341806.8849,342573.609,343340.3218,344106.7736,344873.3141,345640.2659,346406.9746,350999.2079,Mapping
Blocked,Male,cave,10,M_cling.wav,None,734.4817468,3410,354890.2274,347173.76,347940.1942,348690.0628,349456.3013,350223.0227,350989.4164,351756.2321,341040.3789,341806.8849,342573.609,343340.3218,344106.7736,344873.3141,345640.2659,346406.9746,351765.7725,Mapping
Blocked,Male,cave,10,M_romp.wav,None,721.683213,3410,354890.2274,347173.76,347940.1942,348690.0628,349456.3013,350223.0227,350989.4164,351756.2321,355656.8595,341806.8849,342573.609,343340.3218,344106.7736,344873.3141,345640.2659,346406.9746,354900.2799,Mapping
Blocked,Male,cave,10,M_reek.wav,None,721.5051292,3410,354890.2274,347173.76,347940.1942,348690.0628,349456.3013,350223.0227,350989.4164,351756.2321,355656.8595,356423.6093,342573.609,343340.3218,344106.7736,344873.3141,345640.2659,346406.9746,355666.6068,Mapping
Blocked,Male,cave,10,M_cave.wav,None,720.653357,3410,354890.2274,347173.76,347940.1942,348690.0628,349456.3013,350223.0227,350989.4164,351756.2321,355656.8595,356423.6093,357189.9971,343340.3218,344106.7736,344873.3141,345640.2659,346406.9746,356433.6961,Mapping
Blocked,Male,cave,10,M_cad.wav,None,721.1127887,3410,354890.2274,347173.76,347940.1942,348690.0628,349456.3013,350223.0227,350989.4164,351756.2321,355656.8595,356423.6093,357189.9971,357956.7995,344106.7736,344873.3141,345640.2659,346406.9746,357200.1297,Mapping
Blocked,Male,cave,10,M_cave.wav,None,720.3475847,3410,354890.2274,347173.76,347940.1942,348690.0628,349456.3013,350223.0227,350989.4164,351756.2321,355656.8595,356423.6093,357189.9971,357956.7995,358723.5948,344873.3141,345640.2659,346406.9746,357967.0984,Mapping
Blocked,Male,cave,10,M_cling.wav,None,720.1592983,3410,354890.2274,347173.76,347940.1942,348690.0628,349456.3013,350223.0227,350989.4164,351756.2321,355656.8595,356423.6093,357189.9971,357956.7995,358723.5948,359489.9341,345640.2659,346406.9746,358733.4621,Mapping
Blocked,Male,cave,10,M_cave.wav,None,719.2147747,3410,354890.2274,347173.76,347940.1942,348690.0628,349456.3013,350223.0227,350989.4164,351756.2321,355656.8595,356423.6093,357189.9971,357956.7995,358723.5948,359489.9341,360256.4848,346406.9746,359500.3257,Mapping
Blocked,Male,cave,10,M_priest.wav,None,719.1820019,3410,354890.2274,347173.76,347940.1942,348690.0628,349456.3013,350223.0227,350989.4164,351756.2321,355656.8595,356423.6093,357189.9971,357956.7995,358723.5948,359489.9341,360256.4848,361023.2943,360266.5605,Mapping
Blocked,Male,cave,10,M_depth.wav,None,718.1122624,3410,354890.2274,361773.1343,347940.1942,348690.0628,349456.3013,350223.0227,350989.4164,351756.2321,355656.8595,356423.6093,357189.9971,357956.7995,358723.5948,359489.9341,360256.4848,361023.2943,361033.8007,Mapping
Blocked,Male,cave,10,M_jaw.wav,None,734.9798246,3410,354890.2274,361773.1343,362539.6702,348690.0628,349456.3013,350223.0227,350989.4164,351756.2321,355656.8595,356423.6093,357189.9971,357956.7995,358723.5948,359489.9341,360256.4848,361023.2943,361783.1991,Mapping
Blocked,Male,cave,10,M_cave.wav,None,735.0932914,3410,354890.2274,361773.1343,362539.6702,363305.9661,349456.3013,350223.0227,350989.4164,351756.2321,355656.8595,356423.6093,357189.9971,357956.7995,358723.5948,359489.9341,360256.4848,361023.2943,362549.2753,Mapping
Blocked,Male,cave,10,M_cling.wav,None,734.7952486,3410,354890.2274,361773.1343,362539.6702,363305.9661,364072.8193,350223.0227,350989.4164,351756.2321,355656.8595,356423.6093,357189.9971,357956.7995,358723.5948,359489.9341,360256.4848,361023.2943,363315.706,Mapping
Blocked,Male,cave,10,M_reek.wav,None,734.1345456,3410,354890.2274,361773.1343,362539.6702,363305.9661,364072.8193,364839.3338,350989.4164,351756.2321,355656.8595,356423.6093,357189.9971,357956.7995,358723.5948,359489.9341,360256.4848,361023.2943,364082.5455,Mapping
Blocked,Male,cave,10,M_knife.wav,None,733.4042783,3410,354890.2274,361773.1343,362539.6702,363305.9661,364072.8193,364839.3338,365606.0382,351756.2321,355656.8595,356423.6093,357189.9971,357956.7995,358723.5948,359489.9341,360256.4848,361023.2943,364849.6126,Mapping
Blocked,Male,cave,10,M_jolt.wav,None,733.8757673,3410,354890.2274,361773.1343,362539.6702,363305.9661,364072.8193,364839.3338,365606.0382,366373.041,355656.8595,356423.6093,357189.9971,357956.7995,358723.5948,359489.9341,360256.4848,361023.2943,365615.4207,Mapping
Blocked,Male,cave,11,M_greet.wav,None,732.8622974,3410,369506.4109,361773.1343,362539.6702,363305.9661,364072.8193,364839.3338,365606.0382,366373.041,355656.8595,356423.6093,357189.9971,357956.7995,358723.5948,359489.9341,360256.4848,361023.2943,366382.8025,Mapping
Blocked,Male,cave,11,M_reek.wav,None,722.2641497,3410,369506.4109,361773.1343,362539.6702,363305.9661,364072.8193,364839.3338,365606.0382,366373.041,370273.4776,356423.6093,357189.9971,357956.7995,358723.5948,359489.9341,360256.4848,361023.2943,369516.2018,Mapping
Blocked,Male,cave,11,M_cave.wav,None,720.9872645,3410,369506.4109,361773.1343,362539.6702,363305.9661,364072.8193,364839.3338,365606.0382,366373.041,370273.4776,371040.101,357189.9971,357956.7995,358723.5948,359489.9341,360256.4848,361023.2943,370283.5968,Mapping
Blocked,Male,cave,11,M_lash.wav,None,720.4391002,3410,369506.4109,361773.1343,362539.6702,363305.9661,364072.8193,364839.3338,365606.0382,366373.041,370273.4776,371040.101,371806.346,357956.7995,358723.5948,359489.9341,360256.4848,361023.2943,371050.2969,Mapping
Blocked,Male,cave,11,M_knife.wav,None,720.4285883,3410,369506.4109,361773.1343,362539.6702,363305.9661,364072.8193,364839.3338,365606.0382,366373.041,370273.4776,371040.101,371806.346,372573.3302,358723.5948,359489.9341,360256.4848,361023.2943,371816.5759,Mapping
Blocked,Male,cave,11,M_cave.wav,None,719.2670247,3410,369506.4109,361773.1343,362539.6702,363305.9661,364072.8193,364839.3338,365606.0382,366373.041,370273.4776,371040.101,371806.346,372573.3302,373340.0676,359489.9341,360256.4848,361023.2943,372583.92,Mapping
Blocked,Male,cave,11,M_greet.wav,None,719.0499846,3410,369506.4109,361773.1343,362539.6702,363305.9661,364072.8193,364839.3338,365606.0382,366373.041,370273.4776,371040.101,371806.346,372573.3302,373340.0676,374106.2307,360256.4848,361023.2943,373350.39,Mapping
Blocked,Male,cave,11,M_cad.wav,None,719.5935114,3410,369506.4109,361773.1343,362539.6702,363305.9661,364072.8193,364839.3338,365606.0382,366373.041,370273.4776,371040.101,371806.346,372573.3302,373340.0676,374106.2307,374873.0087,361023.2943,374116.0543,Mapping
Blocked,Male,cave,11,M_bluff.wav,None,718.8604614,3410,369506.4109,361773.1343,362539.6702,363305.9661,364072.8193,364839.3338,365606.0382,366373.041,370273.4776,371040.101,371806.346,372573.3302,373340.0676,374106.2307,374873.0087,375639.6605,374883.3539,Mapping
Blocked,Male,cave,11,M_greet.wav,None,718.74143,3410,369506.4109,376389.518,362539.6702,363305.9661,364072.8193,364839.3338,365606.0382,366373.041,370273.4776,371040.101,371806.346,372573.3302,373340.0676,374106.2307,374873.0087,375639.6605,375649.8753,Mapping
Blocked,Male,cave,11,M_cave.wav,None,735.6584603,3410,369506.4109,376389.518,377155.9702,363305.9661,364072.8193,364839.3338,365606.0382,366373.041,370273.4776,371040.101,371806.346,372573.3302,373340.0676,374106.2307,374873.0087,375639.6605,376399.2128,Mapping
Blocked,Male,cave,11,M_park.wav,None,735.608683,3410,369506.4109,376389.518,377155.9702,377922.2429,364072.8193,364839.3338,365606.0382,366373.041,370273.4776,371040.101,371806.346,372573.3302,373340.0676,374106.2307,374873.0087,375639.6605,377165.5381,Mapping
Blocked,Male,cave,11,M_knife.wav,None,735.7005076,3410,369506.4109,376389.518,377155.9702,377922.2429,378689.1087,364839.3338,365606.0382,366373.041,370273.4776,371040.101,371806.346,372573.3302,373340.0676,374106.2307,374873.0087,375639.6605,377931.7556,Mapping
Blocked,Male,cave,11,M_cling.wav,None,735.0002304,3410,369506.4109,376389.518,377155.9702,377922.2429,378689.1087,379455.7748,365606.0382,366373.041,370273.4776,371040.101,371806.346,372573.3302,373340.0676,374106.2307,374873.0087,375639.6605,378698.6776,Mapping
Blocked,Male,cave,11,M_cave.wav,None,734.9479799,3410,369506.4109,376389.518,377155.9702,377922.2429,378689.1087,379455.7748,380222.5082,366373.041,370273.4776,371040.101,371806.346,372573.3302,373340.0676,374106.2307,374873.0087,375639.6605,379465.0679,Mapping
Blocked,Male,cave,11,M_jolt.wav,None,733.8525797,3410,369506.4109,376389.518,377155.9702,377922.2429,378689.1087,379455.7748,380222.5082,380989.0958,370273.4776,371040.101,371806.346,372573.3302,373340.0676,374106.2307,374873.0087,375639.6605,380232.5415,Mapping
Blocked,Male,ball,1,M_lash.wav,None,733.8760765,3410,384123.1656,376389.518,377155.9702,377922.2429,378689.1087,379455.7748,380222.5082,380989.0958,370273.4776,371040.101,371806.346,372573.3302,373340.0676,374106.2307,374873.0087,375639.6605,380998.8258,Mapping
Blocked,Male,ball,1,M_greet.wav,None,722.1905664,3410,384123.1656,376389.518,377155.9702,377922.2429,378689.1087,379455.7748,380222.5082,380989.0958,384889.6885,371040.101,371806.346,372573.3302,373340.0676,374106.2307,374873.0087,375639.6605,384132.9272,Mapping
Blocked,Male,ball,1,M_cling.wav,None,722.1327508,3410,384123.1656,376389.518,377155.9702,377922.2429,378689.1087,379455.7748,380222.5082,380989.0958,384889.6885,385656.1085,371806.346,372573.3302,373340.0676,374106.2307,374873.0087,375639.6605,384899.6297,Mapping
Blocked,Male,ball,1,M_jolt.wav,None,722.4675859,3410,384123.1656,376389.518,377155.9702,377922.2429,378689.1087,379455.7748,380222.5082,380989.0958,384889.6885,385656.1085,386422.5362,372573.3302,373340.0676,374106.2307,374873.0087,375639.6605,385665.5952,Mapping
Blocked,Male,ball,1,M_jolt.wav,None,722.7257448,3410,384123.1656,376389.518,377155.9702,377922.2429,378689.1087,379455.7748,380222.5082,380989.0958,384889.6885,385656.1085,386422.5362,387189.5244,373340.0676,374106.2307,374873.0087,375639.6605,386431.8834,Mapping
Blocked,Male,ball,1,M_greet.wav,None,721.7818396,3410,384123.1656,376389.518,377155.9702,377922.2429,378689.1087,379455.7748,380222.5082,380989.0958,384889.6885,385656.1085,386422.5362,387189.5244,387955.8136,374106.2307,374873.0087,375639.6605,387200.0109,Mapping
Blocked,Male,ball,1,M_ball.wav,None,722.5219999,3410,384123.1656,376389.518,377155.9702,377922.2429,378689.1087,379455.7748,380222.5082,380989.0958,384889.6885,385656.1085,386422.5362,387189.5244,387955.8136,388722.8961,374873.0087,375639.6605,387965.7158,Mapping
Blocked,Male,ball,1,M_jolt.wav,None,720.9297582,3410,384123.1656,376389.518,377155.9702,377922.2429,378689.1087,379455.7748,380222.5082,380989.0958,384889.6885,385656.1085,386422.5362,387189.5244,387955.8136,388722.8961,389489.5588,375639.6605,388733.6593,Mapping
Blocked,Male,ball,1,M_depth.wav,None,721.1937918,3410,384123.1656,376389.518,377155.9702,377922.2429,378689.1087,379455.7748,380222.5082,380989.0958,384889.6885,385656.1085,386422.5362,387189.5244,387955.8136,388722.8961,389489.5588,390255.9373,389499.7964,Mapping
Blocked,Male,ball,1,M_ball.wav,None,721.8306884,3410,384123.1656,391022.4537,377155.9702,377922.2429,378689.1087,379455.7748,380222.5082,380989.0958,384889.6885,385656.1085,386422.5362,387189.5244,387955.8136,388722.8961,389489.5588,390255.9373,390265.7368,Mapping
Blocked,Male,ball,1,M_depth.wav,None,721.5388292,3410,384123.1656,391022.4537,391789.0332,377922.2429,378689.1087,379455.7748,380222.5082,380989.0958,384889.6885,385656.1085,386422.5362,387189.5244,387955.8136,388722.8961,389489.5588,390255.9373,391032.4582,Mapping
Blocked,Male,ball,1,M_ball.wav,None,721.8105923,3410,384123.1656,391022.4537,391789.0332,392556.0245,378689.1087,379455.7748,380222.5082,380989.0958,384889.6885,385656.1085,386422.5362,387189.5244,387955.8136,388722.8961,389489.5588,390255.9373,391798.7558,Mapping
Blocked,Male,ball,1,M_depth.wav,None,720.9891193,3410,384123.1656,391022.4537,391789.0332,392556.0245,393322.9929,379455.7748,380222.5082,380989.0958,384889.6885,385656.1085,386422.5362,387189.5244,387955.8136,388722.8961,389489.5588,390255.9373,392566.2297,Mapping
Blocked,Male,ball,1,M_ball.wav,None,720.8070164,3410,384123.1656,391022.4537,391789.0332,392556.0245,393322.9929,394089.5443,380222.5082,380989.0958,384889.6885,385656.1085,386422.5362,387189.5244,387955.8136,388722.8961,389489.5588,390255.9373,393333.0194,Mapping
Blocked,Male,ball,1,M_reek.wav,None,720.7000423,3410,384123.1656,391022.4537,391789.0332,392556.0245,393322.9929,394089.5443,394855.9992,380989.0958,384889.6885,385656.1085,386422.5362,387189.5244,387955.8136,388722.8961,389489.5588,390255.9373,394099.5887,Mapping
Blocked,Male,ball,1,M_jolt.wav,None,720.9767522,3410,384123.1656,391022.4537,391789.0332,392556.0245,393322.9929,394089.5443,394855.9992,395622.9324,384889.6885,385656.1085,386422.5362,387189.5244,387955.8136,388722.8961,389489.5588,390255.9373,394865.8649,Mapping
Blocked,Male,done,23,M_romp.wav,None,719.6454527,3410,398739.3073,391022.4537,391789.0332,392556.0245,393322.9929,394089.5443,394855.9992,395622.9324,384889.6885,385656.1085,386422.5362,387189.5244,387955.8136,388722.8961,389489.5588,390255.9373,395633.6155,Mapping
Blocked,Male,done,23,M_done.wav,None,721.5697467,3410,398739.3073,391022.4537,391789.0332,392556.0245,393322.9929,394089.5443,394855.9992,395622.9324,399505.9292,385656.1085,386422.5362,387189.5244,387955.8136,388722.8961,389489.5588,390255.9373,398749.3814,Mapping
Blocked,Male,done,23,M_park.wav,None,721.1514353,3410,398739.3073,391022.4537,391789.0332,392556.0245,393322.9929,394089.5443,394855.9992,395622.9324,399505.9292,400272.5148,386422.5362,387189.5244,387955.8136,388722.8961,389489.5588,390255.9373,399516.3109,Mapping
Blocked,Male,done,23,M_lash.wav,None,720.3843766,3410,398739.3073,391022.4537,391789.0332,392556.0245,393322.9929,394089.5443,394855.9992,395622.9324,399505.9292,400272.5148,401039.3921,387189.5244,387955.8136,388722.8961,389489.5588,390255.9373,400283.4565,Mapping
Blocked,Male,done,23,M_done.wav,None,720.9090437,3410,398739.3073,391022.4537,391789.0332,392556.0245,393322.9929,394089.5443,394855.9992,395622.9324,399505.9292,400272.5148,401039.3921,401805.6466,387955.8136,388722.8961,389489.5588,390255.9373,401049.4417,Mapping
Blocked,Male,done,23,M_jolt.wav,None,720.6261498,3410,398739.3073,391022.4537,391789.0332,392556.0245,393322.9929,394089.5443,394855.9992,395622.9324,399505.9292,400272.5148,401039.3921,401805.6466,402572.791,388722.8961,389489.5588,390255.9373,401816.1795,Mapping
Blocked,Male,done,23,M_done.wav,None,720.0968456,3410,398739.3073,391022.4537,391789.0332,392556.0245,393322.9929,394089.5443,394855.9992,395622.9324,399505.9292,400272.5148,401039.3921,401805.6466,402572.791,403339.1741,389489.5588,390255.9373,402583.1786,Mapping
Blocked,Male,done,23,M_cad.wav,None,720.3175952,3410,398739.3073,391022.4537,391789.0332,392556.0245,393322.9929,394089.5443,394855.9992,395622.9324,399505.9292,400272.5148,401039.3921,401805.6466,402572.791,403339.1741,404105.5381,390255.9373,403349.43,Mapping
Blocked,Male,done,23,M_depth.wav,None,720.3451116,3410,398739.3073,391022.4537,391789.0332,392556.0245,393322.9929,394089.5443,394855.9992,395622.9324,399505.9292,400272.5148,401039.3921,401805.6466,402572.791,403339.1741,404105.5381,404872.8541,404115.9217,Mapping
Blocked,Male,done,23,M_knife.wav,None,719.6463803,3410,398739.3073,405639.1927,391789.0332,392556.0245,393322.9929,394089.5443,394855.9992,395622.9324,399505.9292,400272.5148,401039.3921,401805.6466,402572.791,403339.1741,404105.5381,404872.8541,404883.0787,Mapping
Blocked,Male,done,23,M_gnash.wav,None,719.9286553,3410,398739.3073,405639.1927,406405.6526,392556.0245,393322.9929,394089.5443,394855.9992,395622.9324,399505.9292,400272.5148,401039.3921,401805.6466,402572.791,403339.1741,404105.5381,404872.8541,405649.2946,Mapping
Blocked,Male,done,23,M_depth.wav,None,719.4311954,3410,398739.3073,405639.1927,406405.6526,407172.5867,393322.9929,394089.5443,394855.9992,395622.9324,399505.9292,400272.5148,401039.3921,401805.6466,402572.791,403339.1741,404105.5381,404872.8541,406416.0578,Mapping
Blocked,Male,done,23,M_knife.wav,None,719.7672669,3410,398739.3073,405639.1927,406405.6526,407172.5867,407939.3059,394089.5443,394855.9992,395622.9324,399505.9292,400272.5148,401039.3921,401805.6466,402572.791,403339.1741,404105.5381,404872.8541,407182.7752,Mapping
Blocked,Male,done,23,M_priest.wav,None,719.4537651,3410,398739.3073,405639.1927,406405.6526,407172.5867,407939.3059,408705.9114,394855.9992,395622.9324,399505.9292,400272.5148,401039.3921,401805.6466,402572.791,403339.1741,404105.5381,404872.8541,407949.4387,Mapping
Blocked,Male,done,23,M_done.wav,None,719.3288594,3410,398739.3073,405639.1927,406405.6526,407172.5867,407939.3059,408705.9114,409472.6835,395622.9324,399505.9292,400272.5148,401039.3921,401805.6466,402572.791,403339.1741,404105.5381,404872.8541,408716.0863,Mapping
Blocked,Male,done,23,M_priest.wav,None,719.3038166,3410,398739.3073,405639.1927,406405.6526,407172.5867,407939.3059,408705.9114,409472.6835,410238.6721,399505.9292,400272.5148,401039.3921,401805.6466,402572.791,403339.1741,404105.5381,404872.8541,409482.6407,Mapping
Blocked,Male,tile,15,M_depth.wav,None,720.1558976,3410,413355.7829,405639.1927,406405.6526,407172.5867,407939.3059,408705.9114,409472.6835,410238.6721,399505.9292,400272.5148,401039.3921,401805.6466,402572.791,403339.1741,404105.5381,404872.8541,410248.3641,Mapping
Blocked,Male,tile,15,M_tile.wav,None,721.8303797,3410,413355.7829,405639.1927,406405.6526,407172.5867,407939.3059,408705.9114,409472.6835,410238.6721,414122.4796,400272.5148,401039.3921,401805.6466,402572.791,403339.1741,404105.5381,404872.8541,413366.0552,Mapping
Blocked,Male,tile,15,M_bluff.wav,None,721.9460104,3410,413355.7829,405639.1927,406405.6526,407172.5867,407939.3059,408705.9114,409472.6835,410238.6721,414122.4796,414889.0062,401039.3921,401805.6466,402572.791,403339.1741,404105.5381,404872.8541,414132.614,Mapping
Blocked,Male,tile,15,M_tile.wav,None,721.9725992,3410,413355.7829,405639.1927,406405.6526,407172.5867,407939.3059,408705.9114,409472.6835,410238.6721,414122.4796,414889.0062,415655.4812,401805.6466,402572.791,403339.1741,404105.5381,404872.8541,414899.4529,Mapping
Blocked,Male,tile,15,M_jolt.wav,None,722.8073669,3410,413355.7829,405639.1927,406405.6526,407172.5867,407939.3059,408705.9114,409472.6835,410238.6721,414122.4796,414889.0062,415655.4812,416421.9327,402572.791,403339.1741,404105.5381,404872.8541,415665.2909,Mapping
Blocked,Male,tile,15,M_park.wav,None,723.0624347,3410,413355.7829,405639.1927,406405.6526,407172.5867,407939.3059,408705.9114,409472.6835,410238.6721,414122.4796,414889.0062,415655.4812,416421.9327,417189.1676,403339.1741,404105.5381,404872.8541,416431.7598,Mapping
Blocked,Male,tile,15,M_bluff.wav,None,723.3329611,3410,413355.7829,405639.1927,406405.6526,407172.5867,407939.3059,408705.9114,409472.6835,410238.6721,414122.4796,414889.0062,415655.4812,416421.9327,417189.1676,417955.2088,404105.5381,404872.8541,417199.2297,Mapping
Blocked,Male,tile,15,M_jolt.wav,None,724.2592443,3410,413355.7829,405639.1927,406405.6526,407172.5867,407939.3059,408705.9114,409472.6835,410238.6721,414122.4796,414889.0062,415655.4812,416421.9327,417189.1676,417955.2088,418722.0984,404872.8541,417965.0384,Mapping
Blocked,Male,tile,15,M_tile.wav,None,724.641073,3410,413355.7829,405639.1927,406405.6526,407172.5867,407939.3059,408705.9114,409472.6835,410238.6721,414122.4796,414889.0062,415655.4812,416421.9327,417189.1676,417955.2088,418722.0984,419488.5524,418731.5291,Mapping
Blocked,Male,tile,15,M_jolt.wav,None,724.7189847,3410,413355.7829,420255.1204,406405.6526,407172.5867,407939.3059,408705.9114,409472.6835,410238.6721,414122.4796,414889.0062,415655.4812,416421.9327,417189.1676,417955.2088,418722.0984,419488.5524,419498.1377,Mapping
Blocked,Male,tile,15,M_greet.wav,None,725.403185,3410,413355.7829,420255.1204,421021.5432,407172.5867,407939.3059,408705.9114,409472.6835,410238.6721,414122.4796,414889.0062,415655.4812,416421.9327,417189.1676,417955.2088,418722.0984,419488.5524,420264.1737,Mapping
Blocked,Male,tile,15,M_tile.wav,None,724.9755985,3410,413355.7829,420255.1204,421021.5432,421788.1672,407939.3059,408705.9114,409472.6835,410238.6721,414122.4796,414889.0062,415655.4812,416421.9327,417189.1676,417955.2088,418722.0984,419488.5524,421031.2784,Mapping
Blocked,Male,tile,15,M_reek.wav,None,725.3605193,3410,413355.7829,420255.1204,421021.5432,421788.1672,422555.0636,408705.9114,409472.6835,410238.6721,414122.4796,414889.0062,415655.4812,416421.9327,417189.1676,417955.2088,418722.0984,419488.5524,421797.5905,Mapping
Blocked,Male,tile,15,M_greet.wav,None,725.131731,3410,413355.7829,420255.1204,421021.5432,421788.1672,422555.0636,423321.9993,409472.6835,410238.6721,414122.4796,414889.0062,415655.4812,416421.9327,417189.1676,417955.2088,418722.0984,419488.5524,422564.8257,Mapping
Blocked,Male,tile,15,M_reek.wav,None,724.6630248,3410,413355.7829,420255.1204,421021.5432,421788.1672,422555.0636,423321.9993,424088.4449,410238.6721,414122.4796,414889.0062,415655.4812,416421.9327,417189.1676,417955.2088,418722.0984,419488.5524,423331.9985,Mapping
Blocked,Male,tile,15,M_park.wav,None,725.0346504,3410,413355.7829,420255.1204,421021.5432,421788.1672,422555.0636,423321.9993,424088.4449,424855.0797,414122.4796,414889.0062,415655.4812,416421.9327,417189.1676,417955.2088,418722.0984,419488.5524,424098.3879,Mapping
Blocked,Male,cave,8,M_cling.wav,None,725.2164446,3410,427988.0446,420255.1204,421021.5432,421788.1672,422555.0636,423321.9993,424088.4449,424855.0797,414122.4796,414889.0062,415655.4812,416421.9327,417189.1676,417955.2088,418722.0984,419488.5524,424864.9235,Mapping
Blocked,Male,cave,8,M_jaw.wav,None,722.9780303,3410,427988.0446,420255.1204,421021.5432,421788.1672,422555.0636,423321.9993,424088.4449,424855.0797,428754.4985,414889.0062,415655.4812,416421.9327,417189.1676,417955.2088,418722.0984,419488.5524,427997.5665,Mapping
Blocked,Male,cave,8,M_cave.wav,None,727.7445537,3410,427988.0446,420255.1204,421021.5432,421788.1672,422555.0636,423321.9993,424088.4449,424855.0797,428754.4985,429521.8052,415655.4812,416421.9327,417189.1676,417955.2088,418722.0984,419488.5524,428763.5085,Mapping
Blocked,Male,cave,8,M_priest.wav,None,726.0413184,3410,427988.0446,420255.1204,421021.5432,421788.1672,422555.0636,423321.9993,424088.4449,424855.0797,428754.4985,429521.8052,430288.3754,416421.9327,417189.1676,417955.2088,418722.0984,419488.5524,429531.7594,Mapping
Blocked,Male,cave,8,M_depth.wav,None,726.4274759,3410,427988.0446,420255.1204,421021.5432,421788.1672,422555.0636,423321.9993,424088.4449,424855.0797,428754.4985,429521.8052,430288.3754,431054.6612,417189.1676,417955.2088,418722.0984,419488.5524,430297.9527,Mapping
Blocked,Male,cave,8,M_cave.wav,None,726.8708302,3410,427988.0446,420255.1204,421021.5432,421788.1672,422555.0636,423321.9993,424088.4449,424855.0797,428754.4985,429521.8052,430288.3754,431054.6612,431821.7487,417955.2088,418722.0984,419488.5524,431064.2873,Mapping
Blocked,Male,cave,8,M_greet.wav,None,726.2936039,3410,427988.0446,420255.1204,421021.5432,421788.1672,422555.0636,423321.9993,424088.4449,424855.0797,428754.4985,429521.8052,430288.3754,431054.6612,431821.7487,432588.0011,418722.0984,419488.5524,431831.4586,Mapping
Blocked,Male,cave,8,M_greet.wav,None,726.8083771,3410,427988.0446,420255.1204,421021.5432,421788.1672,422555.0636,423321.9993,424088.4449,424855.0797,428754.4985,429521.8052,430288.3754,431054.6612,431821.7487,432588.0011,433354.9178,419488.5524,432597.4358,Mapping
Blocked,Male,cave,8,M_jaw.wav,None,726.1210852,3410,427988.0446,420255.1204,421021.5432,421788.1672,422555.0636,423321.9993,424088.4449,424855.0797,428754.4985,429521.8052,430288.3754,431054.6612,431821.7487,432588.0011,433354.9178,434121.5882,433364.8306,Mapping
Blocked,Male,cave,8,M_cave.wav,None,726.2141462,3410,427988.0446,434888.2942,421021.5432,421788.1672,422555.0636,423321.9993,424088.4449,424855.0797,428754.4985,429521.8052,430288.3754,431054.6612,431821.7487,432588.0011,433354.9178,434121.5882,434131.3575,Mapping
Blocked,Male,cave,8,M_lash.wav,None,725.5670466,3410,427988.0446,434888.2942,435654.9596,421788.1672,422555.0636,423321.9993,424088.4449,424855.0797,428754.4985,429521.8052,430288.3754,431054.6612,431821.7487,432588.0011,433354.9178,434121.5882,434898.7043,Mapping
Blocked,Male,cave,8,M_cling.wav,None,726.0994432,3410,427988.0446,434888.2942,435654.9596,436421.6272,422555.0636,423321.9993,424088.4449,424855.0797,428754.4985,429521.8052,430288.3754,431054.6612,431821.7487,432588.0011,433354.9178,434121.5882,435664.732,Mapping
Blocked,Male,cave,8,M_cave.wav,None,726.053067,3410,427988.0446,434888.2942,435654.9596,436421.6272,437188.3783,423321.9993,424088.4449,424855.0797,428754.4985,429521.8052,430288.3754,431054.6612,431821.7487,432588.0011,433354.9178,434121.5882,436431.3674,Mapping
Blocked,Male,cave,8,M_lash.wav,None,725.9040456,3410,427988.0446,434888.2942,435654.9596,436421.6272,437188.3783,437954.8329,424088.4449,424855.0797,428754.4985,429521.8052,430288.3754,431054.6612,431821.7487,432588.0011,433354.9178,434121.5882,437198.1145,Mapping
Blocked,Male,cave,8,M_reek.wav,None,725.9658803,3410,427988.0446,434888.2942,435654.9596,436421.6272,437188.3783,437954.8329,438721.6702,424855.0797,428754.4985,429521.8052,430288.3754,431054.6612,431821.7487,432588.0011,433354.9178,434121.5882,437964.8022,Mapping
Blocked,Male,cave,8,M_romp.wav,None,725.9259969,3410,427988.0446,434888.2942,435654.9596,436421.6272,437188.3783,437954.8329,438721.6702,439488.3799,428754.4985,429521.8052,430288.3754,431054.6612,431821.7487,432588.0011,433354.9178,434121.5882,438731.45,Mapping
Blocked,Male,done,20,M_depth.wav,None,724.8404897,3410,442622.0212,434888.2942,435654.9596,436421.6272,437188.3783,437954.8329,438721.6702,439488.3799,428754.4985,429521.8052,430288.3754,431054.6612,431821.7487,432588.0011,433354.9178,434121.5882,439499.2099,Mapping
Blocked,Male,done,20,M_romp.wav,None,722.3637034,3410,442622.0212,434888.2942,435654.9596,436421.6272,437188.3783,437954.8329,438721.6702,439488.3799,443388.6938,429521.8052,430288.3754,431054.6612,431821.7487,432588.0011,433354.9178,434121.5882,442631.8554,Mapping
Blocked,Male,done,20,M_done.wav,space,281.8376515,3410,442622.0212,434888.2942,435654.9596,436421.6272,437188.3783,437954.8329,438721.6702,439488.3799,443388.6938,444155.2825,430288.3754,431054.6612,431821.7487,432588.0011,433354.9178,434121.5882,443398.877,Mapping
Blocked,Male,done,20,M_dime.wav,None,721.1684394,3410,442622.0212,434888.2942,435654.9596,436421.6272,437188.3783,437954.8329,438721.6702,439488.3799,443388.6938,444155.2825,444921.8772,431054.6612,431821.7487,432588.0011,433354.9178,434121.5882,444165.4605,Mapping
Blocked,Male,done,20,M_greet.wav,None,721.1381407,3410,442622.0212,434888.2942,435654.9596,436421.6272,437188.3783,437954.8329,438721.6702,439488.3799,443388.6938,444155.2825,444921.8772,445688.691,431821.7487,432588.0011,433354.9178,434121.5882,444932.1897,Mapping
Blocked,Male,done,20,M_jaw.wav,None,721.4429858,3410,442622.0212,434888.2942,435654.9596,436421.6272,437188.3783,437954.8329,438721.6702,439488.3799,443388.6938,444155.2825,444921.8772,445688.691,446455.0779,432588.0011,433354.9178,434121.5882,445698.7491,Mapping
Blocked,Male,done,20,M_reek.wav,None,722.3692685,3410,442622.0212,434888.2942,435654.9596,436421.6272,437188.3783,437954.8329,438721.6702,439488.3799,443388.6938,444155.2825,444921.8772,445688.691,446455.0779,447221.6831,433354.9178,434121.5882,446464.939,Mapping
Blocked,Male,done,20,M_done.wav,None,722.2363241,3410,442622.0212,434888.2942,435654.9596,436421.6272,437188.3783,437954.8329,438721.6702,439488.3799,443388.6938,444155.2825,444921.8772,445688.691,446455.0779,447221.6831,447988.5618,434121.5882,447232.1374,Mapping
Blocked,Male,done,20,M_knife.wav,None,722.6481424,3410,442622.0212,434888.2942,435654.9596,436421.6272,437188.3783,437954.8329,438721.6702,439488.3799,443388.6938,444155.2825,444921.8772,445688.691,446455.0779,447221.6831,447988.5618,448755.0436,447998.5679,Mapping
Blocked,Male,done,20,M_done.wav,None,722.7306915,3410,442622.0212,449521.8083,435654.9596,436421.6272,437188.3783,437954.8329,438721.6702,439488.3799,443388.6938,444155.2825,444921.8772,445688.691,446455.0779,447221.6831,447988.5618,448755.0436,448765.2303,Mapping
Blocked,Male,done,20,M_romp.wav,None,722.8555982,3410,442622.0212,449521.8083,450288.0709,436421.6272,437188.3783,437954.8329,438721.6702,439488.3799,443388.6938,444155.2825,444921.8772,445688.691,446455.0779,447221.6831,447988.5618,448755.0436,449531.939,Mapping
Blocked,Male,done,20,M_lash.wav,None,723.8934925,3410,442622.0212,449521.8083,450288.0709,451054.2846,437188.3783,437954.8329,438721.6702,439488.3799,443388.6938,444155.2825,444921.8772,445688.691,446455.0779,447221.6831,447988.5618,448755.0436,450297.6951,Mapping
Blocked,Male,done,20,M_depth.wav,None,724.5136937,3410,442622.0212,449521.8083,450288.0709,451054.2846,451821.7836,437954.8329,438721.6702,439488.3799,443388.6938,444155.2825,444921.8772,445688.691,446455.0779,447221.6831,447988.5618,448755.0436,451063.8542,Mapping
Blocked,Male,done,20,M_greet.wav,None,723.3465649,3410,442622.0212,449521.8083,450288.0709,451054.2846,451821.7836,452587.9584,438721.6702,439488.3799,443388.6938,444155.2825,444921.8772,445688.691,446455.0779,447221.6831,447988.5618,448755.0436,451831.8262,Mapping
Blocked,Male,done,20,M_done.wav,None,724.2023568,3410,442622.0212,449521.8083,450288.0709,451054.2846,451821.7836,452587.9584,453354.5975,439488.3799,443388.6938,444155.2825,444921.8772,445688.691,446455.0779,447221.6831,447988.5618,448755.0436,452597.7385,Mapping
Blocked,Male,done,20,M_knife.wav,None,724.4450571,3410,442622.0212,449521.8083,450288.0709,451054.2846,451821.7836,452587.9584,453354.5975,454121.3118,443388.6938,444155.2825,444921.8772,445688.691,446455.0779,447221.6831,447988.5618,448755.0436,453364.3649,Mapping
Blocked,Male,tile,18,M_greet.wav,None,724.4809214,3410,457254.828,449521.8083,450288.0709,451054.2846,451821.7836,452587.9584,453354.5975,454121.3118,443388.6938,444155.2825,444921.8772,445688.691,446455.0779,447221.6831,447988.5618,448755.0436,454131.2465,Mapping
Blocked,Male,tile,18,M_greet.wav,None,722.0359794,3410,457254.828,449521.8083,450288.0709,451054.2846,451821.7836,452587.9584,453354.5975,454121.3118,458021.7547,444155.2825,444921.8772,445688.691,446455.0779,447221.6831,447988.5618,448755.0436,457264.9908,Mapping
Blocked,Male,tile,18,M_bluff.wav,None,721.9382813,3410,457254.828,449521.8083,450288.0709,451054.2846,451821.7836,452587.9584,453354.5975,454121.3118,458021.7547,458788.1641,444921.8772,445688.691,446455.0779,447221.6831,447988.5618,448755.0436,458032.0285,Mapping
Blocked,Male,tile,18,M_park.wav,None,722.5331301,3410,457254.828,449521.8083,450288.0709,451054.2846,451821.7836,452587.9584,453354.5975,454121.3118,458021.7547,458788.1641,459554.7288,445688.691,446455.0779,447221.6831,447988.5618,448755.0436,458798.3866,Mapping
Blocked,Male,tile,18,M_cling.wav,None,723.5119725,3410,457254.828,449521.8083,450288.0709,451054.2846,451821.7836,452587.9584,453354.5975,454121.3118,458021.7547,458788.1641,459554.7288,460321.5908,446455.0779,447221.6831,447988.5618,448755.0436,459564.3481,Mapping
Blocked,Male,tile,18,M_park.wav,None,722.1772717,3410,457254.828,449521.8083,450288.0709,451054.2846,451821.7836,452587.9584,453354.5975,454121.3118,458021.7547,458788.1641,459554.7288,460321.5908,461087.4951,447221.6831,447988.5618,448755.0436,460332.4082,Mapping
Blocked,Male,tile,18,M_tile.wav,None,725.1530639,3410,457254.828,449521.8083,450288.0709,451054.2846,451821.7836,452587.9584,453354.5975,454121.3118,458021.7547,458788.1641,459554.7288,460321.5908,461087.4951,461854.4045,447988.5618,448755.0436,461096.3968,Mapping
Blocked,Male,tile,18,M_jolt.wav,None,724.3223158,3410,457254.828,449521.8083,450288.0709,451054.2846,451821.7836,452587.9584,453354.5975,454121.3118,458021.7547,458788.1641,459554.7288,460321.5908,461087.4951,461854.4045,462621.1753,448755.0436,461864.1793,Mapping
Blocked,Male,tile,18,M_tile.wav,None,724.7622688,3410,457254.828,449521.8083,450288.0709,451054.2846,451821.7836,452587.9584,453354.5975,454121.3118,458021.7547,458788.1641,459554.7288,460321.5908,461087.4951,461854.4045,462621.1753,463387.7304,462630.8116,Mapping
Blocked,Male,tile,18,M_gnash.wav,None,724.8717165,3410,457254.828,464154.2119,450288.0709,451054.2846,451821.7836,452587.9584,453354.5975,454121.3118,458021.7547,458788.1641,459554.7288,460321.5908,461087.4951,461854.4045,462621.1753,463387.7304,463397.6175,Mapping
Blocked,Male,tile,18,M_greet.wav,None,725.87993,3410,457254.828,464154.2119,464921.0619,451054.2846,451821.7836,452587.9584,453354.5975,454121.3118,458021.7547,458788.1641,459554.7288,460321.5908,461087.4951,461854.4045,462621.1753,463387.7304,464163.6135,Mapping
Blocked,Male,tile,18,M_tile.wav,None,725.2467433,3410,457254.828,464154.2119,464921.0619,465687.651,451821.7836,452587.9584,453354.5975,454121.3118,458021.7547,458788.1641,459554.7288,460321.5908,461087.4951,461854.4045,462621.1753,463387.7304,464931.2334,Mapping
Blocked,Male,tile,18,M_dime.wav,None,726.2543389,3410,457254.828,464154.2119,464921.0619,465687.651,466454.2815,452587.9584,453354.5975,454121.3118,458021.7547,458788.1641,459554.7288,460321.5908,461087.4951,461854.4045,462621.1753,463387.7304,465697.1877,Mapping
Blocked,Male,tile,18,M_romp.wav,None,726.2735073,3410,457254.828,464154.2119,464921.0619,465687.651,466454.2815,467220.7076,453354.5975,454121.3118,458021.7547,458788.1641,459554.7288,460321.5908,461087.4951,461854.4045,462621.1753,463387.7304,466464.1354,Mapping
Blocked,Male,tile,18,M_tile.wav,None,727.2557509,3410,457254.828,464154.2119,464921.0619,465687.651,466454.2815,467220.7076,467987.672,454121.3118,458021.7547,458788.1641,459554.7288,460321.5908,461087.4951,461854.4045,462621.1753,463387.7304,467230.1631,Mapping
Blocked,Male,tile,18,M_jaw.wav,None,726.7669481,3410,457254.828,464154.2119,464921.0619,465687.651,466454.2815,467220.7076,467987.672,468754.1331,458021.7547,458788.1641,459554.7288,460321.5908,461087.4951,461854.4045,462621.1753,463387.7304,467997.5931,Mapping
Blocked,Male,done,22,M_jolt.wav,None,727.1490861,3410,471888.0082,464154.2119,464921.0619,465687.651,466454.2815,467220.7076,467987.672,468754.1331,458021.7547,458788.1641,459554.7288,460321.5908,461087.4951,461854.4045,462621.1753,463387.7304,468764.2567,Mapping
Blocked,Male,done,22,M_lash.wav,None,721.7580331,3410,471888.0082,464154.2119,464921.0619,465687.651,466454.2815,467220.7076,467987.672,468754.1331,472654.4096,458788.1641,459554.7288,460321.5908,461087.4951,461854.4045,462621.1753,463387.7304,471898.1716,Mapping
Blocked,Male,done,22,M_done.wav,None,721.9042722,3410,471888.0082,464154.2119,464921.0619,465687.651,466454.2815,467220.7076,467987.672,468754.1331,472654.4096,473421.4328,459554.7288,460321.5908,461087.4951,461854.4045,462621.1753,463387.7304,472665.0173,Mapping
Blocked,Male,done,22,M_depth.wav,None,722.1265673,3410,471888.0082,464154.2119,464921.0619,465687.651,466454.2815,467220.7076,467987.672,468754.1331,472654.4096,473421.4328,474187.5213,460321.5908,461087.4951,461854.4045,462621.1753,463387.7304,473431.6345,Mapping
Blocked,Male,done,22,M_done.wav,None,724.357252,3410,471888.0082,464154.2119,464921.0619,465687.651,466454.2815,467220.7076,467987.672,468754.1331,472654.4096,473421.4328,474187.5213,474954.2405,461087.4951,461854.4045,462621.1753,463387.7304,474197.2677,Mapping
Blocked,Male,done,22,M_cling.wav,None,724.4243431,3410,471888.0082,464154.2119,464921.0619,465687.651,466454.2815,467220.7076,467987.672,468754.1331,472654.4096,473421.4328,474187.5213,474954.2405,475720.952,461854.4045,462621.1753,463387.7304,474964.0762,Mapping
Blocked,Male,done,22,M_greet.wav,None,724.2246168,3410,471888.0082,464154.2119,464921.0619,465687.651,466454.2815,467220.7076,467987.672,468754.1331,472654.4096,473421.4328,474187.5213,474954.2405,475720.952,476487.3605,462621.1753,463387.7304,475731.1312,Mapping
Blocked,Male,done,22,M_done.wav,None,725.7284354,3410,471888.0082,464154.2119,464921.0619,465687.651,466454.2815,467220.7076,467987.672,468754.1331,472654.4096,473421.4328,474187.5213,474954.2405,475720.952,476487.3605,477254.2177,463387.7304,476496.8426,Mapping
Blocked,Male,done,22,M_romp.wav,None,725.82397,3410,471888.0082,464154.2119,464921.0619,465687.651,466454.2815,467220.7076,467987.672,468754.1331,472654.4096,473421.4328,474187.5213,474954.2405,475720.952,476487.3605,477254.2177,478020.7746,477264.0197,Mapping
Blocked,Male,done,22,M_lash.wav,None,726.2617592,3410,471888.0082,478787.4972,464921.0619,465687.651,466454.2815,467220.7076,467987.672,468754.1331,472654.4096,473421.4328,474187.5213,474954.2405,475720.952,476487.3605,477254.2177,478020.7746,478030.5377,Mapping
Blocked,Male,done,22,M_greet.wav,None,707.1517636,3410,471888.0082,478787.4972,479553.9113,465687.651,466454.2815,467220.7076,467987.672,468754.1331,472654.4096,473421.4328,474187.5213,474954.2405,475720.952,476487.3605,477254.2177,478020.7746,478816.4841,Mapping
Blocked,Male,done,22,M_done.wav,None,717.7125015,3410,471888.0082,478787.4972,479553.9113,480320.9462,466454.2815,467220.7076,467987.672,468754.1331,472654.4096,473421.4328,474187.5213,474954.2405,475720.952,476487.3605,477254.2177,478020.7746,479572.8615,Mapping
Blocked,Male,done,22,M_lash.wav,None,727.1348638,3410,471888.0082,478787.4972,479553.9113,480320.9462,481087.4741,467220.7076,467987.672,468754.1331,472654.4096,473421.4328,474187.5213,474954.2405,475720.952,476487.3605,477254.2177,478020.7746,480330.4245,Mapping
Blocked,Male,done,22,M_park.wav,None,727.5129827,3410,471888.0082,478787.4972,479553.9113,480320.9462,481087.4741,481854.0693,467987.672,468754.1331,472654.4096,473421.4328,474187.5213,474954.2405,475720.952,476487.3605,477254.2177,478020.7746,481097.0637,Mapping
Blocked,Male,done,22,M_jolt.wav,None,727.6456184,3410,471888.0082,478787.4972,479553.9113,480320.9462,481087.4741,481854.0693,482620.919,468754.1331,472654.4096,473421.4328,474187.5213,474954.2405,475720.952,476487.3605,477254.2177,478020.7746,481864.0742,Mapping
Blocked,Male,done,22,M_gnash.wav,None,728.9348706,3410,471888.0082,478787.4972,479553.9113,480320.9462,481087.4741,481854.0693,482620.919,483387.3962,472654.4096,473421.4328,474187.5213,474954.2405,475720.952,476487.3605,477254.2177,478020.7746,482630.0433,Mapping
Blocked,Male,cave,9,M_jolt.wav,None,729.1302681,3410,486521.313,478787.4972,479553.9113,480320.9462,481087.4741,481854.0693,482620.919,483387.3962,472654.4096,473421.4328,474187.5213,474954.2405,475720.952,476487.3605,477254.2177,478020.7746,483396.9815,Mapping
Blocked,Male,cave,9,M_cave.wav,None,722.6203168,3410,486521.313,478787.4972,479553.9113,480320.9462,481087.4741,481854.0693,482620.919,483387.3962,487287.4995,473421.4328,474187.5213,474954.2405,475720.952,476487.3605,477254.2177,478020.7746,486530.9314,Mapping
Blocked,Male,cave,9,M_bluff.wav,None,722.9554607,3410,486521.313,478787.4972,479553.9113,480320.9462,481087.4741,481854.0693,482620.919,483387.3962,487287.4995,488054.156,474187.5213,474954.2405,475720.952,476487.3605,477254.2177,478020.7746,487297.6432,Mapping
Blocked,Male,cave,9,M_cave.wav,None,723.5472184,3410,486521.313,478787.4972,479553.9113,480320.9462,481087.4741,481854.0693,482620.919,483387.3962,487287.4995,488054.156,488820.6944,474954.2405,475720.952,476487.3605,477254.2177,478020.7746,488064.0947,Mapping
Blocked,Male,cave,9,M_depth.wav,None,724.3328276,3410,486521.313,478787.4972,479553.9113,480320.9462,481087.4741,481854.0693,482620.919,483387.3962,487287.4995,488054.156,488820.6944,489587.4312,475720.952,476487.3605,477254.2177,478020.7746,488830.3084,Mapping
Blocked,Male,cave,9,M_jolt.wav,None,724.8315238,3410,486521.313,478787.4972,479553.9113,480320.9462,481087.4741,481854.0693,482620.919,483387.3962,487287.4995,488054.156,488820.6944,489587.4312,490353.8407,476487.3605,477254.2177,478020.7746,489596.8181,Mapping
Blocked,Male,cave,9,M_knife.wav,None,725.3997838,3410,486521.313,478787.4972,479553.9113,480320.9462,481087.4741,481854.0693,482620.919,483387.3962,487287.4995,488054.156,488820.6944,489587.4312,490353.8407,491120.7226,477254.2177,478020.7746,490363.3221,Mapping
Blocked,Male,cave,9,M_cave.wav,None,730.9723217,3410,486521.313,478787.4972,479553.9113,480320.9462,481087.4741,481854.0693,482620.919,483387.3962,487287.4995,488054.156,488820.6944,489587.4312,490353.8407,491120.7226,491887.0244,478020.7746,491124.8862,Mapping
Blocked,Male,cave,9,M_priest.wav,None,726.7796239,3410,486521.313,478787.4972,479553.9113,480320.9462,481087.4741,481854.0693,482620.919,483387.3962,487287.4995,488054.156,488820.6944,489587.4312,490353.8407,491120.7226,491887.0244,492653.7282,491896.1348,Mapping
Blocked,Male,cave,9,M_reek.wav,None,727.2121576,3410,486521.313,493420.2186,479553.9113,480320.9462,481087.4741,481854.0693,482620.919,483387.3962,487287.4995,488054.156,488820.6944,489587.4312,490353.8407,491120.7226,491887.0244,492653.7282,492662.7523,Mapping
Blocked,Male,cave,9,M_cave.wav,None,727.5055628,3410,486521.313,493420.2186,494187.1218,480320.9462,481087.4741,481854.0693,482620.919,483387.3962,487287.4995,488054.156,488820.6944,489587.4312,490353.8407,491120.7226,491887.0244,492653.7282,493429.4972,Mapping
Blocked,Male,cave,9,M_cad.wav,None,727.7423893,3410,486521.313,493420.2186,494187.1218,494953.7551,481087.4741,481854.0693,482620.919,483387.3962,487287.4995,488054.156,488820.6944,489587.4312,490353.8407,491120.7226,491887.0244,492653.7282,494196.3268,Mapping
Blocked,Male,cave,9,M_park.wav,None,727.9445888,3410,486521.313,493420.2186,494187.1218,494953.7551,495720.5544,481854.0693,482620.919,483387.3962,487287.4995,488054.156,488820.6944,489587.4312,490353.8407,491120.7226,491887.0244,492653.7282,494963.2405,Mapping
Blocked,Male,cave,9,M_depth.wav,None,727.9922012,3410,486521.313,493420.2186,494187.1218,494953.7551,495720.5544,496487.2245,482620.919,483387.3962,487287.4995,488054.156,488820.6944,489587.4312,490353.8407,491120.7226,491887.0244,492653.7282,495730.2934,Mapping
Blocked,Male,cave,9,M_gnash.wav,None,728.5085204,3410,486521.313,493420.2186,494187.1218,494953.7551,495720.5544,496487.2245,497253.6426,483387.3962,487287.4995,488054.156,488820.6944,489587.4312,490353.8407,491120.7226,491887.0244,492653.7282,496496.9007,Mapping
Blocked,Male,cave,9,M_cling.wav,None,729.1281037,3410,486521.313,493420.2186,494187.1218,494953.7551,495720.5544,496487.2245,497253.6426,498020.3835,487287.4995,488054.156,488820.6944,489587.4312,490353.8407,491120.7226,491887.0244,492653.7282,497263.2149,Mapping
Blocked,Male,cave,12,M_greet.wav,None,729.2916565,3410,501154.0706,493420.2186,494187.1218,494953.7551,495720.5544,496487.2245,497253.6426,498020.3835,487287.4995,488054.156,488820.6944,489587.4312,490353.8407,491120.7226,491887.0244,492653.7282,498030.1286,Mapping
Blocked,Male,cave,12,M_cave.wav,None,721.9163296,3410,501154.0706,493420.2186,494187.1218,494953.7551,495720.5544,496487.2245,497253.6426,498020.3835,501920.988,488054.156,488820.6944,489587.4312,490353.8407,491120.7226,491887.0244,492653.7282,501164.1104,Mapping
Blocked,Male,cave,12,M_jolt.wav,None,721.8653164,3410,501154.0706,493420.2186,494187.1218,494953.7551,495720.5544,496487.2245,497253.6426,498020.3835,501920.988,502687.5357,488820.6944,489587.4312,490353.8407,491120.7226,491887.0244,492653.7282,501931.1685,Mapping
Blocked,Male,cave,12,M_depth.wav,None,722.7257453,3410,501154.0706,493420.2186,494187.1218,494953.7551,495720.5544,496487.2245,497253.6426,498020.3835,501920.988,502687.5357,503454.0836,489587.4312,490353.8407,491120.7226,491887.0244,492653.7282,502697.6005,Mapping
Blocked,Male,cave,12,M_priest.wav,None,723.4213846,3410,501154.0706,493420.2186,494187.1218,494953.7551,495720.5544,496487.2245,497253.6426,498020.3835,501920.988,502687.5357,503454.0836,504220.4974,490353.8407,491120.7226,491887.0244,492653.7282,503463.9515,Mapping
Blocked,Male,cave,12,M_cave.wav,None,724.8395626,3410,501154.0706,493420.2186,494187.1218,494953.7551,495720.5544,496487.2245,497253.6426,498020.3835,501920.988,502687.5357,503454.0836,504220.4974,504987.2083,491120.7226,491887.0244,492653.7282,504229.5902,Mapping
Blocked,Male,cave,12,M_lash.wav,None,724.6583872,3410,501154.0706,493420.2186,494187.1218,494953.7551,495720.5544,496487.2245,497253.6426,498020.3835,501920.988,502687.5357,503454.0836,504220.4974,504987.2083,505753.5148,491887.0244,492653.7282,504996.7732,Mapping
Blocked,Male,cave,12,M_greet.wav,None,725.4353394,3410,501154.0706,493420.2186,494187.1218,494953.7551,495720.5544,496487.2245,497253.6426,498020.3835,501920.988,502687.5357,503454.0836,504220.4974,504987.2083,505753.5148,506520.4365,492653.7282,505762.9974,Mapping
Blocked,Male,cave,12,M_gnash.wav,None,724.9960038,3410,501154.0706,493420.2186,494187.1218,494953.7551,495720.5544,496487.2245,497253.6426,498020.3835,501920.988,502687.5357,503454.0836,504220.4974,504987.2083,505753.5148,506520.4365,507286.914,506530.5786,Mapping
Blocked,Male,cave,12,M_cave.wav,None,726.7635469,3410,501154.0706,508053.6539,494187.1218,494953.7551,495720.5544,496487.2245,497253.6426,498020.3835,501920.988,502687.5357,503454.0836,504220.4974,504987.2083,505753.5148,506520.4365,507286.914,507296.1848,Mapping
Blocked,Male,cave,12,M_park.wav,None,726.9122591,3410,501154.0706,508053.6539,508820.2566,494953.7551,495720.5544,496487.2245,497253.6426,498020.3835,501920.988,502687.5357,503454.0836,504220.4974,504987.2083,505753.5148,506520.4365,507286.914,508063.1786,Mapping
Blocked,Male,cave,12,M_greet.wav,None,727.8629672,3410,501154.0706,508053.6539,508820.2566,509586.9106,495720.5544,496487.2245,497253.6426,498020.3835,501920.988,502687.5357,503454.0836,504220.4974,504987.2083,505753.5148,506520.4365,507286.914,508829.4097,Mapping
Blocked,Male,cave,12,M_park.wav,None,727.9365505,3410,501154.0706,508053.6539,508820.2566,509586.9106,510353.5494,496487.2245,497253.6426,498020.3835,501920.988,502687.5357,503454.0836,504220.4974,504987.2083,505753.5148,506520.4365,507286.914,509596.5775,Mapping
Blocked,Male,cave,12,M_bluff.wav,None,728.648576,3410,501154.0706,508053.6539,508820.2566,509586.9106,510353.5494,511120.3837,497253.6426,498020.3835,501920.988,502687.5357,503454.0836,504220.4974,504987.2083,505753.5148,506520.4365,507286.914,510362.9468,Mapping
Blocked,Male,cave,12,M_cave.wav,None,728.7240145,3410,501154.0706,508053.6539,508820.2566,509586.9106,510353.5494,511120.3837,511886.9684,498020.3835,501920.988,502687.5357,503454.0836,504220.4974,504987.2083,505753.5148,506520.4365,507286.914,511129.8886,Mapping
Blocked,Male,cave,12,M_depth.wav,None,729.0436993,3410,501154.0706,508053.6539,508820.2566,509586.9106,510353.5494,511120.3837,511886.9684,512653.5186,501920.988,502687.5357,503454.0836,504220.4974,504987.2083,505753.5148,506520.4365,507286.914,511896.486,Mapping
Blocked,Male,ball,6,M_depth.wav,None,729.6994557,3410,515787.0307,508053.6539,508820.2566,509586.9106,510353.5494,511120.3837,511886.9684,512653.5186,501920.988,502687.5357,503454.0836,504220.4974,504987.2083,505753.5148,506520.4365,507286.914,512663.0315,Mapping
Blocked,Male,ball,6,M_park.wav,None,721.8841757,3410,515787.0307,508053.6539,508820.2566,509586.9106,510353.5494,511120.3837,511886.9684,512653.5186,516553.7045,502687.5357,503454.0836,504220.4974,504987.2083,505753.5148,506520.4365,507286.914,515797.0964,Mapping
Blocked,Male,ball,6,M_knife.wav,None,722.2289038,3410,515787.0307,508053.6539,508820.2566,509586.9106,510353.5494,511120.3837,511886.9684,512653.5186,516553.7045,517320.6918,503454.0836,504220.4974,504987.2083,505753.5148,506520.4365,507286.914,516564.0188,Mapping
Blocked,Male,ball,6,M_lash.wav,None,722.8324097,3410,515787.0307,508053.6539,508820.2566,509586.9106,510353.5494,511120.3837,511886.9684,512653.5186,516553.7045,517320.6918,518086.4461,504220.4974,504987.2083,505753.5148,506520.4365,507286.914,517330.5392,Mapping
Blocked,Male,ball,6,M_romp.wav,None,724.9885839,3410,515787.0307,508053.6539,508820.2566,509586.9106,510353.5494,511120.3837,511886.9684,512653.5186,516553.7045,517320.6918,518086.4461,518853.3264,504987.2083,505753.5148,506520.4365,507286.914,518095.5089,Mapping
Blocked,Male,ball,6,M_ball.wav,None,725.1394601,3410,515787.0307,508053.6539,508820.2566,509586.9106,510353.5494,511120.3837,511886.9684,512653.5186,516553.7045,517320.6918,518086.4461,518853.3264,519620.1013,505753.5148,506520.4365,507286.914,518862.3474,Mapping
Blocked,Male,ball,6,M_reek.wav,None,725.4912998,3410,515787.0307,508053.6539,508820.2566,509586.9106,510353.5494,511120.3837,511886.9684,512653.5186,516553.7045,517320.6918,518086.4461,518853.3264,519620.1013,520386.7086,506520.4365,507286.914,519629.2627,Mapping
Blocked,Male,ball,6,M_ball.wav,None,725.8187141,3410,515787.0307,508053.6539,508820.2566,509586.9106,510353.5494,511120.3837,511886.9684,512653.5186,516553.7045,517320.6918,518086.4461,518853.3264,519620.1013,520386.7086,521153.3199,507286.914,520396.3375,Mapping
Blocked,Male,ball,6,M_jolt.wav,None,727.1209513,3410,515787.0307,508053.6539,508820.2566,509586.9106,510353.5494,511120.3837,511886.9684,512653.5186,516553.7045,517320.6918,518086.4461,518853.3264,519620.1013,520386.7086,521153.3199,521920.0429,521162.3002,Mapping
Blocked,Male,ball,6,M_ball.wav,None,726.9657464,3410,515787.0307,522686.6978,508820.2566,509586.9106,510353.5494,511120.3837,511886.9684,512653.5186,516553.7045,517320.6918,518086.4461,518853.3264,519620.1013,520386.7086,521153.3199,521920.0429,521929.6532,Mapping
Blocked,Male,ball,6,M_dime.wav,None,727.9028506,3410,515787.0307,522686.6978,523453.2507,509586.9106,510353.5494,511120.3837,511886.9684,512653.5186,516553.7045,517320.6918,518086.4461,518853.3264,519620.1013,520386.7086,521153.3199,521920.0429,522695.9625,Mapping
Blocked,Male,ball,6,M_gnash.wav,None,728.3462044,3410,515787.0307,522686.6978,523453.2507,524219.5646,510353.5494,511120.3837,511886.9684,512653.5186,516553.7045,517320.6918,518086.4461,518853.3264,519620.1013,520386.7086,521153.3199,521920.0429,523462.5791,Mapping
Blocked,Male,ball,6,M_greet.wav,None,733.1427177,3410,515787.0307,522686.6978,523453.2507,524219.5646,524986.6261,511120.3837,511886.9684,512653.5186,516553.7045,517320.6918,518086.4461,518853.3264,519620.1013,520386.7086,521153.3199,521920.0429,524228.3436,Mapping
Blocked,Male,ball,6,M_ball.wav,None,732.4467688,3410,515787.0307,522686.6978,523453.2507,524219.5646,524986.6261,525753.2189,511886.9684,512653.5186,516553.7045,517320.6918,518086.4461,518853.3264,519620.1013,520386.7086,521153.3199,521920.0429,524996.2315,Mapping
Blocked,Male,ball,6,M_dime.wav,None,733.343062,3410,515787.0307,522686.6978,523453.2507,524219.5646,524986.6261,525753.2189,526519.5668,512653.5186,516553.7045,517320.6918,518086.4461,518853.3264,519620.1013,520386.7086,521153.3199,521920.0429,525762.5667,Mapping
Blocked,Male,ball,6,M_bluff.wav,None,734.7961757,3410,515787.0307,522686.6978,523453.2507,524219.5646,524986.6261,525753.2189,526519.5668,527286.4638,516553.7045,517320.6918,518086.4461,518853.3264,519620.1013,520386.7086,521153.3199,521920.0429,526528.4401,Mapping
Blocked,Male,done,19,M_dime.wav,None,734.7365054,3410,530420.4663,522686.6978,523453.2507,524219.5646,524986.6261,525753.2189,526519.5668,527286.4638,516553.7045,517320.6918,518086.4461,518853.3264,519620.1013,520386.7086,521153.3199,521920.0429,527295.8256,Mapping
Blocked,Male,done,19,M_done.wav,None,721.9444644,3410,530420.4663,522686.6978,523453.2507,524219.5646,524986.6261,525753.2189,526519.5668,527286.4638,531186.6881,517320.6918,518086.4461,518853.3264,519620.1013,520386.7086,521153.3199,521920.0429,530430.583,Mapping
Blocked,Male,done,19,M_lash.wav,None,724.5609974,3410,530420.4663,522686.6978,523453.2507,524219.5646,524986.6261,525753.2189,526519.5668,527286.4638,531186.6881,531953.194,518086.4461,518853.3264,519620.1013,520386.7086,521153.3199,521920.0429,531196.2987,Mapping
Blocked,Male,done,19,M_priest.wav,None,725.3623744,3410,530420.4663,522686.6978,523453.2507,524219.5646,524986.6261,525753.2189,526519.5668,527286.4638,531186.6881,531953.194,532719.8167,518853.3264,519620.1013,520386.7086,521153.3199,521920.0429,531962.7329,Mapping
Blocked,Male,done,19,M_done.wav,None,725.9426923,3410,530420.4663,522686.6978,523453.2507,524219.5646,524986.6261,525753.2189,526519.5668,527286.4638,531186.6881,531953.194,532719.8167,533486.4955,519620.1013,520386.7086,521153.3199,521920.0429,532729.4741,Mapping
Blocked,Male,done,19,M_bluff.wav,None,726.8133238,3410,530420.4663,522686.6978,523453.2507,524219.5646,524986.6261,525753.2189,526519.5668,527286.4638,531186.6881,531953.194,532719.8167,533486.4955,534252.9293,520386.7086,521153.3199,521920.0429,533495.8201,Mapping
Blocked,Male,done,19,M_done.wav,None,728.6751647,3410,530420.4663,522686.6978,523453.2507,524219.5646,524986.6261,525753.2189,526519.5668,527286.4638,531186.6881,531953.194,532719.8167,533486.4955,534252.9293,535019.7633,521153.3199,521920.0429,534261.9612,Mapping
Blocked,Male,done,19,M_dime.wav,None,728.6130213,3410,530420.4663,522686.6978,523453.2507,524219.5646,524986.6261,525753.2189,526519.5668,527286.4638,531186.6881,531953.194,532719.8167,533486.4955,534252.9293,535019.7633,535786.4751,521920.0429,535029.5817,Mapping
Blocked,Male,done,19,M_bluff.wav,None,729.5086961,3410,530420.4663,522686.6978,523453.2507,524219.5646,524986.6261,525753.2189,526519.5668,527286.4638,531186.6881,531953.194,532719.8167,533486.4955,534252.9293,535019.7633,535786.4751,536553.0125,535796.0326,Mapping
Blocked,Male,done,19,M_greet.wav,None,730.7157083,3410,530420.4663,537319.6557,523453.2507,524219.5646,524986.6261,525753.2189,526519.5668,527286.4638,531186.6881,531953.194,532719.8167,533486.4955,534252.9293,535019.7633,535786.4751,536553.0125,536562.0518,Mapping
Blocked,Male,done,19,M_romp.wav,None,731.4407197,3410,530420.4663,537319.6557,538086.4312,524219.5646,524986.6261,525753.2189,526519.5668,527286.4638,531186.6881,531953.194,532719.8167,533486.4955,534252.9293,535019.7633,535786.4751,536553.0125,537329.0802,Mapping
Blocked,Male,done,19,M_dime.wav,None,731.9122087,3410,530420.4663,537319.6557,538086.4312,538853.1282,524986.6261,525753.2189,526519.5668,527286.4638,531186.6881,531953.194,532719.8167,533486.4955,534252.9293,535019.7633,535786.4751,536553.0125,538095.9927,Mapping
Blocked,Male,done,19,M_reek.wav,None,732.3710215,3410,530420.4663,537319.6557,538086.4312,538853.1282,539619.5741,525753.2189,526519.5668,527286.4638,531186.6881,531953.194,532719.8167,533486.4955,534252.9293,535019.7633,535786.4751,536553.0125,538862.873,Mapping
Blocked,Male,done,19,M_depth.wav,None,734.6060346,3410,530420.4663,537319.6557,538086.4312,538853.1282,539619.5741,540386.0228,526519.5668,527286.4638,531186.6881,531953.194,532719.8167,533486.4955,534252.9293,535019.7633,535786.4751,536553.0125,539629.2883,Mapping
Blocked,Male,done,19,M_done.wav,None,735.6739189,3410,530420.4663,537319.6557,538086.4312,538853.1282,539619.5741,540386.0228,541170.1541,527286.4638,531186.6881,531953.194,532719.8167,533486.4955,534252.9293,535019.7633,535786.4751,536553.0125,540395.6054,Mapping
Blocked,Male,done,19,M_jaw.wav,None,718.8174869,3410,530420.4663,537319.6557,538086.4312,538853.1282,539619.5741,540386.0228,541170.1541,541937.0511,531186.6881,531953.194,532719.8167,533486.4955,534252.9293,535019.7633,535786.4751,536553.0125,541179.9793,Mapping
Blocked,Male,done,21,M_reek.wav,None,718.716078,3410,545053.3253,537319.6557,538086.4312,538853.1282,539619.5741,540386.0228,541170.1541,541937.0511,531186.6881,531953.194,532719.8167,533486.4955,534252.9293,535019.7633,535786.4751,536553.0125,541947.3367,Mapping
Blocked,Male,done,21,M_jaw.wav,None,722.4586196,3410,545053.3253,537319.6557,538086.4312,538853.1282,539619.5741,540386.0228,541170.1541,541937.0511,545820.1889,531953.194,532719.8167,533486.4955,534252.9293,535019.7633,535786.4751,536553.0125,545062.8323,Mapping
Blocked,Male,done,21,M_bluff.wav,None,722.2820818,3410,545053.3253,537319.6557,538086.4312,538853.1282,539619.5741,540386.0228,541170.1541,541937.0511,545820.1889,546586.7458,532719.8167,533486.4955,534252.9293,535019.7633,535786.4751,536553.0125,545830.4309,Mapping
Blocked,Male,done,21,M_done.wav,None,723.5691696,3410,545053.3253,537319.6557,538086.4312,538853.1282,539619.5741,540386.0228,541170.1541,541937.0511,545820.1889,546586.7458,547352.8263,533486.4955,534252.9293,535019.7633,535786.4751,536553.0125,546596.5682,Mapping
Blocked,Male,done,21,M_priest.wav,None,725.1629573,3410,545053.3253,537319.6557,538086.4312,538853.1282,539619.5741,540386.0228,541170.1541,541937.0511,545820.1889,546586.7458,547352.8263,548119.5431,534252.9293,535019.7633,535786.4751,536553.0125,547362.3365,Mapping
Blocked,Male,done,21,M_greet.wav,None,725.68546,3410,545053.3253,537319.6557,538086.4312,538853.1282,539619.5741,540386.0228,541170.1541,541937.0511,545820.1889,546586.7458,547352.8263,548119.5431,548886.1637,535019.7633,535786.4751,536553.0125,548129.2359,Mapping
Blocked,Male,done,21,M_greet.wav,None,726.4154181,3410,545053.3253,537319.6557,538086.4312,538853.1282,539619.5741,540386.0228,541170.1541,541937.0511,545820.1889,546586.7458,547352.8263,548119.5431,548886.1637,549652.8619,535786.4751,536553.0125,548895.8021,Mapping
Blocked,Male,done,21,M_romp.wav,None,727.2291621,3410,545053.3253,537319.6557,538086.4312,538853.1282,539619.5741,540386.0228,541170.1541,541937.0511,545820.1889,546586.7458,547352.8263,548119.5431,548886.1637,549652.8619,550419.5035,536553.0125,549662.4564,Mapping
Blocked,Male,done,21,M_gnash.wav,None,728.1520441,3410,545053.3253,537319.6557,538086.4312,538853.1282,539619.5741,540386.0228,541170.1541,541937.0511,545820.1889,546586.7458,547352.8263,548119.5431,548886.1637,549652.8619,550419.5035,551186.1643,550428.9231,Mapping
Blocked,Male,done,21,M_reek.wav,None,729.276198,3410,545053.3253,551952.6563,538086.4312,538853.1282,539619.5741,540386.0228,541170.1541,541937.0511,545820.1889,546586.7458,547352.8263,548119.5431,548886.1637,549652.8619,550419.5035,551186.1643,551195.4642,Mapping
Blocked,Male,done,21,M_done.wav,None,730.3066719,3410,545053.3253,551952.6563,552719.6399,538853.1282,539619.5741,540386.0228,541170.1541,541937.0511,545820.1889,546586.7458,547352.8263,548119.5431,548886.1637,549652.8619,550419.5035,551186.1643,551961.6876,Mapping
Blocked,Male,done,21,M_jaw.wav,None,730.2862662,3410,545053.3253,551952.6563,552719.6399,553486.1402,539619.5741,540386.0228,541170.1541,541937.0511,545820.1889,546586.7458,547352.8263,548119.5431,548886.1637,549652.8619,550419.5035,551186.1643,552728.9754,Mapping
Blocked,Male,done,21,M_done.wav,None,731.1055753,3410,545053.3253,551952.6563,552719.6399,553486.1402,554252.703,540386.0228,541170.1541,541937.0511,545820.1889,546586.7458,547352.8263,548119.5431,548886.1637,549652.8619,550419.5035,551186.1643,553495.5484,Mapping
Blocked,Male,done,21,M_dime.wav,None,732.379369,3410,545053.3253,551952.6563,552719.6399,553486.1402,554252.703,555019.413,541170.1541,541937.0511,545820.1889,546586.7458,547352.8263,548119.5431,548886.1637,549652.8619,550419.5035,551186.1643,554261.6861,Mapping
Blocked,Male,done,21,M_done.wav,None,732.3462879,3410,545053.3253,551952.6563,552719.6399,553486.1402,554252.703,555019.413,555802.7274,541937.0511,545820.1889,546586.7458,547352.8263,548119.5431,548886.1637,549652.8619,550419.5035,551186.1643,555029.0929,Mapping
Blocked,Male,done,21,M_dime.wav,None,721.0014863,3410,545053.3253,551952.6563,552719.6399,553486.1402,554252.703,555019.413,555802.7274,556569.6717,545820.1889,546586.7458,547352.8263,548119.5431,548886.1637,549652.8619,550419.5035,551186.1643,555811.4891,Mapping
Blocked,Male,ball,5,M_dime.wav,None,718.280762,3410,559703.0861,551952.6563,552719.6399,553486.1402,554252.703,555019.413,555802.7274,556569.6717,545820.1889,546586.7458,547352.8263,548119.5431,548886.1637,549652.8619,550419.5035,551186.1643,556581.6491,Mapping
Blocked,Male,ball,5,M_ball.wav,None,721.9858933,3410,559703.0861,551952.6563,552719.6399,553486.1402,554252.703,555019.413,555802.7274,556569.6717,560469.806,546586.7458,547352.8263,548119.5431,548886.1637,549652.8619,550419.5035,551186.1643,559713.0854,Mapping
Blocked,Male,ball,5,M_park.wav,None,722.604549,3410,559703.0861,551952.6563,552719.6399,553486.1402,554252.703,555019.413,555802.7274,556569.6717,560469.806,561235.9693,547352.8263,548119.5431,548886.1637,549652.8619,550419.5035,551186.1643,560479.9586,Mapping
Blocked,Male,ball,5,M_ball.wav,None,724.5514127,3410,559703.0861,551952.6563,552719.6399,553486.1402,554252.703,555019.413,555802.7274,556569.6717,560469.806,561235.9693,562002.5767,548119.5431,548886.1637,549652.8619,550419.5035,551186.1643,561245.5605,Mapping
Blocked,Male,ball,5,M_knife.wav,None,725.4022574,3410,559703.0861,551952.6563,552719.6399,553486.1402,554252.703,555019.413,555802.7274,556569.6717,560469.806,561235.9693,562002.5767,562769.2922,548886.1637,549652.8619,550419.5035,551186.1643,562012.0395,Mapping
Blocked,Male,ball,5,M_reek.wav,None,725.8864227,3410,559703.0861,551952.6563,552719.6399,553486.1402,554252.703,555019.413,555802.7274,556569.6717,560469.806,561235.9693,562002.5767,562769.2922,563535.9734,549652.8619,550419.5035,551186.1643,562779.0951,Mapping
Blocked,Male,ball,5,M_dime.wav,None,727.0232528,3410,559703.0861,551952.6563,552719.6399,553486.1402,554252.703,555019.413,555802.7274,556569.6717,560469.806,561235.9693,562002.5767,562769.2922,563535.9734,564302.41,550419.5035,551186.1643,563545.4236,Mapping
Blocked,Male,ball,5,M_ball.wav,None,729.2165277,3410,559703.0861,551952.6563,552719.6399,553486.1402,554252.703,555019.413,555802.7274,556569.6717,560469.806,561235.9693,562002.5767,562769.2922,563535.9734,564302.41,565069.4214,551186.1643,564311.5446,Mapping
Blocked,Male,ball,5,M_park.wav,None,729.157784,3410,559703.0861,551952.6563,552719.6399,553486.1402,554252.703,555019.413,555802.7274,556569.6717,560469.806,561235.9693,562002.5767,562769.2922,563535.9734,564302.41,565069.4214,565836.0625,565078.9452,Mapping
Blocked,Male,ball,5,M_bluff.wav,None,730.2201032,3410,559703.0861,566602.4979,552719.6399,553486.1402,554252.703,555019.413,555802.7274,556569.6717,560469.806,561235.9693,562002.5767,562769.2922,563535.9734,564302.41,565069.4214,565836.0625,565845.4904,Mapping
Blocked,Male,ball,5,M_lash.wav,None,731.9125175,3410,559703.0861,566602.4979,567369.3179,553486.1402,554252.703,555019.413,555802.7274,556569.6717,560469.806,561235.9693,562002.5767,562769.2922,563535.9734,564302.41,565069.4214,565836.0625,566611.7919,Mapping
Blocked,Male,ball,5,M_gnash.wav,None,732.1561459,3410,559703.0861,566602.4979,567369.3179,568135.9444,554252.703,555019.413,555802.7274,556569.6717,560469.806,561235.9693,562002.5767,562769.2922,563535.9734,564302.41,565069.4214,565836.0625,567379.0281,Mapping
Blocked,Male,ball,5,M_lash.wav,None,733.2935943,3410,559703.0861,566602.4979,567369.3179,568135.9444,568902.394,555019.413,555802.7274,556569.6717,560469.806,561235.9693,562002.5767,562769.2922,563535.9734,564302.41,565069.4214,565836.0625,568145.4521,Mapping
Blocked,Male,ball,5,M_gnash.wav,None,734.9278838,3410,559703.0861,566602.4979,567369.3179,568135.9444,568902.394,569668.9349,555802.7274,556569.6717,560469.806,561235.9693,562002.5767,562769.2922,563535.9734,564302.41,565069.4214,565836.0625,568911.4206,Mapping
Blocked,Male,ball,5,M_ball.wav,None,735.4924339,3410,559703.0861,566602.4979,567369.3179,568135.9444,568902.394,569668.9349,570452.6583,556569.6717,560469.806,561235.9693,562002.5767,562769.2922,563535.9734,564302.41,565069.4214,565836.0625,569678.4413,Mapping
Blocked,Male,ball,5,M_cling.wav,None,718.5781868,3410,559703.0861,566602.4979,567369.3179,568135.9444,568902.394,569668.9349,570452.6583,571219.1203,560469.806,561235.9693,562002.5767,562769.2922,563535.9734,564302.41,565069.4214,565836.0625,570462.7887,Mapping
Blocked,Male,ball,4,M_lash.wav,None,720.4690902,3410,574352.5363,566602.4979,567369.3179,568135.9444,568902.394,569668.9349,570452.6583,571219.1203,560469.806,561235.9693,562002.5767,562769.2922,563535.9734,564302.41,565069.4214,565836.0625,571228.372,Mapping
Blocked,Male,ball,4,M_gnash.wav,None,723.3122466,3410,574352.5363,566602.4979,567369.3179,568135.9444,568902.394,569668.9349,570452.6583,571219.1203,575118.8449,561235.9693,562002.5767,562769.2922,563535.9734,564302.41,565069.4214,565836.0625,574362.3528,Mapping
Blocked,Male,ball,4,M_jaw.wav,None,725.2826071,3410,574352.5363,566602.4979,567369.3179,568135.9444,568902.394,569668.9349,570452.6583,571219.1203,575118.8449,575885.6489,562002.5767,562769.2922,563535.9734,564302.41,565069.4214,565836.0625,575128.1721,Mapping
Blocked,Male,ball,4,M_depth.wav,None,725.8994081,3410,574352.5363,566602.4979,567369.3179,568135.9444,568902.394,569668.9349,570452.6583,571219.1203,575118.8449,575885.6489,576652.3236,562769.2922,563535.9734,564302.41,565069.4214,565836.0625,575894.9269,Mapping
Blocked,Male,ball,4,M_cling.wav,None,726.6896549,3410,574352.5363,566602.4979,567369.3179,568135.9444,568902.394,569668.9349,570452.6583,571219.1203,575118.8449,575885.6489,576652.3236,577418.7263,563535.9734,564302.41,565069.4214,565836.0625,576661.5314,Mapping
Blocked,Male,ball,4,M_ball.wav,None,727.8586384,3410,574352.5363,566602.4979,567369.3179,568135.9444,568902.394,569668.9349,570452.6583,571219.1203,575118.8449,575885.6489,576652.3236,577418.7263,578185.6288,564302.41,565069.4214,565836.0625,577427.9523,Mapping
Blocked,Male,ball,4,M_romp.wav,None,733.9444039,3410,574352.5363,566602.4979,567369.3179,568135.9444,568902.394,569668.9349,570452.6583,571219.1203,575118.8449,575885.6489,576652.3236,577418.7263,578185.6288,578952.2386,565069.4214,565836.0625,578189.5151,Mapping
Blocked,Male,ball,4,M_ball.wav,None,729.1766442,3410,574352.5363,566602.4979,567369.3179,568135.9444,568902.394,569668.9349,570452.6583,571219.1203,575118.8449,575885.6489,576652.3236,577418.7263,578185.6288,578952.2386,579718.9334,565836.0625,578961.7698,Mapping
Blocked,Male,ball,4,M_gnash.wav,None,729.951432,3410,574352.5363,566602.4979,567369.3179,568135.9444,568902.394,569668.9349,570452.6583,571219.1203,575118.8449,575885.6489,576652.3236,577418.7263,578185.6288,578952.2386,579718.9334,580485.6072,579728.6381,Mapping
Blocked,Male,ball,4,M_jaw.wav,None,731.4348449,3410,574352.5363,581252.1734,567369.3179,568135.9444,568902.394,569668.9349,570452.6583,571219.1203,575118.8449,575885.6489,576652.3236,577418.7263,578185.6288,578952.2386,579718.9334,580485.6072,580494.8462,Mapping
Blocked,Male,ball,4,M_ball.wav,None,732.7460484,3410,574352.5363,581252.1734,582018.8846,568135.9444,568902.394,569668.9349,570452.6583,571219.1203,575118.8449,575885.6489,576652.3236,577418.7263,578185.6288,578952.2386,579718.9334,580485.6072,581261.2204,Mapping
Blocked,Male,ball,4,M_dime.wav,None,738.4688444,3410,574352.5363,581252.1734,582018.8846,582785.4233,568902.394,569668.9349,570452.6583,571219.1203,575118.8449,575885.6489,576652.3236,577418.7263,578185.6288,578952.2386,579718.9334,580485.6072,582023.1453,Mapping
Blocked,Male,ball,4,M_ball.wav,None,734.1775205,3410,574352.5363,581252.1734,582018.8846,582785.4233,583552.1104,569668.9349,570452.6583,571219.1203,575118.8449,575885.6489,576652.3236,577418.7263,578185.6288,578952.2386,579718.9334,580485.6072,582795.0939,Mapping
Blocked,Male,ball,4,M_greet.wav,None,735.742555,3410,574352.5363,581252.1734,582018.8846,582785.4233,583552.1104,584336.1455,570452.6583,571219.1203,575118.8449,575885.6489,576652.3236,577418.7263,578185.6288,578952.2386,579718.9334,580485.6072,583561.1605,Mapping
Blocked,Male,ball,4,M_greet.wav,None,718.4582273,3410,574352.5363,581252.1734,582018.8846,582785.4233,583552.1104,584336.1455,585102.3966,571219.1203,575118.8449,575885.6489,576652.3236,577418.7263,578185.6288,578952.2386,579718.9334,580485.6072,584346.1661,Mapping
Blocked,Male,ball,4,M_jolt.wav,None,719.6850264,3410,574352.5363,581252.1734,582018.8846,582785.4233,583552.1104,584336.1455,585102.3966,585869.396,575118.8449,575885.6489,576652.3236,577418.7263,578185.6288,578952.2386,579718.9334,580485.6072,585112.5366,Mapping
Blocked,Male,cave,7,M_depth.wav,None,720.2155679,3410,589002.4895,581252.1734,582018.8846,582785.4233,583552.1104,584336.1455,585102.3966,585869.396,575118.8449,575885.6489,576652.3236,577418.7263,578185.6288,578952.2386,579718.9334,580485.6072,585879.6191,Mapping
Blocked,Male,cave,7,M_cave.wav,None,721.4884339,3410,589002.4895,581252.1734,582018.8846,582785.4233,583552.1104,584336.1455,585102.3966,585869.396,589768.987,575885.6489,576652.3236,577418.7263,578185.6288,578952.2386,579718.9334,580485.6072,589011.9934,Mapping
Blocked,Male,cave,7,M_cad.wav,None,722.8478687,3410,589002.4895,581252.1734,582018.8846,582785.4233,583552.1104,584336.1455,585102.3966,585869.396,589768.987,590535.7659,576652.3236,577418.7263,578185.6288,578952.2386,579718.9334,580485.6072,589778.1812,Mapping
Blocked,Male,cave,7,M_cling.wav,None,722.6484516,3410,589002.4895,581252.1734,582018.8846,582785.4233,583552.1104,584336.1455,585102.3966,585869.396,589768.987,590535.7659,591302.1104,577418.7263,578185.6288,578952.2386,579718.9334,580485.6072,590545.9427,Mapping
Blocked,Male,cave,7,M_cave.wav,None,724.5851131,3410,589002.4895,581252.1734,582018.8846,582785.4233,583552.1104,584336.1455,585102.3966,585869.396,589768.987,590535.7659,591302.1104,592068.548,578185.6288,578952.2386,579718.9334,580485.6072,591311.7007,Mapping
Blocked,Male,cave,7,M_knife.wav,None,725.9479482,3410,589002.4895,581252.1734,582018.8846,582785.4233,583552.1104,584336.1455,585102.3966,585869.396,589768.987,590535.7659,591302.1104,592068.548,592835.4141,578952.2386,579718.9334,580485.6072,592077.9497,Mapping
Blocked,Male,cave,7,M_cad.wav,None,726.4862186,3410,589002.4895,581252.1734,582018.8846,582785.4233,583552.1104,584336.1455,585102.3966,585869.396,589768.987,590535.7659,591302.1104,592068.548,592835.4141,593602.0428,579718.9334,580485.6072,592845.0155,Mapping
Blocked,Male,cave,7,M_romp.wav,None,727.7522832,3410,589002.4895,581252.1734,582018.8846,582785.4233,583552.1104,584336.1455,585102.3966,585869.396,589768.987,590535.7659,591302.1104,592068.548,592835.4141,593602.0428,594368.7973,580485.6072,593611.322,Mapping
Blocked,Male,cave,7,M_cave.wav,None,729.3194821,3410,589002.4895,581252.1734,582018.8846,582785.4233,583552.1104,584336.1455,585102.3966,585869.396,589768.987,590535.7659,591302.1104,592068.548,592835.4141,593602.0428,594368.7973,595135.4704,594378.8265,Mapping
Blocked,Male,cave,7,M_park.wav,None,730.8634929,3410,589002.4895,595901.9204,582018.8846,582785.4233,583552.1104,584336.1455,585102.3966,585869.396,589768.987,590535.7659,591302.1104,592068.548,592835.4141,593602.0428,594368.7973,595135.4704,595144.9614,Mapping
Blocked,Male,cave,7,M_reek.wav,None,731.9867192,3410,589002.4895,595901.9204,596668.6934,582785.4233,583552.1104,584336.1455,585102.3966,585869.396,589768.987,590535.7659,591302.1104,592068.548,592835.4141,593602.0428,594368.7973,595135.4704,595911.3016,Mapping
Blocked,Male,cave,7,M_knife.wav,None,732.7441936,3410,589002.4895,595901.9204,596668.6934,597435.5227,583552.1104,584336.1455,585102.3966,585869.396,589768.987,590535.7659,591302.1104,592068.548,592835.4141,593602.0428,594368.7973,595135.4704,596678.2515,Mapping
