Condition,Talker,Target,Trial,current_stimulus,response_response,response_time_response,subject_nr,time_Audio1,time_Audio10,time_Audio11,time_Audio12,time_Audio13,time_Audio14,time_Audio15,time_Audio16,time_Audio2,time_Audio3,time_Audio4,time_Audio5,time_Audio6,time_Audio7,time_Audio8,time_Audio9,time_response,title
Blocked,Female,tile,17,F_cling.wav,NA,NA,3421,41140.31137,NA,NA,NA,NA,NA,NA,NA,NA,NA,NA,NA,NA,NA,NA,NA,NA,Mapping
Blocked,Female,tile,17,F_park.wav,None,718.4899515,3421,41140.31137,NA,NA,NA,NA,NA,NA,NA,41907.82911,NA,NA,NA,NA,NA,NA,NA,41155.16563,Mapping
Blocked,Female,tile,17,F_park.wav,None,720.2203628,3421,41140.31137,NA,NA,NA,NA,NA,NA,NA,41907.82911,42657.9871,NA,NA,NA,NA,NA,NA,41919.34529,Mapping
Blocked,Female,tile,17,F_tile.wav,None,734.9738386,3421,41140.31137,NA,NA,NA,NA,NA,NA,NA,41907.82911,42657.9871,43425.12271,NA,NA,NA,NA,NA,42667.15577,Mapping
Blocked,Female,tile,17,F_romp.wav,space,540.1769429,3421,41140.31137,NA,NA,NA,NA,NA,NA,NA,41907.82911,42657.9871,43425.12271,44192.45186,NA,NA,NA,NA,43434.41783,Mapping
Blocked,Female,tile,17,F_tile.wav,None,730.7357686,3421,41140.31137,NA,NA,NA,NA,NA,NA,NA,41907.82911,42657.9871,43425.12271,44192.45186,44959.72938,NA,NA,NA,44203.04178,Mapping
Blocked,Female,tile,17,F_cad.wav,space,541.1758628,3421,41140.31137,NA,NA,NA,NA,NA,NA,NA,41907.82911,42657.9871,43425.12271,44192.45186,44959.72938,45726.92621,NA,NA,44969.39272,Mapping
Blocked,Female,tile,17,F_reek.wav,None,725.5173307,3421,41140.31137,NA,NA,NA,NA,NA,NA,NA,41907.82911,42657.9871,43425.12271,44192.45186,44959.72938,45726.92621,46494.1524,NA,45736.80967,Mapping
Blocked,Female,tile,17,F_greet.wav,None,724.920637,3421,41140.31137,NA,NA,NA,NA,NA,NA,NA,41907.82911,42657.9871,43425.12271,44192.45186,44959.72938,45726.92621,46494.1524,47262.07485,46503.36714,Mapping
Blocked,Female,tile,17,F_cad.wav,None,722.2627234,3421,41140.31137,48011.91625,NA,NA,NA,NA,NA,NA,41907.82911,42657.9871,43425.12271,44192.45186,44959.72938,45726.92621,46494.1524,47262.07485,47271.99851,Mapping
Blocked,Female,tile,17,F_knife.wav,None,735.754177,3421,41140.31137,48011.91625,48779.44357,NA,NA,NA,NA,NA,41907.82911,42657.9871,43425.12271,44192.45186,44959.72938,45726.92621,46494.1524,47262.07485,48021.30257,Mapping
Blocked,Female,tile,17,F_tile.wav,None,733.8404302,3421,41140.31137,48011.91625,48779.44357,49547.01851,NA,NA,NA,NA,41907.82911,42657.9871,43425.12271,44192.45186,44959.72938,45726.92621,46494.1524,47262.07485,48789.21203,Mapping
Blocked,Female,tile,17,F_dime.wav,space,432.6268239,3421,41140.31137,48011.91625,48779.44357,49547.01851,50313.8295,NA,NA,NA,41907.82911,42657.9871,43425.12271,44192.45186,44959.72938,45726.92621,46494.1524,47262.07485,49557.74632,Mapping
Blocked,Female,tile,17,F_cling.wav,None,728.0305531,3421,41140.31137,48011.91625,48779.44357,49547.01851,50313.8295,51081.31601,NA,NA,41907.82911,42657.9871,43425.12271,44192.45186,44959.72938,45726.92621,46494.1524,47262.07485,50323.28508,Mapping
Blocked,Female,tile,17,F_tile.wav,None,723.3138932,3421,41140.31137,48011.91625,48779.44357,49547.01851,50313.8295,51081.31601,51832.0877,NA,41907.82911,42657.9871,43425.12271,44192.45186,44959.72938,45726.92621,46494.1524,47262.07485,51090.96637,Mapping
Blocked,Female,tile,17,F_reek.wav,space,700.2558671,3421,41140.31137,48011.91625,48779.44357,49547.01851,50313.8295,51081.31601,51832.0877,52598.89188,41907.82911,42657.9871,43425.12271,44192.45186,44959.72938,45726.92621,46494.1524,47262.07485,51841.9891,Mapping
Blocked,Female,cave,11,F_cling.wav,None,730.4714313,3421,55767.78239,48011.91625,48779.44357,49547.01851,50313.8295,51081.31601,51832.0877,52598.89188,41907.82911,42657.9871,43425.12271,44192.45186,44959.72938,45726.92621,46494.1524,47262.07485,52608.84368,Mapping
Blocked,Female,cave,11,F_cave.wav,None,735.198603,3421,55767.78239,48011.91625,48779.44357,49547.01851,50313.8295,51081.31601,51832.0877,52598.89188,56535.16286,42657.9871,43425.12271,44192.45186,44959.72938,45726.92621,46494.1524,47262.07485,55776.89078,Mapping
Blocked,Female,cave,11,F_reek.wav,space,397.2929912,3421,55767.78239,48011.91625,48779.44357,49547.01851,50313.8295,51081.31601,51832.0877,52598.89188,56535.16286,57302.40607,43425.12271,44192.45186,44959.72938,45726.92621,46494.1524,47262.07485,56544.81044,Mapping
Blocked,Female,cave,11,F_gnash.wav,None,729.0353477,3421,55767.78239,48011.91625,48779.44357,49547.01851,50313.8295,51081.31601,51832.0877,52598.89188,56535.16286,57302.40607,58070.05366,44192.45186,44959.72938,45726.92621,46494.1524,47262.07485,57312.18102,Mapping
Blocked,Female,cave,11,F_cave.wav,None,727.5556717,3421,55767.78239,48011.91625,48779.44357,49547.01851,50313.8295,51081.31601,51832.0877,52598.89188,56535.16286,57302.40607,58070.05366,58837.01861,44959.72938,45726.92621,46494.1524,47262.07485,58079.69536,Mapping
Blocked,Female,cave,11,F_romp.wav,space,423.3323196,3421,55767.78239,48011.91625,48779.44357,49547.01851,50313.8295,51081.31601,51832.0877,52598.89188,56535.16286,57302.40607,58070.05366,58837.01861,59587.45175,45726.92621,46494.1524,47262.07485,58846.69772,Mapping
Blocked,Female,cave,11,F_greet.wav,None,735.5748601,3421,55767.78239,48011.91625,48779.44357,49547.01851,50313.8295,51081.31601,51832.0877,52598.89188,56535.16286,57302.40607,58070.05366,58837.01861,59587.45175,60354.56418,46494.1524,47262.07485,59597.12066,Mapping
Blocked,Female,cave,11,F_bluff.wav,None,731.2084865,3421,55767.78239,48011.91625,48779.44357,49547.01851,50313.8295,51081.31601,51832.0877,52598.89188,56535.16286,57302.40607,58070.05366,58837.01861,59587.45175,60354.56418,61122.06646,47262.07485,60364.18702,Mapping
Blocked,Female,cave,11,F_cave.wav,None,729.9523391,3421,55767.78239,48011.91625,48779.44357,49547.01851,50313.8295,51081.31601,51832.0877,52598.89188,56535.16286,57302.40607,58070.05366,58837.01861,59587.45175,60354.56418,61122.06646,61889.04131,61131.57213,Mapping
Blocked,Female,cave,11,F_reek.wav,space,354.4457685,3421,55767.78239,62656.10736,48779.44357,49547.01851,50313.8295,51081.31601,51832.0877,52598.89188,56535.16286,57302.40607,58070.05366,58837.01861,59587.45175,60354.56418,61122.06646,61889.04131,61899.47324,Mapping
Blocked,Female,cave,11,F_dime.wav,None,721.0646989,3421,55767.78239,62656.10736,63406.94458,49547.01851,50313.8295,51081.31601,51832.0877,52598.89188,56535.16286,57302.40607,58070.05366,58837.01861,59587.45175,60354.56418,61122.06646,61889.04131,62665.5011,Mapping
Blocked,Female,cave,11,F_cave.wav,None,732.5363606,3421,55767.78239,62656.10736,63406.94458,64173.87645,50313.8295,51081.31601,51832.0877,52598.89188,56535.16286,57302.40607,58070.05366,58837.01861,59587.45175,60354.56418,61122.06646,61889.04131,63416.5195,Mapping
Blocked,Female,cave,11,F_dime.wav,space,598.7889292,3421,55767.78239,62656.10736,63406.94458,64173.87645,64941.11564,51081.31601,51832.0877,52598.89188,56535.16286,57302.40607,58070.05366,58837.01861,59587.45175,60354.56418,61122.06646,61889.04131,64183.06491,Mapping
Blocked,Female,cave,11,F_greet.wav,None,722.5184049,3421,55767.78239,62656.10736,63406.94458,64173.87645,64941.11564,65691.39574,51832.0877,52598.89188,56535.16286,57302.40607,58070.05366,58837.01861,59587.45175,60354.56418,61122.06646,61889.04131,64951.37289,Mapping
Blocked,Female,cave,11,F_jolt.wav,None,735.9965649,3421,55767.78239,62656.10736,63406.94458,64173.87645,64941.11564,65691.39574,66459.00098,52598.89188,56535.16286,57302.40607,58070.05366,58837.01861,59587.45175,60354.56418,61122.06646,61889.04131,65700.56843,Mapping
Blocked,Female,cave,11,F_cad.wav,None,733.9520389,3421,55767.78239,62656.10736,63406.94458,64173.87645,64941.11564,65691.39574,66459.00098,67226.30602,56535.16286,57302.40607,58070.05366,58837.01861,59587.45175,60354.56418,61122.06646,61889.04131,66468.63619,Mapping
Blocked,Female,tile,16,F_knife.wav,None,729.4493234,3421,70328.38387,62656.10736,63406.94458,64173.87645,64941.11564,65691.39574,66459.00098,67226.30602,56535.16286,57302.40607,58070.05366,58837.01861,59587.45175,60354.56418,61122.06646,61889.04131,67235.57671,Mapping
Blocked,Female,tile,16,F_dime.wav,None,735.368954,3421,70328.38387,62656.10736,63406.94458,64173.87645,64941.11564,65691.39574,66459.00098,67226.30602,71095.7764,57302.40607,58070.05366,58837.01861,59587.45175,60354.56418,61122.06646,61889.04131,70338.3505,Mapping
Blocked,Female,tile,16,F_knife.wav,None,730.1709205,3421,70328.38387,62656.10736,63406.94458,64173.87645,64941.11564,65691.39574,66459.00098,67226.30602,71095.7764,71862.90892,58070.05366,58837.01861,59587.45175,60354.56418,61122.06646,61889.04131,71106.36972,Mapping
Blocked,Female,tile,16,F_tile.wav,None,726.8615905,3421,70328.38387,62656.10736,63406.94458,64173.87645,64941.11564,65691.39574,66459.00098,67226.30602,71095.7764,71862.90892,72630.06958,58837.01861,59587.45175,60354.56418,61122.06646,61889.04131,71872.47889,Mapping
Blocked,Female,tile,16,F_jaw.wav,space,462.2617709,3421,70328.38387,62656.10736,63406.94458,64173.87645,64941.11564,65691.39574,66459.00098,67226.30602,71095.7764,71862.90892,72630.06958,73397.66523,59587.45175,60354.56418,61122.06646,61889.04131,72639.29297,Mapping
Blocked,Female,tile,16,F_jolt.wav,None,720.1000964,3421,70328.38387,62656.10736,63406.94458,64173.87645,64941.11564,65691.39574,66459.00098,67226.30602,71095.7764,71862.90892,72630.06958,73397.66523,74147.97192,60354.56418,61122.06646,61889.04131,73407.5388,Mapping
Blocked,Female,tile,16,F_gnash.wav,None,732.544709,3421,70328.38387,62656.10736,63406.94458,64173.87645,64941.11564,65691.39574,66459.00098,67226.30602,71095.7764,71862.90892,72630.06958,73397.66523,74147.97192,74915.03086,61122.06646,61889.04131,74157.92495,Mapping
Blocked,Female,tile,16,F_lash.wav,None,728.6624918,3421,70328.38387,62656.10736,63406.94458,64173.87645,64941.11564,65691.39574,66459.00098,67226.30602,71095.7764,71862.90892,72630.06958,73397.66523,74147.97192,74915.03086,75682.50934,61889.04131,74924.56435,Mapping
Blocked,Female,tile,16,F_tile.wav,None,727.3373995,3421,70328.38387,62656.10736,63406.94458,64173.87645,64941.11564,65691.39574,66459.00098,67226.30602,71095.7764,71862.90892,72630.06958,73397.66523,74147.97192,74915.03086,75682.50934,76449.65485,75691.98811,Mapping
Blocked,Female,tile,16,F_romp.wav,space,377.4932818,3421,70328.38387,77199.99184,63406.94458,64173.87645,64941.11564,65691.39574,66459.00098,67226.30602,71095.7764,71862.90892,72630.06958,73397.66523,74147.97192,74915.03086,75682.50934,76449.65485,76459.78472,Mapping
Blocked,Female,tile,16,F_cling.wav,None,734.5530605,3421,70328.38387,77199.99184,77967.36829,64173.87645,64941.11564,65691.39574,66459.00098,67226.30602,71095.7764,71862.90892,72630.06958,73397.66523,74147.97192,74915.03086,75682.50934,76449.65485,77209.68022,Mapping
Blocked,Female,tile,16,F_tile.wav,None,734.076634,3421,70328.38387,77199.99184,77967.36829,78734.41795,64941.11564,65691.39574,66459.00098,67226.30602,71095.7764,71862.90892,72630.06958,73397.66523,74147.97192,74915.03086,75682.50934,76449.65485,77976.48843,Mapping
Blocked,Female,tile,16,F_greet.wav,space,685.5132114,3421,70328.38387,77199.99184,77967.36829,78734.41795,79501.59252,65691.39574,66459.00098,67226.30602,71095.7764,71862.90892,72630.06958,73397.66523,74147.97192,74915.03086,75682.50934,76449.65485,78743.81974,Mapping
Blocked,Female,tile,16,F_depth.wav,None,724.6538252,3421,70328.38387,77199.99184,77967.36829,78734.41795,79501.59252,80268.78131,66459.00098,67226.30602,71095.7764,71862.90892,72630.06958,73397.66523,74147.97192,74915.03086,75682.50934,76449.65485,79510.95195,Mapping
Blocked,Female,tile,16,F_tile.wav,None,723.6035829,3421,70328.38387,77199.99184,77967.36829,78734.41795,79501.59252,80268.78131,81019.24104,67226.30602,71095.7764,71862.90892,72630.06958,73397.66523,74147.97192,74915.03086,75682.50934,76449.65485,80278.07427,Mapping
Blocked,Female,tile,16,F_cling.wav,space,440.7440182,3421,70328.38387,77199.99184,77967.36829,78734.41795,79501.59252,80268.78131,81019.24104,81786.83175,71095.7764,71862.90892,72630.06958,73397.66523,74147.97192,74915.03086,75682.50934,76449.65485,81028.49412,Mapping
Blocked,Female,ball,3,F_dime.wav,None,730.3972309,3421,84905.4176,77199.99184,77967.36829,78734.41795,79501.59252,80268.78131,81019.24104,81786.83175,71095.7764,71862.90892,72630.06958,73397.66523,74147.97192,74915.03086,75682.50934,76449.65485,81796.75727,Mapping
Blocked,Female,ball,3,F_jaw.wav,None,734.8257462,3421,84905.4176,77199.99184,77967.36829,78734.41795,79501.59252,80268.78131,81019.24104,81786.83175,85673.13167,71862.90892,72630.06958,73397.66523,74147.97192,74915.03086,75682.50934,76449.65485,84915.30447,Mapping
Blocked,Female,ball,3,F_ball.wav,None,730.1777219,3421,84905.4176,77199.99184,77967.36829,78734.41795,79501.59252,80268.78131,81019.24104,81786.83175,85673.13167,86441.05628,72630.06958,73397.66523,74147.97192,74915.03086,75682.50934,76449.65485,85682.62311,Mapping
Blocked,Female,ball,3,F_reek.wav,space,442.4252715,3421,84905.4176,77199.99184,77967.36829,78734.41795,79501.59252,80268.78131,81019.24104,81786.83175,85673.13167,86441.05628,87207.32498,73397.66523,74147.97192,74915.03086,75682.50934,76449.65485,86450.61852,Mapping
Blocked,Female,ball,3,F_reek.wav,None,729.9773814,3421,84905.4176,77199.99184,77967.36829,78734.41795,79501.59252,80268.78131,81019.24104,81786.83175,85673.13167,86441.05628,87207.32498,87974.7509,74147.97192,74915.03086,75682.50934,76449.65485,87211.25296,Mapping
Blocked,Female,ball,3,F_ball.wav,None,719.7952569,3421,84905.4176,77199.99184,77967.36829,78734.41795,79501.59252,80268.78131,81019.24104,81786.83175,85673.13167,86441.05628,87207.32498,87974.7509,88725.00287,74915.03086,75682.50934,76449.65485,87984.29892,Mapping
Blocked,Female,ball,3,F_dime.wav,space,398.526879,3421,84905.4176,77199.99184,77967.36829,78734.41795,79501.59252,80268.78131,81019.24104,81786.83175,85673.13167,86441.05628,87207.32498,87974.7509,88725.00287,89492.34903,75682.50934,76449.65485,88734.42754,Mapping
Blocked,Female,ball,3,F_jolt.wav,None,726.576847,3421,84905.4176,77199.99184,77967.36829,78734.41795,79501.59252,80268.78131,81019.24104,81786.83175,85673.13167,86441.05628,87207.32498,87974.7509,88725.00287,89492.34903,90259.49361,76449.65485,89502.69872,Mapping
Blocked,Female,ball,3,F_knife.wav,None,723.1206633,3421,84905.4176,77199.99184,77967.36829,78734.41795,79501.59252,80268.78131,81019.24104,81786.83175,85673.13167,86441.05628,87207.32498,87974.7509,88725.00287,89492.34903,90259.49361,91010.42327,90269.10717,Mapping
Blocked,Female,ball,3,F_reek.wav,None,734.2704823,3421,84905.4176,91777.45408,77967.36829,78734.41795,79501.59252,80268.78131,81019.24104,81786.83175,85673.13167,86441.05628,87207.32498,87974.7509,88725.00287,89492.34903,90259.49361,91010.42327,91020.83913,Mapping
Blocked,Female,ball,3,F_park.wav,None,730.965171,3421,84905.4176,91777.45408,92544.53899,78734.41795,79501.59252,80268.78131,81019.24104,81786.83175,85673.13167,86441.05628,87207.32498,87974.7509,88725.00287,89492.34903,90259.49361,91010.42327,91787.03425,Mapping
Blocked,Female,ball,3,F_ball.wav,space,298.387506,3421,84905.4176,91777.45408,92544.53899,93311.89194,79501.59252,80268.78131,81019.24104,81786.83175,85673.13167,86441.05628,87207.32498,87974.7509,88725.00287,89492.34903,90259.49361,91010.42327,92554.42462,Mapping
Blocked,Female,ball,3,F_gnash.wav,None,721.950464,3421,84905.4176,91777.45408,92544.53899,93311.89194,94062.40269,80268.78131,81019.24104,81786.83175,85673.13167,86441.05628,87207.32498,87974.7509,88725.00287,89492.34903,90259.49361,91010.42327,93321.17686,Mapping
Blocked,Female,ball,3,F_ball.wav,None,733.9851204,3421,84905.4176,91777.45408,92544.53899,93311.89194,94062.40269,94829.69598,81019.24104,81786.83175,85673.13167,86441.05628,87207.32498,87974.7509,88725.00287,89492.34903,90259.49361,91010.42327,94071.86198,Mapping
Blocked,Female,ball,3,F_cad.wav,space,700.8510148,3421,84905.4176,91777.45408,92544.53899,93311.89194,94062.40269,94829.69598,95596.63681,81786.83175,85673.13167,86441.05628,87207.32498,87974.7509,88725.00287,89492.34903,90259.49361,91010.42327,94839.86728,Mapping
Blocked,Female,ball,3,F_cling.wav,None,725.0755299,3421,84905.4176,91777.45408,92544.53899,93311.89194,94062.40269,94829.69598,95596.63681,96364.12178,85673.13167,86441.05628,87207.32498,87974.7509,88725.00287,89492.34903,90259.49361,91010.42327,95606.02252,Mapping
Blocked,Female,ball,5,F_priest.wav,None,720.0166211,3421,99483.05854,91777.45408,92544.53899,93311.89194,94062.40269,94829.69598,95596.63681,96364.12178,85673.13167,86441.05628,87207.32498,87974.7509,88725.00287,89492.34903,90259.49361,91010.42327,96373.86613,Mapping
Blocked,Female,ball,5,F_greet.wav,None,721.0350195,3421,99483.05854,91777.45408,92544.53899,93311.89194,94062.40269,94829.69598,95596.63681,96364.12178,100233.6033,86441.05628,87207.32498,87974.7509,88725.00287,89492.34903,90259.49361,91010.42327,99492.7899,Mapping
Blocked,Female,ball,5,F_reek.wav,None,733.3380328,3421,99483.05854,91777.45408,92544.53899,93311.89194,94062.40269,94829.69598,95596.63681,96364.12178,100233.6033,101000.7698,87207.32498,87974.7509,88725.00287,89492.34903,90259.49361,91010.42327,100243.2125,Mapping
Blocked,Female,ball,5,F_ball.wav,None,728.319007,3421,99483.05854,91777.45408,92544.53899,93311.89194,94062.40269,94829.69598,95596.63681,96364.12178,100233.6033,101000.7698,101768.0106,87974.7509,88725.00287,89492.34903,90259.49361,91010.42327,101011.0963,Mapping
Blocked,Female,ball,5,F_jaw.wav,space,434.8531393,3421,99483.05854,91777.45408,92544.53899,93311.89194,94062.40269,94829.69598,95596.63681,96364.12178,100233.6033,101000.7698,101768.0106,102535.076,88725.00287,89492.34903,90259.49361,91010.42327,101777.5969,Mapping
Blocked,Female,ball,5,F_ball.wav,None,723.216814,3421,99483.05854,91777.45408,92544.53899,93311.89194,94062.40269,94829.69598,95596.63681,96364.12178,100233.6033,101000.7698,101768.0106,102535.076,103285.7392,89492.34903,90259.49361,91010.42327,102541.3274,Mapping
Blocked,Female,ball,5,F_romp.wav,space,629.2069973,3421,99483.05854,91777.45408,92544.53899,93311.89194,94062.40269,94829.69598,95596.63681,96364.12178,100233.6033,101000.7698,101768.0106,102535.076,103285.7392,104052.9876,90259.49361,91010.42327,103295.1796,Mapping
Blocked,Female,ball,5,F_ball.wav,None,727.4125274,3421,99483.05854,91777.45408,92544.53899,93311.89194,94062.40269,94829.69598,95596.63681,96364.12178,100233.6033,101000.7698,101768.0106,102535.076,103285.7392,104052.9876,104820.4132,91010.42327,104062.5817,Mapping
Blocked,Female,ball,5,F_jolt.wav,space,437.5583557,3421,99483.05854,91777.45408,92544.53899,93311.89194,94062.40269,94829.69598,95596.63681,96364.12178,100233.6033,101000.7698,101768.0106,102535.076,103285.7392,104052.9876,104820.4132,105570.6278,104830.7781,Mapping
Blocked,Female,ball,5,F_gnash.wav,None,734.8344037,3421,99483.05854,106337.7433,92544.53899,93311.89194,94062.40269,94829.69598,95596.63681,96364.12178,100233.6033,101000.7698,101768.0106,102535.076,103285.7392,104052.9876,104820.4132,105570.6278,105580.3863,Mapping
Blocked,Female,ball,5,F_ball.wav,None,730.931472,3421,99483.05854,106337.7433,107105.0091,93311.89194,94062.40269,94829.69598,95596.63681,96364.12178,100233.6033,101000.7698,101768.0106,102535.076,103285.7392,104052.9876,104820.4132,105570.6278,106347.1129,Mapping
Blocked,Female,ball,5,F_romp.wav,space,370.1635366,3421,99483.05854,106337.7433,107105.0091,107872.6489,94062.40269,94829.69598,95596.63681,96364.12178,100233.6033,101000.7698,101768.0106,102535.076,103285.7392,104052.9876,104820.4132,105570.6278,107114.1181,Mapping
Blocked,Female,ball,5,F_lash.wav,None,721.0711911,3421,99483.05854,106337.7433,107105.0091,107872.6489,108622.8972,94829.69598,95596.63681,96364.12178,100233.6033,101000.7698,101768.0106,102535.076,103285.7392,104052.9876,104820.4132,105570.6278,107882.1834,Mapping
Blocked,Female,ball,5,F_cad.wav,None,733.1853043,3421,99483.05854,106337.7433,107105.0091,107872.6489,108622.8972,109390.1954,95596.63681,96364.12178,100233.6033,101000.7698,101768.0106,102535.076,103285.7392,104052.9876,104820.4132,105570.6278,108632.9189,Mapping
Blocked,Female,ball,5,F_jaw.wav,None,729.155614,3421,99483.05854,106337.7433,107105.0091,107872.6489,108622.8972,109390.1954,110157.2445,96364.12178,100233.6033,101000.7698,101768.0106,102535.076,103285.7392,104052.9876,104820.4132,105570.6278,109399.8325,Mapping
Blocked,Female,ball,5,F_lash.wav,None,725.4279805,3421,99483.05854,106337.7433,107105.0091,107872.6489,108622.8972,109390.1954,110157.2445,110924.6209,100233.6033,101000.7698,101768.0106,102535.076,103285.7392,104052.9876,104820.4132,105570.6278,110166.6172,Mapping
Blocked,Female,done,23,F_reek.wav,None,720.3944242,3421,114026.662,106337.7433,107105.0091,107872.6489,108622.8972,109390.1954,110157.2445,110924.6209,100233.6033,101000.7698,101768.0106,102535.076,103285.7392,104052.9876,104820.4132,105570.6278,110934.4914,Mapping
Blocked,Female,done,23,F_done.wav,None,736.3848789,3421,114026.662,106337.7433,107105.0091,107872.6489,108622.8972,109390.1954,110157.2445,110924.6209,114794.1365,101000.7698,101768.0106,102535.076,103285.7392,104052.9876,104820.4132,105570.6278,114035.7246,Mapping
Blocked,Female,done,23,F_jaw.wav,space,455.5602549,3421,114026.662,106337.7433,107105.0091,107872.6489,108622.8972,109390.1954,110157.2445,110924.6209,114794.1365,115561.2776,101768.0106,102535.076,103285.7392,104052.9876,104820.4132,105570.6278,114804.411,Mapping
Blocked,Female,done,23,F_gnash.wav,None,730.713509,3421,114026.662,106337.7433,107105.0091,107872.6489,108622.8972,109390.1954,110157.2445,110924.6209,114794.1365,115561.2776,116328.4182,102535.076,103285.7392,104052.9876,104820.4132,105570.6278,115570.586,Mapping
Blocked,Female,done,23,F_romp.wav,None,726.3591932,3421,114026.662,106337.7433,107105.0091,107872.6489,108622.8972,109390.1954,110157.2445,110924.6209,114794.1365,115561.2776,116328.4182,117095.9443,103285.7392,104052.9876,104820.4132,105570.6278,116337.7544,Mapping
Blocked,Female,done,23,F_gnash.wav,None,721.3070868,3421,114026.662,106337.7433,107105.0091,107872.6489,108622.8972,109390.1954,110157.2445,110924.6209,114794.1365,115561.2776,116328.4182,117095.9443,117846.267,104052.9876,104820.4132,105570.6278,117105.7659,Mapping
Blocked,Female,done,23,F_park.wav,None,733.5451748,3421,114026.662,106337.7433,107105.0091,107872.6489,108622.8972,109390.1954,110157.2445,110924.6209,114794.1365,115561.2776,116328.4182,117095.9443,117846.267,118613.4815,104820.4132,105570.6278,117856.4733,Mapping
Blocked,Female,done,23,F_jolt.wav,None,728.9095167,3421,114026.662,106337.7433,107105.0091,107872.6489,108622.8972,109390.1954,110157.2445,110924.6209,114794.1365,115561.2776,116328.4182,117095.9443,117846.267,118613.4815,119380.8277,105570.6278,118624.0117,Mapping
Blocked,Female,done,23,F_lash.wav,None,725.3726395,3421,114026.662,106337.7433,107105.0091,107872.6489,108622.8972,109390.1954,110157.2445,110924.6209,114794.1365,115561.2776,116328.4182,117095.9443,117846.267,118613.4815,119380.8277,120148.0789,119390.4604,Mapping
Blocked,Female,done,23,F_done.wav,None,721.3444952,3421,114026.662,120898.4041,107105.0091,107872.6489,108622.8972,109390.1954,110157.2445,110924.6209,114794.1365,115561.2776,116328.4182,117095.9443,117846.267,118613.4815,119380.8277,120148.0789,120157.5512,Mapping
Blocked,Female,done,23,F_bluff.wav,space,391.7734222,3421,114026.662,120898.4041,121665.8134,107872.6489,108622.8972,109390.1954,110157.2445,110924.6209,114794.1365,115561.2776,116328.4182,117095.9443,117846.267,118613.4815,119380.8277,120148.0789,120907.9961,Mapping
Blocked,Female,done,23,F_done.wav,None,728.6269376,3421,114026.662,120898.4041,121665.8134,122433.1233,108622.8972,109390.1954,110157.2445,110924.6209,114794.1365,115561.2776,116328.4182,117095.9443,117846.267,118613.4815,119380.8277,120148.0789,121675.4616,Mapping
Blocked,Female,done,23,F_priest.wav,space,368.7138502,3421,114026.662,120898.4041,121665.8134,122433.1233,123200.2268,109390.1954,110157.2445,110924.6209,114794.1365,115561.2776,116328.4182,117095.9443,117846.267,118613.4815,119380.8277,120148.0789,122442.9867,Mapping
Blocked,Female,done,23,F_cling.wav,None,719.8577086,3421,114026.662,120898.4041,121665.8134,122433.1233,123200.2268,123950.7944,110157.2445,110924.6209,114794.1365,115561.2776,116328.4182,117095.9443,117846.267,118613.4815,119380.8277,120148.0789,123209.4666,Mapping
Blocked,Female,done,23,F_done.wav,None,731.6444125,3421,114026.662,120898.4041,121665.8134,122433.1233,123200.2268,123950.7944,124717.986,110924.6209,114794.1365,115561.2776,116328.4182,117095.9443,117846.267,118613.4815,119380.8277,120148.0789,123960.6999,Mapping
Blocked,Female,done,23,F_greet.wav,space,451.5086142,3421,114026.662,120898.4041,121665.8134,122433.1233,123200.2268,123950.7944,124717.986,125485.2388,114794.1365,115561.2776,116328.4182,117095.9443,117846.267,118613.4815,119380.8277,120148.0789,124728.1304,Mapping
Blocked,Female,cave,8,F_gnash.wav,None,722.7187445,3421,128587.3176,120898.4041,121665.8134,122433.1233,123200.2268,123950.7944,124717.986,125485.2388,114794.1365,115561.2776,116328.4182,117095.9443,117846.267,118613.4815,119380.8277,120148.0789,125495.1068,Mapping
Blocked,Female,cave,8,F_cave.wav,None,735.7325349,3421,128587.3176,120898.4041,121665.8134,122433.1233,123200.2268,123950.7944,124717.986,125485.2388,129354.7602,115561.2776,116328.4182,117095.9443,117846.267,118613.4815,119380.8277,120148.0789,128596.7784,Mapping
Blocked,Female,cave,8,F_lash.wav,space,431.0411038,3421,128587.3176,120898.4041,121665.8134,122433.1233,123200.2268,123950.7944,124717.986,125485.2388,129354.7602,130122.073,116328.4182,117095.9443,117846.267,118613.4815,119380.8277,120148.0789,129364.4109,Mapping
Blocked,Female,cave,8,F_lash.wav,None,725.9705691,3421,128587.3176,120898.4041,121665.8134,122433.1233,123200.2268,123950.7944,124717.986,125485.2388,129354.7602,130122.073,130889.3848,117095.9443,117846.267,118613.4815,119380.8277,120148.0789,130131.7199,Mapping
Blocked,Female,cave,8,F_cave.wav,None,721.0752107,3421,128587.3176,120898.4041,121665.8134,122433.1233,123200.2268,123950.7944,124717.986,125485.2388,129354.7602,130122.073,130889.3848,131639.4658,117846.267,118613.4815,119380.8277,120148.0789,130899.5227,Mapping
Blocked,Female,cave,8,F_lash.wav,space,489.6988459,3421,128587.3176,120898.4041,121665.8134,122433.1233,123200.2268,123950.7944,124717.986,125485.2388,129354.7602,130122.073,130889.3848,131639.4658,132406.9814,118613.4815,119380.8277,120148.0789,131649.6767,Mapping
Blocked,Female,cave,8,F_park.wav,None,728.7654439,3421,128587.3176,120898.4041,121665.8134,122433.1233,123200.2268,123950.7944,124717.986,125485.2388,129354.7602,130122.073,130889.3848,131639.4658,132406.9814,133173.8394,119380.8277,120148.0789,132416.9669,Mapping
Blocked,Female,cave,8,F_knife.wav,None,725.1744634,3421,128587.3176,120898.4041,121665.8134,122433.1233,123200.2268,123950.7944,124717.986,125485.2388,129354.7602,130122.073,130889.3848,131639.4658,132406.9814,133173.8394,133941.4282,120148.0789,133183.6962,Mapping
Blocked,Female,cave,8,F_jaw.wav,None,720.3440294,3421,128587.3176,120898.4041,121665.8134,122433.1233,123200.2268,123950.7944,124717.986,125485.2388,129354.7602,130122.073,130889.3848,131639.4658,132406.9814,133173.8394,133941.4282,134691.9785,133951.5074,Mapping
Blocked,Female,cave,8,F_cave.wav,None,732.7067126,3421,128587.3176,135459.2981,121665.8134,122433.1233,123200.2268,123950.7944,124717.986,125485.2388,129354.7602,130122.073,130889.3848,131639.4658,132406.9814,133173.8394,133941.4282,134691.9785,134701.9346,Mapping
Blocked,Female,cave,8,F_cad.wav,space,563.4393282,3421,128587.3176,135459.2981,136226.3397,122433.1233,123200.2268,123950.7944,124717.986,125485.2388,129354.7602,130122.073,130889.3848,131639.4658,132406.9814,133173.8394,133941.4282,134691.9785,135463.8277,Mapping
Blocked,Female,cave,8,F_bluff.wav,None,723.7897012,3421,128587.3176,135459.2981,136226.3397,136993.5811,123200.2268,123950.7944,124717.986,125485.2388,129354.7602,130122.073,130889.3848,131639.4658,132406.9814,133173.8394,133941.4282,134691.9785,136236.2507,Mapping
Blocked,Female,cave,8,F_cave.wav,None,719.6657155,3421,128587.3176,135459.2981,136226.3397,136993.5811,137744.2164,123950.7944,124717.986,125485.2388,129354.7602,130122.073,130889.3848,131639.4658,132406.9814,133173.8394,133941.4282,134691.9785,137003.3381,Mapping
Blocked,Female,cave,8,F_park.wav,space,496.9871622,3421,128587.3176,135459.2981,136226.3397,136993.5811,137744.2164,138511.4658,124717.986,125485.2388,129354.7602,130122.073,130889.3848,131639.4658,132406.9814,133173.8394,133941.4282,134691.9785,137754.0686,Mapping
Blocked,Female,cave,8,F_priest.wav,None,726.8606629,3421,128587.3176,135459.2981,136226.3397,136993.5811,137744.2164,138511.4658,139278.5124,125485.2388,129354.7602,130122.073,130889.3848,131639.4658,132406.9814,133173.8394,133941.4282,134691.9785,138521.4269,Mapping
Blocked,Female,cave,8,F_reek.wav,None,723.0118364,3421,128587.3176,135459.2981,136226.3397,136993.5811,137744.2164,138511.4658,139278.5124,140029.1799,129354.7602,130122.073,130889.3848,131639.4658,132406.9814,133173.8394,133941.4282,134691.9785,139288.2369,Mapping
Blocked,Female,done,20,F_bluff.wav,None,735.7569598,3421,143147.8869,135459.2981,136226.3397,136993.5811,137744.2164,138511.4658,139278.5124,140029.1799,129354.7602,130122.073,130889.3848,131639.4658,132406.9814,133173.8394,133941.4282,134691.9785,140038.5167,Mapping
Blocked,Female,done,20,F_done.wav,None,735.9841978,3421,143147.8869,135459.2981,136226.3397,136993.5811,137744.2164,138511.4658,139278.5124,140029.1799,143915.2337,130122.073,130889.3848,131639.4658,132406.9814,133173.8394,133941.4282,134691.9785,143157.221,Mapping
Blocked,Female,done,20,F_priest.wav,space,405.4203881,3421,143147.8869,135459.2981,136226.3397,136993.5811,137744.2164,138511.4658,139278.5124,140029.1799,143915.2337,144682.6407,130889.3848,131639.4658,132406.9814,133173.8394,133941.4282,134691.9785,143925.5333,Mapping
Blocked,Female,done,20,F_done.wav,None,726.1804948,3421,143147.8869,135459.2981,136226.3397,136993.5811,137744.2164,138511.4658,139278.5124,140029.1799,143915.2337,144682.6407,145449.8366,131639.4658,132406.9814,133173.8394,133941.4282,134691.9785,144692.3471,Mapping
Blocked,Female,done,20,F_reek.wav,space,415.5477891,3421,143147.8869,135459.2981,136226.3397,136993.5811,137744.2164,138511.4658,139278.5124,140029.1799,143915.2337,144682.6407,145449.8366,146200.2392,132406.9814,133173.8394,133941.4282,134691.9785,145459.3519,Mapping
Blocked,Female,done,20,F_done.wav,None,734.1573266,3421,143147.8869,135459.2981,136226.3397,136993.5811,137744.2164,138511.4658,139278.5124,140029.1799,143915.2337,144682.6407,145449.8366,146200.2392,146967.4014,133173.8394,133941.4282,134691.9785,146209.6836,Mapping
Blocked,Female,done,20,F_park.wav,space,417.2871662,3421,143147.8869,135459.2981,136226.3397,136993.5811,137744.2164,138511.4658,139278.5124,140029.1799,143915.2337,144682.6407,145449.8366,146200.2392,146967.4014,147734.814,133941.4282,134691.9785,146977.5532,Mapping
Blocked,Female,done,20,F_depth.wav,None,724.9531001,3421,143147.8869,135459.2981,136226.3397,136993.5811,137744.2164,138511.4658,139278.5124,140029.1799,143915.2337,144682.6407,145449.8366,146200.2392,146967.4014,147734.814,148502.1462,134691.9785,147744.4146,Mapping
Blocked,Female,done,20,F_gnash.wav,space,347.0668653,3421,143147.8869,135459.2981,136226.3397,136993.5811,137744.2164,138511.4658,139278.5124,140029.1799,143915.2337,144682.6407,145449.8366,146200.2392,146967.4014,147734.814,148502.1462,149252.3447,148511.7326,Mapping
Blocked,Female,done,20,F_priest.wav,None,733.2363166,3421,143147.8869,150019.7685,136226.3397,136993.5811,137744.2164,138511.4658,139278.5124,140029.1799,143915.2337,144682.6407,145449.8366,146200.2392,146967.4014,147734.814,148502.1462,149252.3447,149261.4262,Mapping
Blocked,Female,done,20,F_romp.wav,None,727.9186342,3421,143147.8869,150019.7685,150786.7245,136993.5811,137744.2164,138511.4658,139278.5124,140029.1799,143915.2337,144682.6407,145449.8366,146200.2392,146967.4014,147734.814,148502.1462,149252.3447,150029.8687,Mapping
Blocked,Female,done,20,F_jolt.wav,None,724.5103717,3421,143147.8869,150019.7685,150786.7245,151553.8864,137744.2164,138511.4658,139278.5124,140029.1799,143915.2337,144682.6407,145449.8366,146200.2392,146967.4014,147734.814,148502.1462,149252.3447,150796.3263,Mapping
Blocked,Female,done,20,F_done.wav,None,720.472333,3421,143147.8869,150019.7685,150786.7245,151553.8864,152304.7097,138511.4658,139278.5124,140029.1799,143915.2337,144682.6407,145449.8366,146200.2392,146967.4014,147734.814,148502.1462,149252.3447,151563.3695,Mapping
Blocked,Female,done,20,F_cling.wav,space,432.2004821,3421,143147.8869,150019.7685,150786.7245,151553.8864,152304.7097,153071.9192,139278.5124,140029.1799,143915.2337,144682.6407,145449.8366,146200.2392,146967.4014,147734.814,148502.1462,149252.3447,152314.4849,Mapping
Blocked,Female,done,20,F_knife.wav,None,727.8465983,3421,143147.8869,150019.7685,150786.7245,151553.8864,152304.7097,153071.9192,153839.2125,140029.1799,143915.2337,144682.6407,145449.8366,146200.2392,146967.4014,147734.814,148502.1462,149252.3447,153081.4081,Mapping
Blocked,Female,done,20,F_dime.wav,None,723.1630199,3421,143147.8869,150019.7685,150786.7245,151553.8864,152304.7097,153071.9192,153839.2125,154589.9072,143915.2337,144682.6407,145449.8366,146200.2392,146967.4014,147734.814,148502.1462,149252.3447,153849.2728,Mapping
Blocked,Female,ball,2,F_depth.wav,space,467.3315007,3421,157708.562,150019.7685,150786.7245,151553.8864,152304.7097,153071.9192,153839.2125,154589.9072,143915.2337,144682.6407,145449.8366,146200.2392,146967.4014,147734.814,148502.1462,149252.3447,154599.2539,Mapping
Blocked,Female,ball,2,F_gnash.wav,None,735.3683366,3421,157708.562,150019.7685,150786.7245,151553.8864,152304.7097,153071.9192,153839.2125,154589.9072,158475.9582,144682.6407,145449.8366,146200.2392,146967.4014,147734.814,148502.1462,149252.3447,157718.1647,Mapping
Blocked,Female,ball,2,F_ball.wav,None,731.5229094,3421,157708.562,150019.7685,150786.7245,151553.8864,152304.7097,153071.9192,153839.2125,154589.9072,158475.9582,159243.0858,145449.8366,146200.2392,146967.4014,147734.814,148502.1462,149252.3447,158485.2722,Mapping
Blocked,Female,ball,2,F_knife.wav,space,438.3847602,3421,157708.562,150019.7685,150786.7245,151553.8864,152304.7097,153071.9192,153839.2125,154589.9072,158475.9582,159243.0858,160010.4273,146200.2392,146967.4014,147734.814,148502.1462,149252.3447,159259.9991,Mapping
Blocked,Female,ball,2,F_park.wav,None,721.7649631,3421,157708.562,150019.7685,150786.7245,151553.8864,152304.7097,153071.9192,153839.2125,154589.9072,158475.9582,159243.0858,160010.4273,160760.7324,146967.4014,147734.814,148502.1462,149252.3447,160020.4873,Mapping
Blocked,Female,ball,2,F_depth.wav,None,735.5640391,3421,157708.562,150019.7685,150786.7245,151553.8864,152304.7097,153071.9192,153839.2125,154589.9072,158475.9582,159243.0858,160010.4273,160760.7324,161527.9923,147734.814,148502.1462,149252.3447,160770.5488,Mapping
Blocked,Female,ball,2,F_ball.wav,None,732.1718531,3421,157708.562,150019.7685,150786.7245,151553.8864,152304.7097,153071.9192,153839.2125,154589.9072,158475.9582,159243.0858,160010.4273,160760.7324,161527.9923,162295.0491,148502.1462,149252.3447,161537.0466,Mapping
Blocked,Female,ball,2,F_cad.wav,space,442.180411,3421,157708.562,150019.7685,150786.7245,151553.8864,152304.7097,153071.9192,153839.2125,154589.9072,158475.9582,159243.0858,160010.4273,160760.7324,161527.9923,162295.0491,163062.5545,149252.3447,162304.1117,Mapping
Blocked,Female,ball,2,F_ball.wav,None,722.5579787,3421,157708.562,150019.7685,150786.7245,151553.8864,152304.7097,153071.9192,153839.2125,154589.9072,158475.9582,159243.0858,160010.4273,160760.7324,161527.9923,162295.0491,163062.5545,163812.8881,163072.117,Mapping
Blocked,Female,ball,2,F_lash.wav,space,578.7425041,3421,157708.562,164580.4049,150786.7245,151553.8864,152304.7097,153071.9192,153839.2125,154589.9072,158475.9582,159243.0858,160010.4273,160760.7324,161527.9923,162295.0491,163062.5545,163812.8881,163823.4851,Mapping
Blocked,Female,ball,2,F_jaw.wav,None,730.756483,3421,157708.562,164580.4049,165348.0961,151553.8864,152304.7097,153071.9192,153839.2125,154589.9072,158475.9582,159243.0858,160010.4273,160760.7324,161527.9923,162295.0491,163062.5545,163812.8881,164589.5634,Mapping
Blocked,Female,ball,2,F_depth.wav,None,725.7284913,3421,157708.562,164580.4049,165348.0961,166114.7636,152304.7097,153071.9192,153839.2125,154589.9072,158475.9582,159243.0858,160010.4273,160760.7324,161527.9923,162295.0491,163062.5545,163812.8881,165357.7718,Mapping
Blocked,Female,ball,2,F_ball.wav,None,722.6436175,3421,157708.562,164580.4049,165348.0961,166114.7636,166865.2169,153071.9192,153839.2125,154589.9072,158475.9582,159243.0858,160010.4273,160760.7324,161527.9923,162295.0491,163062.5545,163812.8881,166124.1781,Mapping
Blocked,Female,ball,2,F_lash.wav,space,558.6636178,3421,157708.562,164580.4049,165348.0961,166114.7636,166865.2169,167632.5067,153839.2125,154589.9072,158475.9582,159243.0858,160010.4273,160760.7324,161527.9923,162295.0491,163062.5545,163812.8881,166875.4314,Mapping
Blocked,Female,ball,2,F_knife.wav,None,730.016645,3421,157708.562,164580.4049,165348.0961,166114.7636,166865.2169,167632.5067,168399.7283,154589.9072,158475.9582,159243.0858,160010.4273,160760.7324,161527.9923,162295.0491,163062.5545,163812.8881,167642.1951,Mapping
Blocked,Female,ball,2,F_cling.wav,None,726.5991075,3421,157708.562,164580.4049,165348.0961,166114.7636,166865.2169,167632.5067,168399.7283,169167.0265,158475.9582,159243.0858,160010.4273,160760.7324,161527.9923,162295.0491,163062.5545,163812.8881,168408.854,Mapping
Blocked,Female,cave,7,F_romp.wav,None,722.128544,3421,172269.0175,164580.4049,165348.0961,166114.7636,166865.2169,167632.5067,168399.7283,169167.0265,158475.9582,159243.0858,160010.4273,160760.7324,161527.9923,162295.0491,163062.5545,163812.8881,169176.5993,Mapping
Blocked,Female,cave,7,F_cave.wav,None,735.4839649,3421,172269.0175,164580.4049,165348.0961,166114.7636,166865.2169,167632.5067,168399.7283,169167.0265,173036.1333,159243.0858,160010.4273,160760.7324,161527.9923,162295.0491,163062.5545,163812.8881,172278.4861,Mapping
Blocked,Female,cave,7,F_reek.wav,space,540.3265795,3421,172269.0175,164580.4049,165348.0961,166114.7636,166865.2169,167632.5067,168399.7283,169167.0265,173036.1333,173803.4758,160010.4273,160760.7324,161527.9923,162295.0491,163062.5545,163812.8881,173045.5447,Mapping
Blocked,Female,cave,7,F_jaw.wav,None,726.8504603,3421,172269.0175,164580.4049,165348.0961,166114.7636,166865.2169,167632.5067,168399.7283,169167.0265,173036.1333,173803.4758,174570.9339,160760.7324,161527.9923,162295.0491,163062.5545,163812.8881,173812.5616,Mapping
Blocked,Female,cave,7,F_cave.wav,None,721.7702186,3421,172269.0175,164580.4049,165348.0961,166114.7636,166865.2169,167632.5067,168399.7283,169167.0265,173036.1333,173803.4758,174570.9339,175321.1156,161527.9923,162295.0491,163062.5545,163812.8881,174580.8717,Mapping
Blocked,Female,cave,7,F_cling.wav,space,535.441733,3421,172269.0175,164580.4049,165348.0961,166114.7636,166865.2169,167632.5067,168399.7283,169167.0265,173036.1333,173803.4758,174570.9339,175321.1156,176088.8118,162295.0491,163062.5545,163812.8881,175330.391,Mapping
Blocked,Female,cave,7,F_bluff.wav,None,729.8308359,3421,172269.0175,164580.4049,165348.0961,166114.7636,166865.2169,167632.5067,168399.7283,169167.0265,173036.1333,173803.4758,174570.9339,175321.1156,176088.8118,176855.8856,163062.5545,163812.8881,176098.4111,Mapping
Blocked,Female,cave,7,F_cad.wav,None,725.7646639,3421,172269.0175,164580.4049,165348.0961,166114.7636,166865.2169,167632.5067,168399.7283,169167.0265,173036.1333,173803.4758,174570.9339,175321.1156,176088.8118,176855.8856,177622.9844,163812.8881,176865.7588,Mapping
Blocked,Female,cave,7,F_dime.wav,None,722.0679475,3421,172269.0175,164580.4049,165348.0961,166114.7636,166865.2169,167632.5067,168399.7283,169167.0265,173036.1333,173803.4758,174570.9339,175321.1156,176088.8118,176855.8856,177622.9844,178373.7805,177632.6585,Mapping
Blocked,Female,cave,7,F_cave.wav,None,734.4386699,3421,172269.0175,179140.8911,165348.0961,166114.7636,166865.2169,167632.5067,168399.7283,169167.0265,173036.1333,173803.4758,174570.9339,175321.1156,176088.8118,176855.8856,177622.9844,178373.7805,178383.5403,Mapping
Blocked,Female,cave,7,F_cad.wav,space,562.8080089,3421,172269.0175,179140.8911,179907.9828,166114.7636,166865.2169,167632.5067,168399.7283,169167.0265,173036.1333,173803.4758,174570.9339,175321.1156,176088.8118,176855.8856,177622.9844,178373.7805,179150.8895,Mapping
Blocked,Female,cave,7,F_park.wav,None,725.6493447,3421,172269.0175,179140.8911,179907.9828,180675.2476,166865.2169,167632.5067,168399.7283,169167.0265,173036.1333,173803.4758,174570.9339,175321.1156,176088.8118,176855.8856,177622.9844,178373.7805,179917.8437,Mapping
Blocked,Female,cave,7,F_cave.wav,None,721.8549307,3421,172269.0175,179140.8911,179907.9828,180675.2476,181425.5469,167632.5067,168399.7283,169167.0265,173036.1333,173803.4758,174570.9339,175321.1156,176088.8118,176855.8856,177622.9844,178373.7805,180684.9042,Mapping
Blocked,Female,cave,7,F_cling.wav,space,574.685608,3421,172269.0175,179140.8911,179907.9828,180675.2476,181425.5469,182193.043,168399.7283,169167.0265,173036.1333,173803.4758,174570.9339,175321.1156,176088.8118,176855.8856,177622.9844,178373.7805,181434.8927,Mapping
Blocked,Female,cave,7,F_priest.wav,None,729.5167223,3421,172269.0175,179140.8911,179907.9828,180675.2476,181425.5469,182193.043,182960.2642,169167.0265,173036.1333,173803.4758,174570.9339,175321.1156,176088.8118,176855.8856,177622.9844,178373.7805,182202.7338,Mapping
Blocked,Female,cave,7,F_greet.wav,None,725.4706454,3421,172269.0175,179140.8911,179907.9828,180675.2476,181425.5469,182193.043,182960.2642,183727.5653,173036.1333,173803.4758,174570.9339,175321.1156,176088.8118,176855.8856,177622.9844,178373.7805,182970.1162,Mapping
Blocked,Female,ball,1,F_romp.wav,None,721.600486,3421,186829.5454,179140.8911,179907.9828,180675.2476,181425.5469,182193.043,182960.2642,183727.5653,173036.1333,173803.4758,174570.9339,175321.1156,176088.8118,176855.8856,177622.9844,178373.7805,183737.2233,Mapping
Blocked,Female,ball,1,F_ball.wav,None,734.7095003,3421,186829.5454,179140.8911,179907.9828,180675.2476,181425.5469,182193.043,182960.2642,183727.5653,187597.044,173803.4758,174570.9339,175321.1156,176088.8118,176855.8856,177622.9844,178373.7805,186839.7139,Mapping
Blocked,Female,ball,1,F_dime.wav,space,698.4200301,3421,186829.5454,179140.8911,179907.9828,180675.2476,181425.5469,182193.043,182960.2642,183727.5653,187597.044,188364.3939,174570.9339,175321.1156,176088.8118,176855.8856,177622.9844,178373.7805,187606.937,Mapping
Blocked,Female,ball,1,F_reek.wav,None,726.3193103,3421,186829.5454,179140.8911,179907.9828,180675.2476,181425.5469,182193.043,182960.2642,183727.5653,187597.044,188364.3939,189131.578,175321.1156,176088.8118,176855.8856,177622.9844,178373.7805,188373.9845,Mapping
Blocked,Female,ball,1,F_priest.wav,None,722.3684583,3421,186829.5454,179140.8911,179907.9828,180675.2476,181425.5469,182193.043,182960.2642,183727.5653,187597.044,188364.3939,189131.578,189881.9478,176088.8118,176855.8856,177622.9844,178373.7805,189141.399,Mapping
Blocked,Female,ball,1,F_ball.wav,None,734.3047997,3421,186829.5454,179140.8911,179907.9828,180675.2476,181425.5469,182193.043,182960.2642,183727.5653,187597.044,188364.3939,189131.578,189881.9478,190648.9439,176855.8856,177622.9844,178373.7805,189892.768,Mapping
Blocked,Female,ball,1,F_knife.wav,space,398.5166755,3421,186829.5454,179140.8911,179907.9828,180675.2476,181425.5469,182193.043,182960.2642,183727.5653,187597.044,188364.3939,189131.578,189881.9478,190648.9439,191417.1471,177622.9844,178373.7805,190658.7449,Mapping
Blocked,Female,ball,1,F_jolt.wav,None,725.683663,3421,186829.5454,179140.8911,179907.9828,180675.2476,181425.5469,182193.043,182960.2642,183727.5653,187597.044,188364.3939,189131.578,189881.9478,190648.9439,191417.1471,192183.5874,178373.7805,191426.9298,Mapping
Blocked,Female,ball,1,F_ball.wav,None,722.8161329,3421,186829.5454,179140.8911,179907.9828,180675.2476,181425.5469,182193.043,182960.2642,183727.5653,187597.044,188364.3939,189131.578,189881.9478,190648.9439,191417.1471,192183.5874,192933.8066,192193.3327,Mapping
Blocked,Female,ball,1,F_park.wav,space,633.4178597,3421,186829.5454,193701.4854,179907.9828,180675.2476,181425.5469,182193.043,182960.2642,183727.5653,187597.044,188364.3939,189131.578,189881.9478,190648.9439,191417.1471,192183.5874,192933.8066,192943.7565,Mapping
Blocked,Female,ball,1,F_bluff.wav,None,730.5898424,3421,186829.5454,193701.4854,194468.5672,180675.2476,181425.5469,182193.043,182960.2642,183727.5653,187597.044,188364.3939,189131.578,189881.9478,190648.9439,191417.1471,192183.5874,192933.8066,193711.2984,Mapping
Blocked,Female,ball,1,F_bluff.wav,None,734.6513765,3421,186829.5454,193701.4854,194468.5672,195235.5198,181425.5469,182193.043,182960.2642,183727.5653,187597.044,188364.3939,189131.578,189881.9478,190648.9439,191417.1471,192183.5874,192933.8066,194472.7221,Mapping
Blocked,Female,ball,1,F_ball.wav,None,725.5723616,3421,186829.5454,193701.4854,194468.5672,195235.5198,196002.8635,182193.043,182960.2642,183727.5653,187597.044,188364.3939,189131.578,189881.9478,190648.9439,191417.1471,192183.5874,192933.8066,195245.125,Mapping
Blocked,Female,ball,1,F_depth.wav,space,500.4847748,3421,186829.5454,193701.4854,194468.5672,195235.5198,196002.8635,196753.62,182960.2642,183727.5653,187597.044,188364.3939,189131.578,189881.9478,190648.9439,191417.1471,192183.5874,192933.8066,196012.546,Mapping
Blocked,Female,ball,1,F_romp.wav,None,733.6577112,3421,186829.5454,193701.4854,194468.5672,195235.5198,196002.8635,196753.62,197520.9387,183727.5653,187597.044,188364.3939,189131.578,189881.9478,190648.9439,191417.1471,192183.5874,192933.8066,196763.3239,Mapping
Blocked,Female,ball,1,F_jaw.wav,None,729.9708892,3421,186829.5454,193701.4854,194468.5672,195235.5198,196002.8635,196753.62,197520.9387,198288.6095,187597.044,188364.3939,189131.578,189881.9478,190648.9439,191417.1471,192183.5874,192933.8066,197530.4023,Mapping
Blocked,Female,ball,6,F_lash.wav,None,725.123141,3421,201390.2069,193701.4854,194468.5672,195235.5198,196002.8635,196753.62,197520.9387,198288.6095,187597.044,188364.3939,189131.578,189881.9478,190648.9439,191417.1471,192183.5874,192933.8066,198298.6014,Mapping
Blocked,Female,ball,6,F_cling.wav,None,734.8767594,3421,201390.2069,193701.4854,194468.5672,195235.5198,196002.8635,196753.62,197520.9387,198288.6095,202157.4618,188364.3939,189131.578,189881.9478,190648.9439,191417.1471,192183.5874,192933.8066,201400.0872,Mapping
Blocked,Female,ball,6,F_ball.wav,None,730.9614616,3421,201390.2069,193701.4854,194468.5672,195235.5198,196002.8635,196753.62,197520.9387,198288.6095,202157.4618,202924.8516,189131.578,189881.9478,190648.9439,191417.1471,192183.5874,192933.8066,202167.3471,Mapping
Blocked,Female,ball,6,F_reek.wav,space,530.1116835,3421,201390.2069,193701.4854,194468.5672,195235.5198,196002.8635,196753.62,197520.9387,198288.6095,202157.4618,202924.8516,203692.0997,189881.9478,190648.9439,191417.1471,192183.5874,192933.8066,202934.689,Mapping
Blocked,Female,ball,6,F_ball.wav,None,721.6252191,3421,201390.2069,193701.4854,194468.5672,195235.5198,196002.8635,196753.62,197520.9387,198288.6095,202157.4618,202924.8516,203692.0997,204442.1739,190648.9439,191417.1471,192183.5874,192933.8066,203702.0905,Mapping
Blocked,Female,ball,6,F_reek.wav,space,437.3172047,3421,201390.2069,193701.4854,194468.5672,195235.5198,196002.8635,196753.62,197520.9387,198288.6095,202157.4618,202924.8516,203692.0997,204442.1739,205209.1908,191417.1471,192183.5874,192933.8066,204451.4514,Mapping
Blocked,Female,ball,6,F_ball.wav,None,734.5335837,3421,201390.2069,193701.4854,194468.5672,195235.5198,196002.8635,196753.62,197520.9387,198288.6095,202157.4618,202924.8516,203692.0997,204442.1739,205209.1908,205977.1065,192183.5874,192933.8066,205218.2534,Mapping
Blocked,Female,ball,6,F_jolt.wav,space,396.9439399,3421,201390.2069,193701.4854,194468.5672,195235.5198,196002.8635,196753.62,197520.9387,198288.6095,202157.4618,202924.8516,203692.0997,204442.1739,205209.1908,205977.1065,206744.2263,192933.8066,205987.7653,Mapping
Blocked,Female,ball,6,F_cling.wav,None,724.3564064,3421,201390.2069,193701.4854,194468.5672,195235.5198,196002.8635,196753.62,197520.9387,198288.6095,202157.4618,202924.8516,203692.0997,204442.1739,205209.1908,205977.1065,206744.2263,207511.3582,206754.141,Mapping
Blocked,Female,ball,6,F_ball.wav,None,720.9484521,3421,201390.2069,208262.1948,194468.5672,195235.5198,196002.8635,196753.62,197520.9387,198288.6095,202157.4618,202924.8516,203692.0997,204442.1739,205209.1908,205977.1065,206744.2263,207511.3582,207520.9616,Mapping
Blocked,Female,ball,6,F_greet.wav,space,464.484686,3421,201390.2069,208262.1948,209029.4844,195235.5198,196002.8635,196753.62,197520.9387,198288.6095,202157.4618,202924.8516,203692.0997,204442.1739,205209.1908,205977.1065,206744.2263,207511.3582,208272.1444,Mapping
Blocked,Female,ball,6,F_priest.wav,None,728.5756161,3421,201390.2069,208262.1948,209029.4844,209796.6441,196002.8635,196753.62,197520.9387,198288.6095,202157.4618,202924.8516,203692.0997,204442.1739,205209.1908,205977.1065,206744.2263,207511.3582,209039.2371,Mapping
Blocked,Female,ball,6,F_jaw.wav,None,725.0866592,3421,201390.2069,208262.1948,209029.4844,209796.6441,210563.5175,196753.62,197520.9387,198288.6095,202157.4618,202924.8516,203692.0997,204442.1739,205209.1908,205977.1065,206744.2263,207511.3582,209806.2469,Mapping
Blocked,Female,ball,6,F_depth.wav,None,721.7176603,3421,201390.2069,208262.1948,209029.4844,209796.6441,210563.5175,211313.8867,197520.9387,198288.6095,202157.4618,202924.8516,203692.0997,204442.1739,205209.1908,205977.1065,206744.2263,207511.3582,210573.1296,Mapping
Blocked,Female,ball,6,F_priest.wav,None,734.8090522,3421,201390.2069,208262.1948,209029.4844,209796.6441,210563.5175,211313.8867,212081.3701,198288.6095,202157.4618,202924.8516,203692.0997,204442.1739,205209.1908,205977.1065,206744.2263,207511.3582,211323.6471,Mapping
Blocked,Female,ball,6,F_cling.wav,None,730.7234034,3421,201390.2069,208262.1948,209029.4844,209796.6441,210563.5175,211313.8867,212081.3701,212848.69,202157.4618,202924.8516,203692.0997,204442.1739,205209.1908,205977.1065,206744.2263,207511.3582,212091.2743,Mapping
Blocked,Female,tile,18,F_lash.wav,None,727.3401823,3421,215950.6089,208262.1948,209029.4844,209796.6441,210563.5175,211313.8867,212081.3701,212848.69,202157.4618,202924.8516,203692.0997,204442.1739,205209.1908,205977.1065,206744.2263,207511.3582,212858.4081,Mapping
Blocked,Female,tile,18,F_jaw.wav,None,735.2842418,3421,215950.6089,208262.1948,209029.4844,209796.6441,210563.5175,211313.8867,212081.3701,212848.69,216717.9693,202924.8516,203692.0997,204442.1739,205209.1908,205977.1065,206744.2263,207511.3582,215960.3734,Mapping
Blocked,Female,tile,18,F_bluff.wav,None,731.7900304,3421,215950.6089,208262.1948,209029.4844,209796.6441,210563.5175,211313.8867,212081.3701,212848.69,216717.9693,217485.257,203692.0997,204442.1739,205209.1908,205977.1065,206744.2263,207511.3582,216727.4574,Mapping
Blocked,Female,tile,18,F_romp.wav,None,728.2769596,3421,215950.6089,208262.1948,209029.4844,209796.6441,210563.5175,211313.8867,212081.3701,212848.69,216717.9693,217485.257,218252.5952,204442.1739,205209.1908,205977.1065,206744.2263,207511.3582,217494.8041,Mapping
Blocked,Female,tile,18,F_jaw.wav,None,724.3576432,3421,215950.6089,208262.1948,209029.4844,209796.6441,210563.5175,211313.8867,212081.3701,212848.69,216717.9693,217485.257,218252.5952,219019.8853,205209.1908,205977.1065,206744.2263,207511.3582,218262.303,Mapping
Blocked,Female,tile,18,F_romp.wav,None,720.7181221,3421,215950.6089,208262.1948,209029.4844,209796.6441,210563.5175,211313.8867,212081.3701,212848.69,216717.9693,217485.257,218252.5952,219019.8853,219770.3111,205977.1065,206744.2263,207511.3582,219029.4779,Mapping
Blocked,Female,tile,18,F_romp.wav,None,733.4972546,3421,215950.6089,208262.1948,209029.4844,209796.6441,210563.5175,211313.8867,212081.3701,212848.69,216717.9693,217485.257,218252.5952,219019.8853,219770.3111,220537.6498,206744.2263,207511.3582,219780.2709,Mapping
Blocked,Female,tile,18,F_priest.wav,None,730.0036605,3421,215950.6089,208262.1948,209029.4844,209796.6441,210563.5175,211313.8867,212081.3701,212848.69,216717.9693,217485.257,218252.5952,219019.8853,219770.3111,220537.6498,221304.7505,207511.3582,220547.37,Mapping
Blocked,Female,tile,18,F_tile.wav,None,726.3047798,3421,215950.6089,208262.1948,209029.4844,209796.6441,210563.5175,211313.8867,212081.3701,212848.69,216717.9693,217485.257,218252.5952,219019.8853,219770.3111,220537.6498,221304.7505,222072.1668,221314.8371,Mapping
Blocked,Female,tile,18,F_park.wav,space,390.2492262,3421,215950.6089,222822.4296,209029.4844,209796.6441,210563.5175,211313.8867,212081.3701,212848.69,216717.9693,217485.257,218252.5952,219019.8853,219770.3111,220537.6498,221304.7505,222072.1668,222081.8651,Mapping
Blocked,Female,tile,18,F_tile.wav,None,734.8037958,3421,215950.6089,222822.4296,223589.6809,209796.6441,210563.5175,211313.8867,212081.3701,212848.69,216717.9693,217485.257,218252.5952,219019.8853,219770.3111,220537.6498,221304.7505,222072.1668,222832.3777,Mapping
Blocked,Female,tile,18,F_knife.wav,space,600.6127084,3421,215950.6089,222822.4296,223589.6809,224356.7818,210563.5175,211313.8867,212081.3701,212848.69,216717.9693,217485.257,218252.5952,219019.8853,219770.3111,220537.6498,221304.7505,222072.1668,223599.458,Mapping
Blocked,Female,tile,18,F_tile.wav,None,727.3296705,3421,215950.6089,222822.4296,223589.6809,224356.7818,225124.4681,211313.8867,212081.3701,212848.69,216717.9693,217485.257,218252.5952,219019.8853,219770.3111,220537.6498,221304.7505,222072.1668,224366.0021,Mapping
Blocked,Female,tile,18,F_bluff.wav,space,529.1566644,3421,215950.6089,222822.4296,223589.6809,224356.7818,225124.4681,225874.7389,212081.3701,212848.69,216717.9693,217485.257,218252.5952,219019.8853,219770.3111,220537.6498,221304.7505,222072.1668,225134.8267,Mapping
Blocked,Female,tile,18,F_tile.wav,None,735.372046,3421,215950.6089,222822.4296,223589.6809,224356.7818,225124.4681,225874.7389,226642.0439,212848.69,216717.9693,217485.257,218252.5952,219019.8853,219770.3111,220537.6498,221304.7505,222072.1668,225884.7538,Mapping
Blocked,Female,tile,18,F_bluff.wav,space,396.382493,3421,215950.6089,222822.4296,223589.6809,224356.7818,225124.4681,225874.7389,226642.0439,227409.2133,216717.9693,217485.257,218252.5952,219019.8853,219770.3111,220537.6498,221304.7505,222072.1668,226651.5552,Mapping
Blocked,Female,cave,12,F_depth.wav,None,727.3067925,3421,230511.2311,222822.4296,223589.6809,224356.7818,225124.4681,225874.7389,226642.0439,227409.2133,216717.9693,217485.257,218252.5952,219019.8853,219770.3111,220537.6498,221304.7505,222072.1668,227418.9239,Mapping
Blocked,Female,cave,12,F_depth.wav,None,734.587688,3421,230511.2311,222822.4296,223589.6809,224356.7818,225124.4681,225874.7389,226642.0439,227409.2133,231278.9047,217485.257,218252.5952,219019.8853,219770.3111,220537.6498,221304.7505,222072.1668,230521.2228,Mapping
Blocked,Female,cave,12,F_romp.wav,None,731.0180394,3421,230511.2311,222822.4296,223589.6809,224356.7818,225124.4681,225874.7389,226642.0439,227409.2133,231278.9047,232045.9945,218252.5952,219019.8853,219770.3111,220537.6498,221304.7505,222072.1668,231288.5529,Mapping
Blocked,Female,cave,12,F_cling.wav,None,728.1146469,3421,230511.2311,222822.4296,223589.6809,224356.7818,225124.4681,225874.7389,226642.0439,227409.2133,231278.9047,232045.9945,232813.2031,219019.8853,219770.3111,220537.6498,221304.7505,222072.1668,232055.4594,Mapping
Blocked,Female,cave,12,F_cave.wav,None,723.8601921,3421,230511.2311,222822.4296,223589.6809,224356.7818,225124.4681,225874.7389,226642.0439,227409.2133,231278.9047,232045.9945,232813.2031,233580.3369,219770.3111,220537.6498,221304.7505,222072.1668,232823.0631,Mapping
Blocked,Female,cave,12,F_gnash.wav,space,393.7956868,3421,230511.2311,222822.4296,223589.6809,224356.7818,225124.4681,225874.7389,226642.0439,227409.2133,231278.9047,232045.9945,232813.2031,233580.3369,234330.9135,220537.6498,221304.7505,222072.1668,233589.9368,Mapping
Blocked,Female,cave,12,F_dime.wav,None,731.8571201,3421,230511.2311,222822.4296,223589.6809,224356.7818,225124.4681,225874.7389,226642.0439,227409.2133,231278.9047,232045.9945,232813.2031,233580.3369,234330.9135,235098.2878,221304.7505,222072.1668,234341.0928,Mapping
Blocked,Female,cave,12,F_cave.wav,None,728.4621513,3421,230511.2311,222822.4296,223589.6809,224356.7818,225124.4681,225874.7389,226642.0439,227409.2133,231278.9047,232045.9945,232813.2031,233580.3369,234330.9135,235098.2878,235865.5789,222072.1668,235108.0423,Mapping
Blocked,Female,cave,12,F_greet.wav,space,492.3011102,3421,230511.2311,222822.4296,223589.6809,224356.7818,225124.4681,225874.7389,226642.0439,227409.2133,231278.9047,232045.9945,232813.2031,233580.3369,234330.9135,235098.2878,235865.5789,236632.6762,235875.3316,Mapping
Blocked,Female,cave,12,F_bluff.wav,None,719.8886247,3421,230511.2311,237382.8802,223589.6809,224356.7818,225124.4681,225874.7389,226642.0439,227409.2133,231278.9047,232045.9945,232813.2031,233580.3369,234330.9135,235098.2878,235865.5789,236632.6762,236642.6323,Mapping
Blocked,Female,cave,12,F_knife.wav,None,733.9718258,3421,230511.2311,237382.8802,238150.6895,224356.7818,225124.4681,225874.7389,226642.0439,227409.2133,231278.9047,232045.9945,232813.2031,233580.3369,234330.9135,235098.2878,235865.5789,236632.6762,237392.265,Mapping
Blocked,Female,cave,12,F_cave.wav,None,728.934559,3421,230511.2311,237382.8802,238150.6895,238917.6347,225124.4681,225874.7389,226642.0439,227409.2133,231278.9047,232045.9945,232813.2031,233580.3369,234330.9135,235098.2878,235865.5789,236632.6762,238160.7993,Mapping
Blocked,Female,cave,12,F_romp.wav,space,527.3220642,3421,230511.2311,237382.8802,238150.6895,238917.6347,239685.6304,225874.7389,226642.0439,227409.2133,231278.9047,232045.9945,232813.2031,233580.3369,234330.9135,235098.2878,235865.5789,236632.6762,238928.159,Mapping
Blocked,Female,cave,12,F_bluff.wav,None,719.7606303,3421,230511.2311,237382.8802,238150.6895,238917.6347,239685.6304,240435.0757,226642.0439,227409.2133,231278.9047,232045.9945,232813.2031,233580.3369,234330.9135,235098.2878,235865.5789,236632.6762,239695.7816,Mapping
Blocked,Female,cave,12,F_cave.wav,None,734.5456416,3421,230511.2311,237382.8802,238150.6895,238917.6347,239685.6304,240435.0757,241202.6621,227409.2133,231278.9047,232045.9945,232813.2031,233580.3369,234330.9135,235098.2878,235865.5789,236632.6762,240444.7471,Mapping
Blocked,Female,cave,12,F_park.wav,space,458.4840517,3421,230511.2311,237382.8802,238150.6895,238917.6347,239685.6304,240435.0757,241202.6621,241969.7792,231278.9047,232045.9945,232813.2031,233580.3369,234330.9135,235098.2878,235865.5789,236632.6762,241212.9404,Mapping
Blocked,Female,tile,14,F_park.wav,None,725.3398681,3421,245071.794,237382.8802,238150.6895,238917.6347,239685.6304,240435.0757,241202.6621,241969.7792,231278.9047,232045.9945,232813.2031,233580.3369,234330.9135,235098.2878,235865.5789,236632.6762,241979.7804,Mapping
Blocked,Female,tile,14,F_knife.wav,None,735.7016187,3421,245071.794,237382.8802,238150.6895,238917.6347,239685.6304,240435.0757,241202.6621,241969.7792,245839.1596,232045.9945,232813.2031,233580.3369,234330.9135,235098.2878,235865.5789,236632.6762,245081.1426,Mapping
Blocked,Female,tile,14,F_bluff.wav,None,732.105691,3421,245071.794,237382.8802,238150.6895,238917.6347,239685.6304,240435.0757,241202.6621,241969.7792,245839.1596,246606.5422,232813.2031,233580.3369,234330.9135,235098.2878,235865.5789,236632.6762,245848.4343,Mapping
Blocked,Female,tile,14,F_gnash.wav,None,728.1186655,3421,245071.794,237382.8802,238150.6895,238917.6347,239685.6304,240435.0757,241202.6621,241969.7792,245839.1596,246606.5422,247373.5826,233580.3369,234330.9135,235098.2878,235865.5789,236632.6762,246616.2591,Mapping
Blocked,Female,tile,14,F_jaw.wav,None,725.2913285,3421,245071.794,237382.8802,238150.6895,238917.6347,239685.6304,240435.0757,241202.6621,241969.7792,245839.1596,246606.5422,247373.5826,248140.7841,234330.9135,235098.2878,235865.5789,236632.6762,247382.9111,Mapping
Blocked,Female,tile,14,F_park.wav,None,721.9495364,3421,245071.794,237382.8802,238150.6895,238917.6347,239685.6304,240435.0757,241202.6621,241969.7792,245839.1596,246606.5422,247373.5826,248140.7841,248891.4015,235098.2878,235865.5789,236632.6762,248150.0288,Mapping
Blocked,Female,tile,14,F_bluff.wav,None,734.1659833,3421,245071.794,237382.8802,238150.6895,238917.6347,239685.6304,240435.0757,241202.6621,241969.7792,245839.1596,246606.5422,247373.5826,248140.7841,248891.4015,249658.6243,235865.5789,236632.6762,248901.5666,Mapping
Blocked,Female,tile,14,F_tile.wav,None,731.1627297,3421,245071.794,237382.8802,238150.6895,238917.6347,239685.6304,240435.0757,241202.6621,241969.7792,245839.1596,246606.5422,247373.5826,248140.7841,248891.4015,249658.6243,250426.0555,236632.6762,249668.227,Mapping
Blocked,Female,tile,14,F_reek.wav,space,475.3862433,3421,245071.794,237382.8802,238150.6895,238917.6347,239685.6304,240435.0757,241202.6621,241969.7792,245839.1596,246606.5422,247373.5826,248140.7841,248891.4015,249658.6243,250426.0555,251193.1654,250435.6981,Mapping
Blocked,Female,tile,14,F_reek.wav,None,728.3839313,3421,245071.794,251943.8821,238150.6895,238917.6347,239685.6304,240435.0757,241202.6621,241969.7792,245839.1596,246606.5422,247373.5826,248140.7841,248891.4015,249658.6243,250426.0555,251193.1654,251197.2684,Mapping
Blocked,Female,tile,14,F_tile.wav,None,735.7470663,3421,245071.794,251943.8821,252710.7598,238917.6347,239685.6304,240435.0757,241202.6621,241969.7792,245839.1596,246606.5422,247373.5826,248140.7841,248891.4015,249658.6243,250426.0555,251193.1654,251953.6434,Mapping
Blocked,Female,tile,14,F_greet.wav,space,479.1834392,3421,245071.794,251943.8821,252710.7598,253478.2086,239685.6304,240435.0757,241202.6621,241969.7792,245839.1596,246606.5422,247373.5826,248140.7841,248891.4015,249658.6243,250426.0555,251193.1654,252719.8184,Mapping
Blocked,Female,tile,14,F_tile.wav,None,728.4943052,3421,245071.794,251943.8821,252710.7598,253478.2086,254245.2333,240435.0757,241202.6621,241969.7792,245839.1596,246606.5422,247373.5826,248140.7841,248891.4015,249658.6243,250426.0555,251193.1654,253487.6682,Mapping
Blocked,Female,tile,14,F_priest.wav,space,552.0288814,3421,245071.794,251943.8821,252710.7598,253478.2086,254245.2333,255012.4462,241202.6621,241969.7792,245839.1596,246606.5422,247373.5826,248140.7841,248891.4015,249658.6243,250426.0555,251193.1654,254254.93,Mapping
Blocked,Female,tile,14,F_tile.wav,None,720.3601059,3421,245071.794,251943.8821,252710.7598,253478.2086,254245.2333,255012.4462,255763.241,241969.7792,245839.1596,246606.5422,247373.5826,248140.7841,248891.4015,249658.6243,250426.0555,251193.1654,255021.9373,Mapping
Blocked,Female,tile,14,F_reek.wav,space,297.4256855,3421,245071.794,251943.8821,252710.7598,253478.2086,254245.2333,255012.4462,255763.241,256530.4657,245839.1596,246606.5422,247373.5826,248140.7841,248891.4015,249658.6243,250426.0555,251193.1654,255773.4964,Mapping
Blocked,Female,done,19,F_jaw.wav,None,728.220691,3421,259632.4437,251943.8821,252710.7598,253478.2086,254245.2333,255012.4462,255763.241,256530.4657,245839.1596,246606.5422,247373.5826,248140.7841,248891.4015,249658.6243,250426.0555,251193.1654,256540.3581,Mapping
Blocked,Female,done,19,F_jolt.wav,None,735.4144026,3421,259632.4437,251943.8821,252710.7598,253478.2086,254245.2333,255012.4462,255763.241,256530.4657,260399.8495,246606.5422,247373.5826,248140.7841,248891.4015,249658.6243,250426.0555,251193.1654,259642.3624,Mapping
Blocked,Female,done,19,F_priest.wav,None,731.9034953,3421,259632.4437,251943.8821,252710.7598,253478.2086,254245.2333,255012.4462,255763.241,256530.4657,260399.8495,261166.9956,247373.5826,248140.7841,248891.4015,249658.6243,250426.0555,251193.1654,260409.6025,Mapping
Blocked,Female,done,19,F_done.wav,None,728.7496766,3421,259632.4437,251943.8821,252710.7598,253478.2086,254245.2333,255012.4462,255763.241,256530.4657,260399.8495,261166.9956,261934.066,248140.7841,248891.4015,249658.6243,250426.0555,251193.1654,261176.8714,Mapping
Blocked,Female,done,19,F_reek.wav,space,518.6984539,3421,259632.4437,251943.8821,252710.7598,253478.2086,254245.2333,255012.4462,255763.241,256530.4657,260399.8495,261166.9956,261934.066,262701.6907,248891.4015,249658.6243,250426.0555,251193.1654,261943.9835,Mapping
Blocked,Female,done,19,F_romp.wav,None,719.3921022,3421,259632.4437,251943.8821,252710.7598,253478.2086,254245.2333,255012.4462,255763.241,256530.4657,260399.8495,261166.9956,261934.066,262701.6907,263452.0509,249658.6243,250426.0555,251193.1654,262712.1984,Mapping
Blocked,Female,done,19,F_done.wav,None,733.3049523,3421,259632.4437,251943.8821,252710.7598,253478.2086,254245.2333,255012.4462,255763.241,256530.4657,260399.8495,261166.9956,261934.066,262701.6907,263452.0509,264219.2029,250426.0555,251193.1654,263462.0027,Mapping
Blocked,Female,done,19,F_reek.wav,space,369.8577713,3421,259632.4437,251943.8821,252710.7598,253478.2086,254245.2333,255012.4462,255763.241,256530.4657,260399.8495,261166.9956,261934.066,262701.6907,263452.0509,264219.2029,264986.6248,251193.1654,264228.7367,Mapping
Blocked,Female,done,19,F_priest.wav,None,724.6649554,3421,259632.4437,251943.8821,252710.7598,253478.2086,254245.2333,255012.4462,255763.241,256530.4657,260399.8495,261166.9956,261934.066,262701.6907,263452.0509,264219.2029,264986.6248,265753.6655,264996.7302,Mapping
Blocked,Female,done,19,F_reek.wav,None,721.6406781,3421,259632.4437,266504.5361,252710.7598,253478.2086,254245.2333,255012.4462,255763.241,256530.4657,260399.8495,261166.9956,261934.066,262701.6907,263452.0509,264219.2029,264986.6248,265753.6655,265763.5987,Mapping
Blocked,Female,done,19,F_jaw.wav,None,734.8381132,3421,259632.4437,266504.5361,267271.6009,253478.2086,254245.2333,255012.4462,255763.241,256530.4657,260399.8495,261166.9956,261934.066,262701.6907,263452.0509,264219.2029,264986.6248,265753.6655,266514.0999,Mapping
Blocked,Female,done,19,F_done.wav,None,731.7019179,3421,259632.4437,266504.5361,267271.6009,268038.8092,254245.2333,255012.4462,255763.241,256530.4657,260399.8495,261166.9956,261934.066,262701.6907,263452.0509,264219.2029,264986.6248,265753.6655,267281.1375,Mapping
Blocked,Female,done,19,F_park.wav,space,454.1628174,3421,259632.4437,266504.5361,267271.6009,268038.8092,268805.3759,255012.4462,255763.241,256530.4657,260399.8495,261166.9956,261934.066,262701.6907,263452.0509,264219.2029,264986.6248,265753.6655,268048.2731,Mapping
Blocked,Female,done,19,F_reek.wav,None,727.4252037,3421,259632.4437,266504.5361,267271.6009,268038.8092,268805.3759,269573.0149,255763.241,256530.4657,260399.8495,261166.9956,261934.066,262701.6907,263452.0509,264219.2029,264986.6248,265753.6655,268814.569,Mapping
Blocked,Female,done,19,F_done.wav,None,723.7844458,3421,259632.4437,266504.5361,267271.6009,268038.8092,268805.3759,269573.0149,270340.4297,256530.4657,260399.8495,261166.9956,261934.066,262701.6907,263452.0509,264219.2029,264986.6248,265753.6655,269581.9034,Mapping
Blocked,Female,done,19,F_priest.wav,space,512.2977579,3421,259632.4437,266504.5361,267271.6009,268038.8092,268805.3759,269573.0149,270340.4297,271091.0369,260399.8495,261166.9956,261934.066,262701.6907,263452.0509,264219.2029,264986.6248,265753.6655,270350.0791,Mapping
Blocked,Female,cave,9,F_greet.wav,None,731.365853,3421,274209.6663,266504.5361,267271.6009,268038.8092,268805.3759,269573.0149,270340.4297,271091.0369,260399.8495,261166.9956,261934.066,262701.6907,263452.0509,264219.2029,264986.6248,265753.6655,271101.1964,Mapping
Blocked,Female,cave,9,F_cave.wav,None,734.5932527,3421,274209.6663,266504.5361,267271.6009,268038.8092,268805.3759,269573.0149,270340.4297,271091.0369,274976.8393,261166.9956,261934.066,262701.6907,263452.0509,264219.2029,264986.6248,265753.6655,274219.6768,Mapping
Blocked,Female,cave,9,F_priest.wav,space,499.653114,3421,274209.6663,266504.5361,267271.6009,268038.8092,268805.3759,269573.0149,270340.4297,271091.0369,274976.8393,275744.3135,261934.066,262701.6907,263452.0509,264219.2029,264986.6248,265753.6655,274986.5534,Mapping
Blocked,Female,cave,9,F_greet.wav,None,726.3984568,3421,274209.6663,266504.5361,267271.6009,268038.8092,268805.3759,269573.0149,270340.4297,271091.0369,274976.8393,275744.3135,276511.5904,262701.6907,263452.0509,264219.2029,264986.6248,265753.6655,275753.9648,Mapping
Blocked,Female,cave,9,F_romp.wav,None,723.26288,3421,274209.6663,266504.5361,267271.6009,268038.8092,268805.3759,269573.0149,270340.4297,271091.0369,274976.8393,275744.3135,276511.5904,277278.6886,263452.0509,264219.2029,264986.6248,265753.6655,276520.9987,Mapping
Blocked,Female,cave,9,F_bluff.wav,None,720.4482183,3421,274209.6663,266504.5361,267271.6009,268038.8092,268805.3759,269573.0149,270340.4297,271091.0369,274976.8393,275744.3135,276511.5904,277278.6886,278028.8092,264219.2029,264986.6248,265753.6655,277287.6993,Mapping
Blocked,Female,cave,9,F_cave.wav,None,733.4558256,3421,274209.6663,266504.5361,267271.6009,268038.8092,268805.3759,269573.0149,270340.4297,271091.0369,274976.8393,275744.3135,276511.5904,277278.6886,278028.8092,278796.611,264986.6248,265753.6655,278038.5572,Mapping
Blocked,Female,cave,9,F_romp.wav,space,511.6531439,3421,274209.6663,266504.5361,267271.6009,268038.8092,268805.3759,269573.0149,270340.4297,271091.0369,274976.8393,275744.3135,276511.5904,277278.6886,278028.8092,278796.611,279564.0991,265753.6655,278806.4129,Mapping
Blocked,Female,cave,9,F_cave.wav,None,724.4092738,3421,274209.6663,266504.5361,267271.6009,268038.8092,268805.3759,269573.0149,270340.4297,271091.0369,274976.8393,275744.3135,276511.5904,277278.6886,278028.8092,278796.611,279564.0991,280331.103,279573.6264,Mapping
Blocked,Female,cave,9,F_gnash.wav,space,409.1084469,3421,274209.6663,281081.3302,267271.6009,268038.8092,268805.3759,269573.0149,270340.4297,271091.0369,274976.8393,275744.3135,276511.5904,277278.6886,278028.8092,278796.611,279564.0991,280331.103,280340.9243,Mapping
Blocked,Female,cave,9,F_cave.wav,None,733.8945344,3421,274209.6663,281081.3302,281848.6037,268038.8092,268805.3759,269573.0149,270340.4297,271091.0369,274976.8393,275744.3135,276511.5904,277278.6886,278028.8092,278796.611,279564.0991,280331.103,281090.6031,Mapping
Blocked,Female,cave,9,F_park.wav,space,419.8136833,3421,274209.6663,281081.3302,281848.6037,282615.9112,268805.3759,269573.0149,270340.4297,271091.0369,274976.8393,275744.3135,276511.5904,277278.6886,278028.8092,278796.611,279564.0991,280331.103,281858.1168,Mapping
Blocked,Female,cave,9,F_dime.wav,None,725.3812961,3421,274209.6663,281081.3302,281848.6037,282615.9112,283383.8223,269573.0149,270340.4297,271091.0369,274976.8393,275744.3135,276511.5904,277278.6886,278028.8092,278796.611,279564.0991,280331.103,282625.0509,Mapping
Blocked,Female,cave,9,F_reek.wav,None,721.5522565,3421,274209.6663,281081.3302,281848.6037,282615.9112,283383.8223,284133.9101,270340.4297,271091.0369,274976.8393,275744.3135,276511.5904,277278.6886,278028.8092,278796.611,279564.0991,280331.103,283392.7164,Mapping
Blocked,Female,cave,9,F_depth.wav,None,734.6473578,3421,274209.6663,281081.3302,281848.6037,282615.9112,283383.8223,284133.9101,284900.8113,271091.0369,274976.8393,275744.3135,276511.5904,277278.6886,278028.8092,278796.611,279564.0991,280331.103,284143.5317,Mapping
Blocked,Female,cave,9,F_gnash.wav,None,732.0750831,3421,274209.6663,281081.3302,281848.6037,282615.9112,283383.8223,284133.9101,284900.8113,285668.2351,274976.8393,275744.3135,276511.5904,277278.6886,278028.8092,278796.611,279564.0991,280331.103,284910.3794,Mapping
Blocked,Female,cave,10,F_priest.wav,None,728.2732502,3421,288786.8423,281081.3302,281848.6037,282615.9112,283383.8223,284133.9101,284900.8113,285668.2351,274976.8393,275744.3135,276511.5904,277278.6886,278028.8092,278796.611,279564.0991,280331.103,285677.9528,Mapping
Blocked,Female,cave,10,F_cave.wav,None,734.9534323,3421,288786.8423,281081.3302,281848.6037,282615.9112,283383.8223,284133.9101,284900.8113,285668.2351,289554.3,275744.3135,276511.5904,277278.6886,278028.8092,278796.611,279564.0991,280331.103,288796.8244,Mapping
Blocked,Female,cave,10,F_park.wav,space,521.9784128,3421,288786.8423,281081.3302,281848.6037,282615.9112,283383.8223,284133.9101,284900.8113,285668.2351,289554.3,290321.2999,276511.5904,277278.6886,278028.8092,278796.611,279564.0991,280331.103,289563.7117,Mapping
Blocked,Female,cave,10,F_cave.wav,None,727.1794146,3421,288786.8423,281081.3302,281848.6037,282615.9112,283383.8223,284133.9101,284900.8113,285668.2351,289554.3,290321.2999,291088.8977,277278.6886,278028.8092,278796.611,279564.0991,280331.103,290330.7583,Mapping
Blocked,Female,cave,10,F_depth.wav,space,378.8604215,3421,288786.8423,281081.3302,281848.6037,282615.9112,283383.8223,284133.9101,284900.8113,285668.2351,289554.3,290321.2999,291088.8977,291839.171,278028.8092,278796.611,279564.0991,280331.103,291098.7614,Mapping
Blocked,Female,cave,10,F_park.wav,None,735.2233371,3421,288786.8423,281081.3302,281848.6037,282615.9112,283383.8223,284133.9101,284900.8113,285668.2351,289554.3,290321.2999,291088.8977,291839.171,292606.6971,278796.611,279564.0991,280331.103,291849.1559,Mapping
Blocked,Female,cave,10,F_gnash.wav,None,731.8243487,3421,288786.8423,281081.3302,281848.6037,282615.9112,283383.8223,284133.9101,284900.8113,285668.2351,289554.3,290321.2999,291088.8977,291839.171,292606.6971,293373.7857,279564.0991,280331.103,292616.5212,Mapping
Blocked,Female,cave,10,F_park.wav,None,728.6263192,3421,288786.8423,281081.3302,281848.6037,282615.9112,283383.8223,284133.9101,284900.8113,285668.2351,289554.3,290321.2999,291088.8977,291839.171,292606.6971,293373.7857,294141.0487,280331.103,293383.5561,Mapping
Blocked,Female,cave,10,F_gnash.wav,None,725.797127,3421,288786.8423,281081.3302,281848.6037,282615.9112,283383.8223,284133.9101,284900.8113,285668.2351,289554.3,290321.2999,291088.8977,291839.171,292606.6971,293373.7857,294141.0487,294908.1961,294150.2854,Mapping
Blocked,Female,cave,10,F_reek.wav,None,723.5686462,3421,288786.8423,295658.671,281848.6037,282615.9112,283383.8223,284133.9101,284900.8113,285668.2351,289554.3,290321.2999,291088.8977,291839.171,292606.6971,293373.7857,294141.0487,294908.1961,294916.3173,Mapping
Blocked,Female,cave,10,F_cave.wav,None,735.5411612,3421,288786.8423,295658.671,296426.3371,282615.9112,283383.8223,284133.9101,284900.8113,285668.2351,289554.3,290321.2999,291088.8977,291839.171,292606.6971,293373.7857,294141.0487,294908.1961,295668.3915,Mapping
Blocked,Female,cave,10,F_lash.wav,space,537.2982835,3421,288786.8423,295658.671,296426.3371,297193.473,283383.8223,284133.9101,284900.8113,285668.2351,289554.3,290321.2999,291088.8977,291839.171,292606.6971,293373.7857,294141.0487,294908.1961,296436.1334,Mapping
Blocked,Female,cave,10,F_dime.wav,None,726.9979334,3421,288786.8423,295658.671,296426.3371,297193.473,297960.4494,284133.9101,284900.8113,285668.2351,289554.3,290321.2999,291088.8977,291839.171,292606.6971,293373.7857,294141.0487,294908.1961,297203.1404,Mapping
Blocked,Female,cave,10,F_cave.wav,None,723.9479963,3421,288786.8423,295658.671,296426.3371,297193.473,297960.4494,298727.6293,284900.8113,285668.2351,289554.3,290321.2999,291088.8977,291839.171,292606.6971,293373.7857,294141.0487,294908.1961,297970.2643,Mapping
Blocked,Female,cave,10,F_priest.wav,None,720.779337,3421,288786.8423,295658.671,296426.3371,297193.473,297960.4494,298727.6293,299478.0998,285668.2351,289554.3,290321.2999,291088.8977,291839.171,292606.6971,293373.7857,294141.0487,294908.1961,298737.3804,Mapping
Blocked,Female,cave,10,F_priest.wav,space,213.4001264,3421,288786.8423,295658.671,296426.3371,297193.473,297960.4494,298727.6293,299478.0998,300245.5378,289554.3,290321.2999,291088.8977,291839.171,292606.6971,293373.7857,294141.0487,294908.1961,299487.9313,Mapping
Blocked,Female,tile,13,F_dime.wav,None,729.4162428,3421,303364.2046,295658.671,296426.3371,297193.473,297960.4494,298727.6293,299478.0998,300245.5378,289554.3,290321.2999,291088.8977,291839.171,292606.6971,293373.7857,294141.0487,294908.1961,300254.9897,Mapping
Blocked,Female,tile,13,F_tile.wav,None,735.6521515,3421,303364.2046,295658.671,296426.3371,297193.473,297960.4494,298727.6293,299478.0998,300245.5378,304131.6587,290321.2999,291088.8977,291839.171,292606.6971,293373.7857,294141.0487,294908.1961,303373.7196,Mapping
Blocked,Female,tile,13,F_cling.wav,None,732.3533343,3421,303364.2046,295658.671,296426.3371,297193.473,297960.4494,298727.6293,299478.0998,300245.5378,304131.6587,304898.7826,291088.8977,291839.171,292606.6971,293373.7857,294141.0487,294908.1961,304141.2497,Mapping
Blocked,Female,tile,13,F_cling.wav,None,729.186221,3421,303364.2046,295658.671,296426.3371,297193.473,297960.4494,298727.6293,299478.0998,300245.5378,304131.6587,304898.7826,305666.2369,291839.171,292606.6971,293373.7857,294141.0487,294908.1961,304908.5563,Mapping
Blocked,Female,tile,13,F_romp.wav,None,725.7359112,3421,303364.2046,295658.671,296426.3371,297193.473,297960.4494,298727.6293,299478.0998,300245.5378,304131.6587,304898.7826,305666.2369,306433.0683,292606.6971,293373.7857,294141.0487,294908.1961,305676.1488,Mapping
Blocked,Female,tile,13,F_jaw.wav,None,723.7541471,3421,303364.2046,295658.671,296426.3371,297193.473,297960.4494,298727.6293,299478.0998,300245.5378,304131.6587,304898.7826,305666.2369,306433.0683,307200.5666,293373.7857,294141.0487,294908.1961,306442.3489,Mapping
Blocked,Female,tile,13,F_tile.wav,None,720.0942216,3421,303364.2046,295658.671,296426.3371,297193.473,297960.4494,298727.6293,299478.0998,300245.5378,304131.6587,304898.7826,305666.2369,306433.0683,307200.5666,307950.873,294141.0487,294908.1961,307210.1622,Mapping
Blocked,Female,tile,13,F_cad.wav,space,492.7225048,3421,303364.2046,295658.671,296426.3371,297193.473,297960.4494,298727.6293,299478.0998,300245.5378,304131.6587,304898.7826,305666.2369,306433.0683,307200.5666,307950.873,308718.3317,294908.1961,307960.2921,Mapping
Blocked,Female,tile,13,F_reek.wav,None,728.8631415,3421,303364.2046,295658.671,296426.3371,297193.473,297960.4494,298727.6293,299478.0998,300245.5378,304131.6587,304898.7826,305666.2369,306433.0683,307200.5666,307950.873,308718.3317,309485.3111,308727.9165,Mapping
Blocked,Female,tile,13,F_bluff.wav,None,726.1183513,3421,303364.2046,310253.0165,296426.3371,297193.473,297960.4494,298727.6293,299478.0998,300245.5378,304131.6587,304898.7826,305666.2369,306433.0683,307200.5666,307950.873,308718.3317,309485.3111,309494.8576,Mapping
Blocked,Female,tile,13,F_tile.wav,None,722.4117415,3421,303364.2046,310253.0165,311020.0186,297193.473,297960.4494,298727.6293,299478.0998,300245.5378,304131.6587,304898.7826,305666.2369,306433.0683,307200.5666,307950.873,308718.3317,309485.3111,310262.6746,Mapping
Blocked,Female,tile,13,F_priest.wav,space,399.4073877,3421,303364.2046,310253.0165,311020.0186,311770.4808,297960.4494,298727.6293,299478.0998,300245.5378,304131.6587,304898.7826,305666.2369,306433.0683,307200.5666,307950.873,308718.3317,309485.3111,311029.4773,Mapping
Blocked,Female,tile,13,F_bluff.wav,None,731.6339016,3421,303364.2046,310253.0165,311020.0186,311770.4808,312537.4723,298727.6293,299478.0998,300245.5378,304131.6587,304898.7826,305666.2369,306433.0683,307200.5666,307950.873,308718.3317,309485.3111,311780.1983,Mapping
Blocked,Female,tile,13,F_reek.wav,None,729.408822,3421,303364.2046,310253.0165,311020.0186,311770.4808,312537.4723,313304.9252,299478.0998,300245.5378,304131.6587,304898.7826,305666.2369,306433.0683,307200.5666,307950.873,308718.3317,309485.3111,312546.62,Mapping
Blocked,Female,tile,13,F_tile.wav,None,725.2458809,3421,303364.2046,310253.0165,311020.0186,311770.4808,312537.4723,313304.9252,314072.6837,300245.5378,304131.6587,304898.7826,305666.2369,306433.0683,307200.5666,307950.873,308718.3317,309485.3111,313314.9397,Mapping
Blocked,Female,tile,13,F_jaw.wav,space,466.4234761,3421,303364.2046,310253.0165,311020.0186,311770.4808,312537.4723,313304.9252,314072.6837,314822.374,304131.6587,304898.7826,305666.2369,306433.0683,307200.5666,307950.873,308718.3317,309485.3111,314082.3638,Mapping
Blocked,Female,ball,4,F_lash.wav,None,734.5595537,3421,317941.4715,310253.0165,311020.0186,311770.4808,312537.4723,313304.9252,314072.6837,314822.374,304131.6587,304898.7826,305666.2369,306433.0683,307200.5666,307950.873,308718.3317,309485.3111,314832.1662,Mapping
Blocked,Female,ball,4,F_ball.wav,None,735.4941666,3421,317941.4715,310253.0165,311020.0186,311770.4808,312537.4723,313304.9252,314072.6837,314822.374,318708.9317,304898.7826,305666.2369,306433.0683,307200.5666,307950.873,308718.3317,309485.3111,317951.2236,Mapping
Blocked,Female,ball,4,F_priest.wav,space,405.6735951,3421,317941.4715,310253.0165,311020.0186,311770.4808,312537.4723,313304.9252,314072.6837,314822.374,318708.9317,319476.1854,305666.2369,306433.0683,307200.5666,307950.873,308718.3317,309485.3111,318718.9636,Mapping
Blocked,Female,ball,4,F_knife.wav,None,727.3101928,3421,317941.4715,310253.0165,311020.0186,311770.4808,312537.4723,313304.9252,314072.6837,314822.374,318708.9317,319476.1854,320243.2014,306433.0683,307200.5666,307950.873,308718.3317,309485.3111,319486.0327,Mapping
Blocked,Female,ball,4,F_ball.wav,None,724.9357859,3421,317941.4715,310253.0165,311020.0186,311770.4808,312537.4723,313304.9252,314072.6837,314822.374,318708.9317,319476.1854,320243.2014,321010.6085,307200.5666,307950.873,308718.3317,309485.3111,320252.5513,Mapping
Blocked,Female,ball,4,F_jaw.wav,space,424.3411338,3421,317941.4715,310253.0165,311020.0186,311770.4808,312537.4723,313304.9252,314072.6837,314822.374,318708.9317,319476.1854,320243.2014,321010.6085,321761.1749,307950.873,308718.3317,309485.3111,321020.2094,Mapping
Blocked,Female,ball,4,F_ball.wav,None,733.7099612,3421,317941.4715,310253.0165,311020.0186,311770.4808,312537.4723,313304.9252,314072.6837,314822.374,318708.9317,319476.1854,320243.2014,321010.6085,321761.1749,322528.4004,308718.3317,309485.3111,321770.6205,Mapping
Blocked,Female,ball,4,F_priest.wav,space,538.273707,3421,317941.4715,310253.0165,311020.0186,311770.4808,312537.4723,313304.9252,314072.6837,314822.374,318708.9317,319476.1854,320243.2014,321010.6085,321761.1749,322528.4004,323295.5045,309485.3111,322538.2088,Mapping
Blocked,Female,ball,4,F_ball.wav,None,725.8713273,3421,317941.4715,310253.0165,311020.0186,311770.4808,312537.4723,313304.9252,314072.6837,314822.374,318708.9317,319476.1854,320243.2014,321010.6085,321761.1749,322528.4004,323295.5045,324062.7898,323305.1623,Mapping
Blocked,Female,ball,4,F_priest.wav,space,403.4472797,3421,317941.4715,324813.2885,311020.0186,311770.4808,312537.4723,313304.9252,314072.6837,314822.374,318708.9317,319476.1854,320243.2014,321010.6085,321761.1749,322528.4004,323295.5045,324062.7898,324073.0087,Mapping
Blocked,Female,ball,4,F_cad.wav,None,734.2571877,3421,317941.4715,324813.2885,325580.6062,311770.4808,312537.4723,313304.9252,314072.6837,314822.374,318708.9317,319476.1854,320243.2014,321010.6085,321761.1749,322528.4004,323295.5045,324062.7898,324823.0971,Mapping
Blocked,Female,ball,4,F_jolt.wav,None,731.4592218,3421,317941.4715,324813.2885,325580.6062,326347.9585,312537.4723,313304.9252,314072.6837,314822.374,318708.9317,319476.1854,320243.2014,321010.6085,321761.1749,322528.4004,323295.5045,324062.7898,325590.1808,Mapping
Blocked,Female,ball,4,F_park.wav,None,727.8255755,3421,317941.4715,324813.2885,325580.6062,326347.9585,327114.7747,313304.9252,314072.6837,314822.374,318708.9317,319476.1854,320243.2014,321010.6085,321761.1749,322528.4004,323295.5045,324062.7898,326358.0401,Mapping
Blocked,Female,ball,4,F_lash.wav,None,725.9888109,3421,317941.4715,324813.2885,325580.6062,326347.9585,327114.7747,327882.1691,314072.6837,314822.374,318708.9317,319476.1854,320243.2014,321010.6085,321761.1749,322528.4004,323295.5045,324062.7898,327124.0442,Mapping
Blocked,Female,ball,4,F_lash.wav,None,722.2166574,3421,317941.4715,324813.2885,325580.6062,326347.9585,327114.7747,327882.1691,328632.601,314822.374,318708.9317,319476.1854,320243.2014,321010.6085,321761.1749,322528.4004,323295.5045,324062.7898,327891.9883,Mapping
Blocked,Female,ball,4,F_priest.wav,None,736.5162754,3421,317941.4715,324813.2885,325580.6062,326347.9585,327114.7747,327882.1691,328632.601,329400.0044,318708.9317,319476.1854,320243.2014,321010.6085,321761.1749,322528.4004,323295.5045,324062.7898,328642.0789,Mapping
Blocked,Female,done,24,F_cad.wav,None,732.8461464,3421,332535.0825,324813.2885,325580.6062,326347.9585,327114.7747,327882.1691,328632.601,329400.0044,318708.9317,319476.1854,320243.2014,321010.6085,321761.1749,322528.4004,323295.5045,324062.7898,329409.963,Mapping
Blocked,Female,done,24,F_reek.wav,None,722.914448,3421,332535.0825,324813.2885,325580.6062,326347.9585,327114.7747,327882.1691,328632.601,329400.0044,333285.7317,319476.1854,320243.2014,321010.6085,321761.1749,322528.4004,323295.5045,324062.7898,332544.1479,Mapping
Blocked,Female,done,24,F_done.wav,None,736.2986216,3421,332535.0825,324813.2885,325580.6062,326347.9585,327114.7747,327882.1691,328632.601,329400.0044,333285.7317,334053.4204,320243.2014,321010.6085,321761.1749,322528.4004,323295.5045,324062.7898,333294.9811,Mapping
Blocked,Female,done,24,F_jolt.wav,space,429.1783692,3421,332535.0825,324813.2885,325580.6062,326347.9585,327114.7747,327882.1691,328632.601,329400.0044,333285.7317,334053.4204,334820.3369,321010.6085,321761.1749,322528.4004,323295.5045,324062.7898,334062.9323,Mapping
Blocked,Female,done,24,F_bluff.wav,None,727.4641581,3421,332535.0825,324813.2885,325580.6062,326347.9585,327114.7747,327882.1691,328632.601,329400.0044,333285.7317,334053.4204,334820.3369,335587.9987,321761.1749,322528.4004,323295.5045,324062.7898,334830.1399,Mapping
Blocked,Female,done,24,F_done.wav,None,724.2197534,3421,332535.0825,324813.2885,325580.6062,326347.9585,327114.7747,327882.1691,328632.601,329400.0044,333285.7317,334053.4204,334820.3369,335587.9987,336355.0208,322528.4004,323295.5045,324062.7898,335597.7177,Mapping
Blocked,Female,done,24,F_cling.wav,space,407.4333776,3421,332535.0825,324813.2885,325580.6062,326347.9585,327114.7747,327882.1691,328632.601,329400.0044,333285.7317,334053.4204,334820.3369,335587.9987,336355.0208,337105.5804,323295.5045,324062.7898,336364.5726,Mapping
Blocked,Female,done,24,F_done.wav,None,733.365858,3421,332535.0825,324813.2885,325580.6062,326347.9585,327114.7747,327882.1691,328632.601,329400.0044,333285.7317,334053.4204,334820.3369,335587.9987,336355.0208,337105.5804,337872.9294,324062.7898,337115.1983,Mapping
Blocked,Female,done,24,F_greet.wav,space,393.3563605,3421,332535.0825,324813.2885,325580.6062,326347.9585,327114.7747,327882.1691,328632.601,329400.0044,333285.7317,334053.4204,334820.3369,335587.9987,336355.0208,337105.5804,337872.9294,338640.0217,337882.6122,Mapping
Blocked,Female,done,24,F_cad.wav,None,725.0959352,3421,332535.0825,339407.1808,325580.6062,326347.9585,327114.7747,327882.1691,328632.601,329400.0044,333285.7317,334053.4204,334820.3369,335587.9987,336355.0208,337105.5804,337872.9294,338640.0217,338650.0678,Mapping
Blocked,Female,done,24,F_priest.wav,None,722.5440657,3421,332535.0825,339407.1808,340174.4292,326347.9585,327114.7747,327882.1691,328632.601,329400.0044,333285.7317,334053.4204,334820.3369,335587.9987,336355.0208,337105.5804,337872.9294,338640.0217,339416.9734,Mapping
Blocked,Female,done,24,F_done.wav,None,719.580695,3421,332535.0825,339407.1808,340174.4292,340925.0062,327114.7747,327882.1691,328632.601,329400.0044,333285.7317,334053.4204,334820.3369,335587.9987,336355.0208,337105.5804,337872.9294,338640.0217,340184.2639,Mapping
Blocked,Female,done,24,F_reek.wav,space,396.8923092,3421,332535.0825,339407.1808,340174.4292,340925.0062,341692.0119,327882.1691,328632.601,329400.0044,333285.7317,334053.4204,334820.3369,335587.9987,336355.0208,337105.5804,337872.9294,338640.0217,340934.9345,Mapping
Blocked,Female,done,24,F_cad.wav,None,729.0783217,3421,332535.0825,339407.1808,340174.4292,340925.0062,341692.0119,342459.5108,328632.601,329400.0044,333285.7317,334053.4204,334820.3369,335587.9987,336355.0208,337105.5804,337872.9294,338640.0217,341701.534,Mapping
Blocked,Female,done,24,F_jaw.wav,None,725.3670748,3421,332535.0825,339407.1808,340174.4292,340925.0062,341692.0119,342459.5108,343226.7698,329400.0044,333285.7317,334053.4204,334820.3369,335587.9987,336355.0208,337105.5804,337872.9294,338640.0217,342469.5083,Mapping
Blocked,Female,done,24,F_depth.wav,None,722.9765905,3421,332535.0825,339407.1808,340174.4292,340925.0062,341692.0119,342459.5108,343226.7698,343993.978,333285.7317,334053.4204,334820.3369,335587.9987,336355.0208,337105.5804,337872.9294,338640.0217,343236.315,Mapping
Blocked,Female,done,21,F_park.wav,None,719.7269313,3421,347096.4819,339407.1808,340174.4292,340925.0062,341692.0119,342459.5108,343226.7698,343993.978,333285.7317,334053.4204,334820.3369,335587.9987,336355.0208,337105.5804,337872.9294,338640.0217,344003.7743,Mapping
Blocked,Female,done,21,F_priest.wav,None,734.5410045,3421,347096.4819,339407.1808,340174.4292,340925.0062,341692.0119,342459.5108,343226.7698,343993.978,347863.5174,334053.4204,334820.3369,335587.9987,336355.0208,337105.5804,337872.9294,338640.0217,347106.2021,Mapping
Blocked,Female,done,21,F_greet.wav,None,731.8673227,3421,347096.4819,339407.1808,340174.4292,340925.0062,341692.0119,342459.5108,343226.7698,343993.978,347863.5174,348631.2818,334820.3369,335587.9987,336355.0208,337105.5804,337872.9294,338640.0217,347873.2296,Mapping
Blocked,Female,done,21,F_jaw.wav,None,727.800224,3421,347096.4819,339407.1808,340174.4292,340925.0062,341692.0119,342459.5108,343226.7698,343993.978,347863.5174,348631.2818,349397.7601,335587.9987,336355.0208,337105.5804,337872.9294,338640.0217,348641.5953,Mapping
Blocked,Female,done,21,F_dime.wav,None,725.9817002,3421,347096.4819,339407.1808,340174.4292,340925.0062,341692.0119,342459.5108,343226.7698,343993.978,347863.5174,348631.2818,349397.7601,350165.063,336355.0208,337105.5804,337872.9294,338640.0217,349407.7657,Mapping
Blocked,Female,done,21,F_gnash.wav,space,412.7485864,3421,347096.4819,339407.1808,340174.4292,340925.0062,341692.0119,342459.5108,343226.7698,343993.978,347863.5174,348631.2818,349397.7601,350165.063,350915.3929,337105.5804,337872.9294,338640.0217,350174.7486,Mapping
Blocked,Female,done,21,F_done.wav,None,735.1386249,3421,347096.4819,339407.1808,340174.4292,340925.0062,341692.0119,342459.5108,343226.7698,343993.978,347863.5174,348631.2818,349397.7601,350165.063,350915.3929,351682.7493,337872.9294,338640.0217,350925.2587,Mapping
Blocked,Female,done,21,F_lash.wav,space,622.9992229,3421,347096.4819,339407.1808,340174.4292,340925.0062,341692.0119,342459.5108,343226.7698,343993.978,347863.5174,348631.2818,349397.7601,350165.063,350915.3929,351682.7493,352449.9668,338640.0217,351692.442,Mapping
Blocked,Female,done,21,F_done.wav,None,668.4289221,3421,347096.4819,339407.1808,340174.4292,340925.0062,341692.0119,342459.5108,343226.7698,343993.978,347863.5174,348631.2818,349397.7601,350165.063,350915.3929,351682.7493,352449.9668,353217.3627,352518.7235,Mapping
Blocked,Female,done,21,F_gnash.wav,space,504.3713208,3421,347096.4819,353984.7188,340174.4292,340925.0062,341692.0119,342459.5108,343226.7698,343993.978,347863.5174,348631.2818,349397.7601,350165.063,350915.3929,351682.7493,352449.9668,353217.3627,353226.9853,Mapping
Blocked,Female,done,21,F_greet.wav,None,719.1997999,3421,347096.4819,353984.7188,354734.9015,340925.0062,341692.0119,342459.5108,343226.7698,343993.978,347863.5174,348631.2818,349397.7601,350165.063,350915.3929,351682.7493,352449.9668,353217.3627,353994.687,Mapping
Blocked,Female,done,21,F_romp.wav,None,733.8311551,3421,347096.4819,353984.7188,354734.9015,355502.3543,341692.0119,342459.5108,343226.7698,343993.978,347863.5174,348631.2818,349397.7601,350165.063,350915.3929,351682.7493,352449.9668,353217.3627,354744.371,Mapping
Blocked,Female,done,21,F_done.wav,None,730.5852054,3421,347096.4819,353984.7188,354734.9015,355502.3543,356269.3171,342459.5108,343226.7698,343993.978,347863.5174,348631.2818,349397.7601,350165.063,350915.3929,351682.7493,352449.9668,353217.3627,355511.9283,Mapping
Blocked,Female,done,21,F_lash.wav,space,556.735958,3421,347096.4819,353984.7188,354734.9015,355502.3543,356269.3171,357036.7563,343226.7698,343993.978,347863.5174,348631.2818,349397.7601,350165.063,350915.3929,351682.7493,352449.9668,353217.3627,356278.4926,Mapping
Blocked,Female,done,21,F_done.wav,None,722.9691716,3421,347096.4819,353984.7188,354734.9015,355502.3543,356269.3171,357036.7563,357803.8211,343993.978,347863.5174,348631.2818,349397.7601,350165.063,350915.3929,351682.7493,352449.9668,353217.3627,357046.0879,Mapping
Blocked,Female,done,21,F_jaw.wav,space,413.7224648,3421,347096.4819,353984.7188,354734.9015,355502.3543,356269.3171,357036.7563,357803.8211,358554.5471,347863.5174,348631.2818,349397.7601,350165.063,350915.3929,351682.7493,352449.9668,353217.3627,357813.4975,Mapping
Blocked,Female,tile,15,F_greet.wav,None,731.8537189,3421,361673.3218,353984.7188,354734.9015,355502.3543,356269.3171,357036.7563,357803.8211,358554.5471,347863.5174,348631.2818,349397.7601,350165.063,350915.3929,351682.7493,352449.9668,353217.3627,358563.9334,Mapping
Blocked,Female,tile,15,F_tile.wav,None,735.7365545,3421,361673.3218,353984.7188,354734.9015,355502.3543,356269.3171,357036.7563,357803.8211,358554.5471,362441.1401,348631.2818,349397.7601,350165.063,350915.3929,351682.7493,352449.9668,353217.3627,361682.3922,Mapping
Blocked,Female,tile,15,F_gnash.wav,space,640.2430423,3421,361673.3218,353984.7188,354734.9015,355502.3543,356269.3171,357036.7563,357803.8211,358554.5471,362441.1401,363208.0834,349397.7601,350165.063,350915.3929,351682.7493,352449.9668,353217.3627,362450.7954,Mapping
Blocked,Female,tile,15,F_knife.wav,None,727.7114922,3421,361673.3218,353984.7188,354734.9015,355502.3543,356269.3171,357036.7563,357803.8211,358554.5471,362441.1401,363208.0834,363975.1429,350165.063,350915.3929,351682.7493,352449.9668,353217.3627,363217.7034,Mapping
Blocked,Female,tile,15,F_jolt.wav,None,725.195487,3421,361673.3218,353984.7188,354734.9015,355502.3543,356269.3171,357036.7563,357803.8211,358554.5471,362441.1401,363208.0834,363975.1429,364742.2476,350915.3929,351682.7493,352449.9668,353217.3627,363984.7447,Mapping
Blocked,Female,tile,15,F_cling.wav,None,722.7910906,3421,361673.3218,353984.7188,354734.9015,355502.3543,356269.3171,357036.7563,357803.8211,358554.5471,362441.1401,363208.0834,363975.1429,364742.2476,365509.5004,351682.7493,352449.9668,353217.3627,364751.5823,Mapping
Blocked,Female,tile,15,F_romp.wav,None,720.3795835,3421,361673.3218,353984.7188,354734.9015,355502.3543,356269.3171,357036.7563,357803.8211,358554.5471,362441.1401,363208.0834,363975.1429,364742.2476,365509.5004,366260.001,352449.9668,353217.3627,365518.5151,Mapping
Blocked,Female,tile,15,F_tile.wav,None,734.1616554,3421,361673.3218,353984.7188,354734.9015,355502.3543,356269.3171,357036.7563,357803.8211,358554.5471,362441.1401,363208.0834,363975.1429,364742.2476,365509.5004,366260.001,367027.0822,353217.3627,366269.2893,Mapping
Blocked,Female,tile,15,F_dime.wav,space,566.3810577,3421,361673.3218,353984.7188,354734.9015,355502.3543,356269.3171,357036.7563,357803.8211,358554.5471,362441.1401,363208.0834,363975.1429,364742.2476,365509.5004,366260.001,367027.0822,367794.3352,367036.4966,Mapping
Blocked,Female,tile,15,F_park.wav,None,726.5579887,3421,361673.3218,368561.5537,354734.9015,355502.3543,356269.3171,357036.7563,357803.8211,358554.5471,362441.1401,363208.0834,363975.1429,364742.2476,365509.5004,366260.001,367027.0822,367794.3352,367803.9037,Mapping
Blocked,Female,tile,15,F_tile.wav,None,724.5329404,3421,361673.3218,368561.5537,369329.0056,355502.3543,356269.3171,357036.7563,357803.8211,358554.5471,362441.1401,363208.0834,363975.1429,364742.2476,365509.5004,366260.001,367027.0822,367794.3352,368570.5635,Mapping
Blocked,Female,tile,15,F_park.wav,space,656.2993508,3421,361673.3218,368561.5537,369329.0056,370079.3265,356269.3171,357036.7563,357803.8211,358554.5471,362441.1401,363208.0834,363975.1429,364742.2476,365509.5004,366260.001,367027.0822,367794.3352,369338.4748,Mapping
Blocked,Female,tile,15,F_tile.wav,None,733.7452061,3421,361673.3218,368561.5537,369329.0056,370079.3265,370846.7908,357036.7563,357803.8211,358554.5471,362441.1401,363208.0834,363975.1429,364742.2476,365509.5004,366260.001,367027.0822,367794.3352,370088.2915,Mapping
Blocked,Female,tile,15,F_depth.wav,space,522.64807,3421,361673.3218,368561.5537,369329.0056,370079.3265,370846.7908,371614.0927,357803.8211,358554.5471,362441.1401,363208.0834,363975.1429,364742.2476,365509.5004,366260.001,367027.0822,367794.3352,370856.1035,Mapping
Blocked,Female,tile,15,F_jaw.wav,None,725.6341949,3421,361673.3218,368561.5537,369329.0056,370079.3265,370846.7908,371614.0927,372381.02,358554.5471,362441.1401,363208.0834,363975.1429,364742.2476,365509.5004,366260.001,367027.0822,367794.3352,371623.4014,Mapping
Blocked,Female,tile,15,F_jolt.wav,None,723.468476,3421,361673.3218,368561.5537,369329.0056,370079.3265,370846.7908,371614.0927,372381.02,373148.3411,362441.1401,363208.0834,363975.1429,364742.2476,365509.5004,366260.001,367027.0822,367794.3352,372390.1858,Mapping
Blocked,Female,done,22,F_jaw.wav,None,720.7895396,3421,376250.4316,368561.5537,369329.0056,370079.3265,370846.7908,371614.0927,372381.02,373148.3411,362441.1401,363208.0834,363975.1429,364742.2476,365509.5004,366260.001,367027.0822,367794.3352,373157.4331,Mapping
Blocked,Female,done,22,F_depth.wav,None,735.7294438,3421,376250.4316,368561.5537,369329.0056,370079.3265,370846.7908,371614.0927,372381.02,373148.3411,377017.9181,363208.0834,363975.1429,364742.2476,365509.5004,366260.001,367027.0822,367794.3352,376259.8751,Mapping
Blocked,Female,done,22,F_priest.wav,None,733.1259437,3421,376250.4316,368561.5537,369329.0056,370079.3265,370846.7908,371614.0927,372381.02,373148.3411,377017.9181,377785.1112,363975.1429,364742.2476,365509.5004,366260.001,367027.0822,367794.3352,377026.9739,Mapping
Blocked,Female,done,22,F_done.wav,None,730.1805047,3421,376250.4316,368561.5537,369329.0056,370079.3265,370846.7908,371614.0927,372381.02,373148.3411,377017.9181,377785.1112,378552.4497,364742.2476,365509.5004,366260.001,367027.0822,367794.3352,377794.7186,Mapping
Blocked,Female,done,22,F_romp.wav,space,464.6868808,3421,376250.4316,368561.5537,369329.0056,370079.3265,370846.7908,371614.0927,372381.02,373148.3411,377017.9181,377785.1112,378552.4497,379319.9158,365509.5004,366260.001,367027.0822,367794.3352,378561.7525,Mapping
Blocked,Female,done,22,F_gnash.wav,None,722.7799604,3421,376250.4316,368561.5537,369329.0056,370079.3265,370846.7908,371614.0927,372381.02,373148.3411,377017.9181,377785.1112,378552.4497,379319.9158,380086.6254,366260.001,367027.0822,367794.3352,379329.0517,Mapping
Blocked,Female,done,22,F_knife.wav,None,720.4649141,3421,376250.4316,368561.5537,369329.0056,370079.3265,370846.7908,371614.0927,372381.02,373148.3411,377017.9181,377785.1112,378552.4497,379319.9158,380086.6254,380837.3284,367027.0822,367794.3352,380095.914,Mapping
Blocked,Female,done,22,F_done.wav,None,733.7949825,3421,376250.4316,368561.5537,369329.0056,370079.3265,370846.7908,371614.0927,372381.02,373148.3411,377017.9181,377785.1112,378552.4497,379319.9158,380086.6254,380837.3284,381604.3774,367794.3352,380847.1677,Mapping
Blocked,Female,done,22,F_lash.wav,space,388.8638467,3421,376250.4316,368561.5537,369329.0056,370079.3265,370846.7908,371614.0927,372381.02,373148.3411,377017.9181,377785.1112,378552.4497,379319.9158,380086.6254,380837.3284,381604.3774,382371.723,381613.4892,Mapping
