Condition,Talker,Target,Trial,current_stimulus,response_response,response_time_response,subject_nr,time_Audio1,time_Audio10,time_Audio11,time_Audio12,time_Audio13,time_Audio14,time_Audio15,time_Audio16,time_Audio2,time_Audio3,time_Audio4,time_Audio5,time_Audio6,time_Audio7,time_Audio8,time_Audio9,time_response
Mixed,Female,tile,33,F_depth.wav,NA,NA,2191,78499.6596,NA,NA,NA,NA,NA,NA,NA,NA,NA,NA,NA,NA,NA,NA,NA,NA
Mixed,Female,tile,33,F_tile.wav,None,720.7061925,2191,78499.6596,NA,NA,NA,NA,NA,NA,NA,79266.92641,NA,NA,NA,NA,NA,NA,NA,78513.05283
Mixed,Female,tile,33,M_depth.wav,space,586.5850748,2191,78499.6596,NA,NA,NA,NA,NA,NA,NA,79266.92641,80032.96087,NA,NA,NA,NA,NA,NA,79277.18342
Mixed,Female,tile,33,M_done.wav,None,725.4398863,2191,78499.6596,NA,NA,NA,NA,NA,NA,NA,79266.92641,80032.96087,80799.51164,NA,NA,NA,NA,NA,80042.10486
Mixed,Female,tile,33,M_jolt.wav,None,725.3802166,2191,78499.6596,NA,NA,NA,NA,NA,NA,NA,79266.92641,80032.96087,80799.51164,81566.3184,NA,NA,NA,NA,80808.74065
Mixed,Female,tile,33,F_tile.wav,None,725.4117519,2191,78499.6596,NA,NA,NA,NA,NA,NA,NA,79266.92641,80032.96087,80799.51164,81566.3184,82333.20152,NA,NA,NA,81575.60863
Mixed,Female,tile,33,M_cave.wav,space,392.8171274,2191,78499.6596,NA,NA,NA,NA,NA,NA,NA,79266.92641,80032.96087,80799.51164,81566.3184,82333.20152,83099.83948,NA,NA,82342.8572
Mixed,Female,tile,33,F_tile.wav,None,721.5693936,2191,78499.6596,NA,NA,NA,NA,NA,NA,NA,79266.92641,80032.96087,80799.51164,81566.3184,82333.20152,83099.83948,83849.60729,NA,83109.42126
Mixed,Female,tile,33,M_jolt.wav,space,556.8265856,2191,78499.6596,NA,NA,NA,NA,NA,NA,NA,79266.92641,80032.96087,80799.51164,81566.3184,82333.20152,83099.83948,83849.60729,84616.16857,83858.79797
Mixed,Female,tile,33,M_bluff.wav,None,732.7288658,2191,78499.6596,85383.27152,NA,NA,NA,NA,NA,NA,79266.92641,80032.96087,80799.51164,81566.3184,82333.20152,83099.83948,83849.60729,84616.16857,84625.02041
Mixed,Female,tile,33,M_park.wav,None,731.7574554,2191,78499.6596,85383.27152,86149.76478,NA,NA,NA,NA,NA,79266.92641,80032.96087,80799.51164,81566.3184,82333.20152,83099.83948,83849.60729,84616.16857,85392.71448
Mixed,Female,tile,33,F_tile.wav,None,732.5415091,2191,78499.6596,85383.27152,86149.76478,86916.56567,NA,NA,NA,NA,79266.92641,80032.96087,80799.51164,81566.3184,82333.20152,83099.83948,83849.60729,84616.16857,86158.85127
Mixed,Female,tile,33,M_done.wav,space,457.6054453,2191,78499.6596,85383.27152,86149.76478,86916.56567,87683.15818,NA,NA,NA,79266.92641,80032.96087,80799.51164,81566.3184,82333.20152,83099.83948,83849.60729,84616.16857,86925.95731
Mixed,Female,tile,33,F_bluff.wav,None,725.674546,2191,78499.6596,85383.27152,86149.76478,86916.56567,87683.15818,88449.80541,NA,NA,79266.92641,80032.96087,80799.51164,81566.3184,82333.20152,83099.83948,83849.60729,84616.16857,87692.26878
Mixed,Female,tile,33,F_jaw.wav,None,726.3287486,2191,78499.6596,85383.27152,86149.76478,86916.56567,87683.15818,88449.80541,89216.58651,NA,79266.92641,80032.96087,80799.51164,81566.3184,82333.20152,83099.83948,83849.60729,84616.16857,88458.76452
Mixed,Female,tile,33,F_bluff.wav,None,726.117895,2191,78499.6596,85383.27152,86149.76478,86916.56567,87683.15818,88449.80541,89216.58651,89983.55466,79266.92641,80032.96087,80799.51164,81566.3184,82333.20152,83099.83948,83849.60729,84616.16857,89225.72587
Mixed,Female,cave,21,M_lash.wav,None,721.5338392,2191,93150.01181,85383.27152,86149.76478,86916.56567,87683.15818,88449.80541,89216.58651,89983.55466,79266.92641,80032.96087,80799.51164,81566.3184,82333.20152,83099.83948,83849.60729,84616.16857,89993.45581
Mixed,Female,cave,21,F_cave.wav,None,723.3839093,2191,93150.01181,85383.27152,86149.76478,86916.56567,87683.15818,88449.80541,89216.58651,89983.55466,93916.553,80032.96087,80799.51164,81566.3184,82333.20152,83099.83948,83849.60729,84616.16857,93159.56948
Mixed,Female,cave,21,M_cling.wav,space,569.2542709,2191,93150.01181,85383.27152,86149.76478,86916.56567,87683.15818,88449.80541,89216.58651,89983.55466,93916.553,94682.99308,80799.51164,81566.3184,82333.20152,83099.83948,83849.60729,84616.16857,93926.10262
Mixed,Female,cave,21,M_dime.wav,None,723.7552218,2191,93150.01181,85383.27152,86149.76478,86916.56567,87683.15818,88449.80541,89216.58651,89983.55466,93916.553,94682.99308,95450.38819,81566.3184,82333.20152,83099.83948,83849.60729,84616.16857,94692.2861
Mixed,Female,cave,21,M_ball.wav,None,722.9955925,2191,93150.01181,85383.27152,86149.76478,86916.56567,87683.15818,88449.80541,89216.58651,89983.55466,93916.553,94682.99308,95450.38819,96216.90032,82333.20152,83099.83948,83849.60729,84616.16857,95459.7888
Mixed,Female,cave,21,F_gnash.wav,None,723.0781408,2191,93150.01181,85383.27152,86149.76478,86916.56567,87683.15818,88449.80541,89216.58651,89983.55466,93916.553,94682.99308,95450.38819,96216.90032,96983.03804,83099.83948,83849.60729,84616.16857,96226.37914
Mixed,Female,cave,21,F_cave.wav,None,723.5672468,2191,93150.01181,85383.27152,86149.76478,86916.56567,87683.15818,88449.80541,89216.58651,89983.55466,93916.553,94682.99308,95450.38819,96216.90032,96983.03804,97749.80306,83849.60729,84616.16857,96992.63373
Mixed,Female,cave,21,F_priest.wav,space,407.8798641,2191,93150.01181,85383.27152,86149.76478,86916.56567,87683.15818,88449.80541,89216.58651,89983.55466,93916.553,94682.99308,95450.38819,96216.90032,96983.03804,97749.80306,98516.80089,84616.16857,97759.37402
Mixed,Female,cave,21,F_cave.wav,None,719.8142386,2191,93150.01181,85383.27152,86149.76478,86916.56567,87683.15818,88449.80541,89216.58651,89983.55466,93916.553,94682.99308,95450.38819,96216.90032,96983.03804,97749.80306,98516.80089,99266.34672,98526.39009
Mixed,Female,cave,21,M_lash.wav,space,555.6724559,2191,93150.01181,100032.7967,86149.76478,86916.56567,87683.15818,88449.80541,89216.58651,89983.55466,93916.553,94682.99308,95450.38819,96216.90032,96983.03804,97749.80306,98516.80089,99266.34672,99275.4935
Mixed,Female,cave,21,M_romp.wav,None,730.8132518,2191,93150.01181,100032.7967,100799.468,86916.56567,87683.15818,88449.80541,89216.58651,89983.55466,93916.553,94682.99308,95450.38819,96216.90032,96983.03804,97749.80306,98516.80089,99266.34672,100041.8248
Mixed,Female,cave,21,F_jolt.wav,None,730.7993391,2191,93150.01181,100032.7967,100799.468,101566.1941,87683.15818,88449.80541,89216.58651,89983.55466,93916.553,94682.99308,95450.38819,96216.90032,96983.03804,97749.80306,98516.80089,99266.34672,100808.5082
Mixed,Female,cave,21,F_cave.wav,None,730.6518652,2191,93150.01181,100032.7967,100799.468,101566.1941,102332.7996,88449.80541,89216.58651,89983.55466,93916.553,94682.99308,95450.38819,96216.90032,96983.03804,97749.80306,98516.80089,99266.34672,101575.2682
Mixed,Female,cave,21,M_dime.wav,space,368.7461199,2191,93150.01181,100032.7967,100799.468,101566.1941,102332.7996,103099.8454,89216.58651,89983.55466,93916.553,94682.99308,95450.38819,96216.90032,96983.03804,97749.80306,98516.80089,99266.34672,102342.3316
Mixed,Female,cave,21,F_cling.wav,None,723.3826726,2191,93150.01181,100032.7967,100799.468,101566.1941,102332.7996,103099.8454,103865.9945,89983.55466,93916.553,94682.99308,95450.38819,96216.90032,96983.03804,97749.80306,98516.80089,99266.34672,103109.1813
Mixed,Female,cave,21,M_jaw.wav,None,725.2803548,2191,93150.01181,100032.7967,100799.468,101566.1941,102332.7996,103099.8454,103865.9945,104632.6689,93916.553,94682.99308,95450.38819,96216.90032,96983.03804,97749.80306,98516.80089,99266.34672,103875.0665
Mixed,Female,ball,8,F_jolt.wav,None,725.7914119,2191,107749.0481,100032.7967,100799.468,101566.1941,102332.7996,103099.8454,103865.9945,104632.6689,93916.553,94682.99308,95450.38819,96216.90032,96983.03804,97749.80306,98516.80089,99266.34672,104641.7369
Mixed,Female,ball,8,F_ball.wav,None,721.3072181,2191,107749.0481,100032.7967,100799.468,101566.1941,102332.7996,103099.8454,103865.9945,104632.6689,108516.5297,94682.99308,95450.38819,96216.90032,96983.03804,97749.80306,98516.80089,99266.34672,107757.8715
Mixed,Female,ball,8,M_reek.wav,space,504.3750572,2191,107749.0481,100032.7967,100799.468,101566.1941,102332.7996,103099.8454,103865.9945,104632.6689,108516.5297,109282.8616,95450.38819,96216.90032,96983.03804,97749.80306,98516.80089,99266.34672,108526.5138
Mixed,Female,ball,8,M_greet.wav,None,720.0958921,2191,107749.0481,100032.7967,100799.468,101566.1941,102332.7996,103099.8454,103865.9945,104632.6689,108516.5297,109282.8616,110049.4513,96216.90032,96983.03804,97749.80306,98516.80089,99266.34672,109292.3448
Mixed,Female,ball,8,F_ball.wav,None,720.3562127,2191,107749.0481,100032.7967,100799.468,101566.1941,102332.7996,103099.8454,103865.9945,104632.6689,108516.5297,109282.8616,110049.4513,110799.0485,96983.03804,97749.80306,98516.80089,99266.34672,110059.0044
Mixed,Female,ball,8,M_reek.wav,space,414.8618383,2191,107749.0481,100032.7967,100799.468,101566.1941,102332.7996,103099.8454,103865.9945,104632.6689,108516.5297,109282.8616,110049.4513,110799.0485,111565.9319,97749.80306,98516.80089,99266.34672,110807.9909
Mixed,Female,ball,8,F_depth.wav,None,730.5959056,2191,107749.0481,100032.7967,100799.468,101566.1941,102332.7996,103099.8454,103865.9945,104632.6689,108516.5297,109282.8616,110049.4513,110799.0485,111565.9319,112332.406,98516.80089,99266.34672,111574.956
Mixed,Female,ball,8,M_gnash.wav,None,727.1134207,2191,107749.0481,100032.7967,100799.468,101566.1941,102332.7996,103099.8454,103865.9945,104632.6689,108516.5297,109282.8616,110049.4513,110799.0485,111565.9319,112332.406,113099.1064,99266.34672,112341.8892
Mixed,Female,ball,8,F_cave.wav,None,727.9033486,2191,107749.0481,100032.7967,100799.468,101566.1941,102332.7996,103099.8454,103865.9945,104632.6689,108516.5297,109282.8616,110049.4513,110799.0485,111565.9319,112332.406,113099.1064,113866.138,113108.0519
Mixed,Female,ball,8,M_jaw.wav,None,723.4720227,2191,107749.0481,114632.8755,100799.468,101566.1941,102332.7996,103099.8454,103865.9945,104632.6689,108516.5297,109282.8616,110049.4513,110799.0485,111565.9319,112332.406,113099.1064,113866.138,113875.8889
Mixed,Female,ball,8,M_jaw.wav,None,720.4811173,2191,107749.0481,114632.8755,115382.0401,101566.1941,102332.7996,103099.8454,103865.9945,104632.6689,108516.5297,109282.8616,110049.4513,110799.0485,111565.9319,112332.406,113099.1064,113866.138,114642.3753
Mixed,Female,ball,8,F_ball.wav,None,735.2201534,2191,107749.0481,114632.8755,115382.0401,116148.7609,102332.7996,103099.8454,103865.9945,104632.6689,108516.5297,109282.8616,110049.4513,110799.0485,111565.9319,112332.406,113099.1064,113866.138,115391.0842
Mixed,Female,ball,8,F_cad.wav,space,472.8289502,2191,107749.0481,114632.8755,115382.0401,116148.7609,116915.8073,103099.8454,103865.9945,104632.6689,108516.5297,109282.8616,110049.4513,110799.0485,111565.9319,112332.406,113099.1064,113866.138,116157.8292
Mixed,Female,ball,8,M_lash.wav,None,731.2723685,2191,107749.0481,114632.8755,115382.0401,116148.7609,116915.8073,117682.2814,103865.9945,104632.6689,108516.5297,109282.8616,110049.4513,110799.0485,111565.9319,112332.406,113099.1064,113866.138,116924.9401
Mixed,Female,ball,8,F_ball.wav,None,727.9617817,2191,107749.0481,114632.8755,115382.0401,116148.7609,116915.8073,117682.2814,118448.9697,104632.6689,108516.5297,109282.8616,110049.4513,110799.0485,111565.9319,112332.406,113099.1064,113866.138,117691.6297
Mixed,Female,ball,8,M_park.wav,space,404.6354397,2191,107749.0481,114632.8755,115382.0401,116148.7609,116915.8073,117682.2814,118448.9697,119216.0612,108516.5297,109282.8616,110049.4513,110799.0485,111565.9319,112332.406,113099.1064,113866.138,118457.9789
Mixed,Male,ball,1,F_gnash.wav,None,720.6394119,2191,122332.5665,114632.8755,115382.0401,116148.7609,116915.8073,117682.2814,118448.9697,119216.0612,108516.5297,109282.8616,110049.4513,110799.0485,111565.9319,112332.406,113099.1064,113866.138,119225.8965
Mixed,Male,ball,1,F_greet.wav,None,719.638012,2191,122332.5665,114632.8755,115382.0401,116148.7609,116915.8073,117682.2814,118448.9697,119216.0612,123098.5688,109282.8616,110049.4513,110799.0485,111565.9319,112332.406,113099.1064,113866.138,122342.0871
Mixed,Male,ball,1,M_ball.wav,None,723.395967,2191,122332.5665,114632.8755,115382.0401,116148.7609,116915.8073,117682.2814,118448.9697,119216.0612,123098.5688,123849.2994,110049.4513,110799.0485,111565.9319,112332.406,113099.1064,113866.138,123107.2701
Mixed,Male,ball,1,M_cad.wav,space,611.9997328,2191,122332.5665,114632.8755,115382.0401,116148.7609,116915.8073,117682.2814,118448.9697,119216.0612,123098.5688,123849.2994,124615.732,110799.0485,111565.9319,112332.406,113099.1064,113866.138,123858.4458
Mixed,Male,ball,1,F_done.wav,None,741.2403013,2191,122332.5665,114632.8755,115382.0401,116148.7609,116915.8073,117682.2814,118448.9697,119216.0612,123098.5688,123849.2994,124615.732,125399.2067,111565.9319,112332.406,113099.1064,113866.138,124619.4272
Mixed,Male,ball,1,F_bluff.wav,None,718.258807,2191,122332.5665,114632.8755,115382.0401,116148.7609,116915.8073,117682.2814,118448.9697,119216.0612,123098.5688,123849.2994,124615.732,125399.2067,126148.6586,112332.406,113099.1064,113866.138,125409.2702
Mixed,Male,ball,1,F_gnash.wav,None,733.3218529,2191,122332.5665,114632.8755,115382.0401,116148.7609,116915.8073,117682.2814,118448.9697,119216.0612,123098.5688,123849.2994,124615.732,125399.2067,126148.6586,126915.15,113099.1064,113866.138,126157.7219
Mixed,Male,ball,1,M_ball.wav,None,730.5346901,2191,122332.5665,114632.8755,115382.0401,116148.7609,116915.8073,117682.2814,118448.9697,119216.0612,123098.5688,123849.2994,124615.732,125399.2067,126148.6586,126915.15,127681.9595,113866.138,126924.127
Mixed,Male,ball,1,M_gnash.wav,space,331.2577755,2191,122332.5665,114632.8755,115382.0401,116148.7609,116915.8073,117682.2814,118448.9697,119216.0612,123098.5688,123849.2994,124615.732,125399.2067,126148.6586,126915.15,127681.9595,128448.9169,127691.0918
Mixed,Male,ball,1,F_done.wav,None,722.2916136,2191,122332.5665,129215.2286,115382.0401,116148.7609,116915.8073,117682.2814,118448.9697,119216.0612,123098.5688,123849.2994,124615.732,125399.2067,126148.6586,126915.15,127681.9595,128448.9169,128458.8171
Mixed,Male,ball,1,M_romp.wav,None,720.351266,2191,122332.5665,129215.2286,129965.3576,116148.7609,116915.8073,117682.2814,118448.9697,119216.0612,123098.5688,123849.2994,124615.732,125399.2067,126148.6586,126915.15,127681.9595,128448.9169,129224.2496
Mixed,Male,ball,1,M_ball.wav,None,733.7457242,2191,122332.5665,129215.2286,129965.3576,130731.9114,116915.8073,117682.2814,118448.9697,119216.0612,123098.5688,123849.2994,124615.732,125399.2067,126148.6586,126915.15,127681.9595,128448.9169,129974.4138
Mixed,Male,ball,1,F_done.wav,space,409.3119372,2191,122332.5665,129215.2286,129965.3576,130731.9114,131498.5042,117682.2814,118448.9697,119216.0612,123098.5688,123849.2994,124615.732,125399.2067,126148.6586,126915.15,127681.9595,128448.9169,130740.9398
Mixed,Male,ball,1,M_done.wav,None,727.3320034,2191,122332.5665,129215.2286,129965.3576,130731.9114,131498.5042,132265.7386,118448.9697,119216.0612,123098.5688,123849.2994,124615.732,125399.2067,126148.6586,126915.15,127681.9595,128448.9169,131507.4896
Mixed,Male,ball,1,M_ball.wav,None,722.7856664,2191,122332.5665,129215.2286,129965.3576,130731.9114,131498.5042,132265.7386,133032.2974,119216.0612,123098.5688,123849.2994,124615.732,125399.2067,126148.6586,126915.15,127681.9595,128448.9169,132275.6258
Mixed,Male,ball,1,F_tile.wav,space,444.2165522,2191,122332.5665,129215.2286,129965.3576,130731.9114,131498.5042,132265.7386,133032.2974,133781.6287,123098.5688,123849.2994,124615.732,125399.2067,126148.6586,126915.15,127681.9595,128448.9169,133041.9289
Mixed,Female,done,43,M_park.wav,None,734.9326258,2191,136915.5522,129215.2286,129965.3576,130731.9114,131498.5042,132265.7386,133032.2974,133781.6287,123098.5688,123849.2994,124615.732,125399.2067,126148.6586,126915.15,127681.9595,128448.9169,133790.6864
Mixed,Female,done,43,F_done.wav,None,719.3276058,2191,136915.5522,129215.2286,129965.3576,130731.9114,131498.5042,132265.7386,133032.2974,133781.6287,137664.9623,123849.2994,124615.732,125399.2067,126148.6586,126915.15,127681.9595,128448.9169,136925.0317
Mixed,Female,done,43,F_bluff.wav,space,444.0335238,2191,136915.5522,129215.2286,129965.3576,130731.9114,131498.5042,132265.7386,133032.2974,133781.6287,137664.9623,138431.7375,124615.732,125399.2067,126148.6586,126915.15,127681.9595,128448.9169,137674.0222
Mixed,Female,done,43,F_lash.wav,None,730.0625882,2191,136915.5522,129215.2286,129965.3576,130731.9114,131498.5042,132265.7386,133032.2974,133781.6287,137664.9623,138431.7375,139198.1783,125399.2067,126148.6586,126915.15,127681.9595,128448.9169,138441.2519
Mixed,Female,done,43,F_done.wav,None,732.6021063,2191,136915.5522,129215.2286,129965.3576,130731.9114,131498.5042,132265.7386,133032.2974,133781.6287,137664.9623,138431.7375,139198.1783,139964.9498,126148.6586,126915.15,127681.9595,128448.9169,139207.1355
Mixed,Female,done,43,M_cave.wav,space,455.6919954,2191,136915.5522,129215.2286,129965.3576,130731.9114,131498.5042,132265.7386,133032.2974,133781.6287,137664.9623,138431.7375,139198.1783,139964.9498,140731.8106,126915.15,127681.9595,128448.9169,139974.2199
Mixed,Female,done,43,F_done.wav,None,723.1214244,2191,136915.5522,129215.2286,129965.3576,130731.9114,131498.5042,132265.7386,133032.2974,133781.6287,137664.9623,138431.7375,139198.1783,139964.9498,140731.8106,141498.6477,127681.9595,128448.9169,140742.9305
Mixed,Female,done,43,M_reek.wav,space,351.521052,2191,136915.5522,129215.2286,129965.3576,130731.9114,131498.5042,132265.7386,133032.2974,133781.6287,137664.9623,138431.7375,139198.1783,139964.9498,140731.8106,141498.6477,142248.0603,128448.9169,141510.3896
Mixed,Female,done,43,M_greet.wav,None,735.0828821,2191,136915.5522,129215.2286,129965.3576,130731.9114,131498.5042,132265.7386,133032.2974,133781.6287,137664.9623,138431.7375,139198.1783,139964.9498,140731.8106,141498.6477,142248.0603,143014.8677,142257.4371
Mixed,Female,done,43,M_gnash.wav,None,730.6923665,2191,136915.5522,143781.4765,129965.3576,130731.9114,131498.5042,132265.7386,133032.2974,133781.6287,137664.9623,138431.7375,139198.1783,139964.9498,140731.8106,141498.6477,142248.0603,143014.8677,143025.5943
Mixed,Female,done,43,F_done.wav,None,729.8424596,2191,136915.5522,143781.4765,144547.9547,130731.9114,131498.5042,132265.7386,133032.2974,133781.6287,137664.9623,138431.7375,139198.1783,139964.9498,140731.8106,141498.6477,142248.0603,143014.8677,143790.0872
Mixed,Female,done,43,M_jolt.wav,space,368.7776552,2191,136915.5522,143781.4765,144547.9547,145315.1958,131498.5042,132265.7386,133032.2974,133781.6287,137664.9623,138431.7375,139198.1783,139964.9498,140731.8106,141498.6477,142248.0603,143014.8677,144557.0158
Mixed,Female,done,43,F_knife.wav,None,720.460712,2191,136915.5522,143781.4765,144547.9547,145315.1958,146081.7426,132265.7386,133032.2974,133781.6287,137664.9623,138431.7375,139198.1783,139964.9498,140731.8106,141498.6477,142248.0603,143014.8677,145326.0399
Mixed,Female,done,43,M_gnash.wav,None,723.3464998,2191,136915.5522,143781.4765,144547.9547,145315.1958,146081.7426,146848.3558,133032.2974,133781.6287,137664.9623,138431.7375,139198.1783,139964.9498,140731.8106,141498.6477,142248.0603,143014.8677,146091.0204
Mixed,Female,done,43,F_bluff.wav,None,718.6421772,2191,136915.5522,143781.4765,144547.9547,145315.1958,146081.7426,146848.3558,147597.9229,133781.6287,137664.9623,138431.7375,139198.1783,139964.9498,140731.8106,141498.6477,142248.0603,143014.8677,146859.276
Mixed,Female,done,43,M_reek.wav,None,734.241632,2191,136915.5522,143781.4765,144547.9547,145315.1958,146081.7426,146848.3558,147597.9229,148364.7173,137664.9623,138431.7375,139198.1783,139964.9498,140731.8106,141498.6477,142248.0603,143014.8677,147607.3189
Mixed,Female,tile,32,M_cave.wav,None,731.426644,2191,151497.8371,143781.4765,144547.9547,145315.1958,146081.7426,146848.3558,147597.9229,148364.7173,137664.9623,138431.7375,139198.1783,139964.9498,140731.8106,141498.6477,142248.0603,143014.8677,148373.7856
Mixed,Female,tile,32,F_tile.wav,None,716.8357,2191,151497.8371,143781.4765,144547.9547,145315.1958,146081.7426,146848.3558,147597.9229,148364.7173,152247.7424,138431.7375,139198.1783,139964.9498,140731.8106,141498.6477,142248.0603,143014.8677,151511.2822
Mixed,Female,tile,32,M_reek.wav,space,396.8298382,2191,151497.8371,143781.4765,144547.9547,145315.1958,146081.7426,146848.3558,147597.9229,148364.7173,152247.7424,153014.5381,139198.1783,139964.9498,140731.8106,141498.6477,142248.0603,143014.8677,152256.7232
Mixed,Female,tile,32,M_ball.wav,None,730.9665998,2191,151497.8371,143781.4765,144547.9547,145315.1958,146081.7426,146848.3558,147597.9229,148364.7173,152247.7424,153014.5381,153781.1661,139964.9498,140731.8106,141498.6477,142248.0603,143014.8677,153024.1483
Mixed,Female,tile,32,M_depth.wav,None,728.6221677,2191,151497.8371,143781.4765,144547.9547,145315.1958,146081.7426,146848.3558,147597.9229,148364.7173,152247.7424,153014.5381,153781.1661,154547.7849,140731.8106,141498.6477,142248.0603,143014.8677,153790.2294
Mixed,Female,tile,32,F_jolt.wav,None,726.1862213,2191,151497.8371,143781.4765,144547.9547,145315.1958,146081.7426,146848.3558,147597.9229,148364.7173,152247.7424,153014.5381,153781.1661,154547.7849,155314.6857,141498.6477,142248.0603,143014.8677,154556.4361
Mixed,Female,tile,32,F_bluff.wav,None,722.8753255,2191,151497.8371,143781.4765,144547.9547,145315.1958,146081.7426,146848.3558,147597.9229,148364.7173,152247.7424,153014.5381,153781.1661,154547.7849,155314.6857,156081.7933,142248.0603,143014.8677,155323.9759
Mixed,Female,tile,32,M_knife.wav,None,719.4846639,2191,151497.8371,143781.4765,144547.9547,145315.1958,146081.7426,146848.3558,147597.9229,148364.7173,152247.7424,153014.5381,153781.1661,154547.7849,155314.6857,156081.7933,156848.1622,143014.8677,156091.2798
Mixed,Female,tile,32,F_tile.wav,None,720.3540485,2191,151497.8371,143781.4765,144547.9547,145315.1958,146081.7426,146848.3558,147597.9229,148364.7173,152247.7424,153014.5381,153781.1661,154547.7849,155314.6857,156081.7933,156848.1622,157597.5856,156857.6259
Mixed,Female,tile,32,M_done.wav,space,294.5426641,2191,151497.8371,158364.474,144547.9547,145315.1958,146081.7426,146848.3558,147597.9229,148364.7173,152247.7424,153014.5381,153781.1661,154547.7849,155314.6857,156081.7933,156848.1622,157597.5856,157606.9742
Mixed,Female,tile,32,M_gnash.wav,None,731.3771768,2191,151497.8371,158364.474,159131.03,145315.1958,146081.7426,146848.3558,147597.9229,148364.7173,152247.7424,153014.5381,153781.1661,154547.7849,155314.6857,156081.7933,156848.1622,157597.5856,158373.5556
Mixed,Female,tile,32,F_tile.wav,None,728.8747592,2191,151497.8371,158364.474,159131.03,159897.6216,146081.7426,146848.3558,147597.9229,148364.7173,152247.7424,153014.5381,153781.1661,154547.7849,155314.6857,156081.7933,156848.1622,157597.5856,159140.0182
Mixed,Female,tile,32,F_priest.wav,space,426.739202,2191,151497.8371,158364.474,159131.03,159897.6216,160664.8659,146848.3558,147597.9229,148364.7173,152247.7424,153014.5381,153781.1661,154547.7849,155314.6857,156081.7933,156848.1622,157597.5856,159906.6126
Mixed,Female,tile,32,F_tile.wav,None,720.6539429,2191,151497.8371,158364.474,159131.03,159897.6216,160664.8659,161414.5162,147597.9229,148364.7173,152247.7424,153014.5381,153781.1661,154547.7849,155314.6857,156081.7933,156848.1622,157597.5856,160675.0867
Mixed,Female,tile,32,F_bluff.wav,space,533.7699631,2191,151497.8371,158364.474,159131.03,159897.6216,160664.8659,161414.5162,162180.9127,148364.7173,152247.7424,153014.5381,153781.1661,154547.7849,155314.6857,156081.7933,156848.1622,157597.5856,161423.5498
Mixed,Female,tile,32,M_greet.wav,None,732.8237809,2191,151497.8371,158364.474,159131.03,159897.6216,160664.8659,161414.5162,162180.9127,162947.6078,152247.7424,153014.5381,153781.1661,154547.7849,155314.6857,156081.7933,156848.1622,157597.5856,162190.0326
Mixed,Female,tile,34,M_reek.wav,None,730.0808292,2191,166081.2612,158364.474,159131.03,159897.6216,160664.8659,161414.5162,162180.9127,162947.6078,152247.7424,153014.5381,153781.1661,154547.7849,155314.6857,156081.7933,156848.1622,157597.5856,162956.549
Mixed,Female,tile,34,M_cave.wav,None,719.6649098,2191,166081.2612,158364.474,159131.03,159897.6216,160664.8659,161414.5162,162180.9127,162947.6078,166830.4508,153014.5381,153781.1661,154547.7849,155314.6857,156081.7933,156848.1622,157597.5856,166091.0334
Mixed,Female,tile,34,F_ball.wav,None,735.2383944,2191,166081.2612,158364.474,159131.03,159897.6216,160664.8659,161414.5162,162180.9127,162947.6078,166830.4508,167597.4357,153781.1661,154547.7849,155314.6857,156081.7933,156848.1622,157597.5856,166839.3472
Mixed,Female,tile,34,F_park.wav,None,732.0004625,2191,166081.2612,158364.474,159131.03,159897.6216,160664.8659,161414.5162,162180.9127,162947.6078,166830.4508,167597.4357,168364.0829,154547.7849,155314.6857,156081.7933,156848.1622,157597.5856,167606.4161
Mixed,Female,tile,34,M_romp.wav,None,732.6620851,2191,166081.2612,158364.474,159131.03,159897.6216,160664.8659,161414.5162,162180.9127,162947.6078,166830.4508,167597.4357,168364.0829,169130.3975,155314.6857,156081.7933,156848.1622,157597.5856,168373.2495
Mixed,Female,tile,34,M_lash.wav,None,730.4437943,2191,166081.2612,158364.474,159131.03,159897.6216,160664.8659,161414.5162,162180.9127,162947.6078,166830.4508,167597.4357,168364.0829,169130.3975,169897.0215,156081.7933,156848.1622,157597.5856,169139.399
Mixed,Female,tile,34,F_tile.wav,None,727.7363972,2191,166081.2612,158364.474,159131.03,159897.6216,160664.8659,161414.5162,162180.9127,162947.6078,166830.4508,167597.4357,168364.0829,169130.3975,169897.0215,170663.6771,156848.1622,157597.5856,169905.9169
Mixed,Female,tile,34,M_knife.wav,space,492.4173096,2191,166081.2612,158364.474,159131.03,159897.6216,160664.8659,161414.5162,162180.9127,162947.6078,166830.4508,167597.4357,168364.0829,169130.3975,169897.0215,170663.6771,171431.365,157597.5856,170672.6347
Mixed,Female,tile,34,F_tile.wav,None,721.2024096,2191,166081.2612,158364.474,159131.03,159897.6216,160664.8659,161414.5162,162180.9127,162947.6078,166830.4508,167597.4357,168364.0829,169130.3975,169897.0215,170663.6771,171431.365,172180.5639,171440.3464
Mixed,Female,tile,34,M_priest.wav,space,406.8351805,2191,166081.2612,172946.9611,159131.03,159897.6216,160664.8659,161414.5162,162180.9127,162947.6078,166830.4508,167597.4357,168364.0829,169130.3975,169897.0215,170663.6771,171431.365,172180.5639,172190.1513
Mixed,Female,tile,34,F_ball.wav,None,735.8746652,2191,166081.2612,172946.9611,173714.0727,159897.6216,160664.8659,161414.5162,162180.9127,162947.6078,166830.4508,167597.4357,168364.0829,169130.3975,169897.0215,170663.6771,171431.365,172180.5639,172956.1292
Mixed,Female,tile,34,F_tile.wav,None,732.6280766,2191,166081.2612,172946.9611,173714.0727,174480.5903,160664.8659,161414.5162,162180.9127,162947.6078,166830.4508,167597.4357,168364.0829,169130.3975,169897.0215,170663.6771,171431.365,172180.5639,173723.1023
Mixed,Female,tile,34,M_bluff.wav,space,499.2511915,2191,166081.2612,172946.9611,173714.0727,174480.5903,175247.2011,161414.5162,162180.9127,162947.6078,166830.4508,167597.4357,168364.0829,169130.3975,169897.0215,170663.6771,171431.365,172180.5639,174489.6648
Mixed,Female,tile,34,M_dime.wav,None,726.780136,2191,166081.2612,172946.9611,173714.0727,174480.5903,175247.2011,176014.16,162180.9127,162947.6078,166830.4508,167597.4357,168364.0829,169130.3975,169897.0215,170663.6771,171431.365,172180.5639,175256.1784
Mixed,Female,tile,34,F_tile.wav,None,722.7822655,2191,166081.2612,172946.9611,173714.0727,174480.5903,175247.2011,176014.16,176781.0842,162947.6078,166830.4508,167597.4357,168364.0829,169130.3975,169897.0215,170663.6771,171431.365,172180.5639,176024.0957
Mixed,Female,tile,34,F_jaw.wav,space,494.2608872,2191,166081.2612,172946.9611,173714.0727,174480.5903,175247.2011,176014.16,176781.0842,177530.4282,166830.4508,167597.4357,168364.0829,169130.3975,169897.0215,170663.6771,171431.365,172180.5639,176790.6054
Mixed,Male,done,39,F_greet.wav,None,734.1665039,2191,180664.0521,172946.9611,173714.0727,174480.5903,175247.2011,176014.16,176781.0842,177530.4282,166830.4508,167597.4357,168364.0829,169130.3975,169897.0215,170663.6771,171431.365,172180.5639,177539.5252
Mixed,Male,done,39,M_done.wav,None,719.2048656,2191,180664.0521,172946.9611,173714.0727,174480.5903,175247.2011,176014.16,176781.0842,177530.4282,181413.4196,167597.4357,168364.0829,169130.3975,169897.0215,170663.6771,171431.365,172180.5639,180673.8865
Mixed,Male,done,39,M_cling.wav,space,446.377956,2191,180664.0521,172946.9611,173714.0727,174480.5903,175247.2011,176014.16,176781.0842,177530.4282,181413.4196,182180.3042,168364.0829,169130.3975,169897.0215,170663.6771,171431.365,172180.5639,181422.3573
Mixed,Male,done,39,M_done.wav,None,730.7016415,2191,180664.0521,172946.9611,173714.0727,174480.5903,175247.2011,176014.16,176781.0842,177530.4282,181413.4196,182180.3042,182946.9478,169130.3975,169897.0215,170663.6771,171431.365,172180.5639,182189.4049
Mixed,Male,done,39,M_greet.wav,space,520.1544487,2191,180664.0521,172946.9611,173714.0727,174480.5903,175247.2011,176014.16,176781.0842,177530.4282,181413.4196,182180.3042,182946.9478,183714.1691,169897.0215,170663.6771,171431.365,172180.5639,182956.5308
Mixed,Male,done,39,M_done.wav,None,723.5499333,2191,180664.0521,172946.9611,173714.0727,174480.5903,175247.2011,176014.16,176781.0842,177530.4282,181413.4196,182180.3042,182946.9478,183714.1691,184480.4218,170663.6771,171431.365,172180.5639,183723.6696
Mixed,Male,done,39,F_jaw.wav,space,442.4314076,2191,180664.0521,172946.9611,173714.0727,174480.5903,175247.2011,176014.16,176781.0842,177530.4282,181413.4196,182180.3042,182946.9478,183714.1691,184480.4218,185230.2104,171431.365,172180.5639,184490.1935
Mixed,Male,done,39,M_done.wav,None,734.8247257,2191,180664.0521,172946.9611,173714.0727,174480.5903,175247.2011,176014.16,176781.0842,177530.4282,181413.4196,182180.3042,182946.9478,183714.1691,184480.4218,185230.2104,185996.9015,172180.5639,185239.2737
Mixed,Male,done,39,F_dime.wav,space,358.2269378,2191,180664.0521,172946.9611,173714.0727,174480.5903,175247.2011,176014.16,176781.0842,177530.4282,181413.4196,182180.3042,182946.9478,183714.1691,184480.4218,185230.2104,185996.9015,186763.2903,186006.2922
Mixed,Male,done,39,F_dime.wav,None,733.5169388,2191,180664.0521,187530.1616,173714.0727,174480.5903,175247.2011,176014.16,176781.0842,177530.4282,181413.4196,182180.3042,182946.9478,183714.1691,184480.4218,185230.2104,185996.9015,186763.2903,186772.224
Mixed,Male,done,39,F_cave.wav,None,730.5050099,2191,180664.0521,187530.1616,188296.5124,174480.5903,175247.2011,176014.16,176781.0842,177530.4282,181413.4196,182180.3042,182946.9478,183714.1691,184480.4218,185230.2104,185996.9015,186763.2903,187539.1566
Mixed,Male,done,39,F_reek.wav,None,728.0446391,2191,180664.0521,187530.1616,188296.5124,189063.2851,175247.2011,176014.16,176781.0842,177530.4282,181413.4196,182180.3042,182946.9478,183714.1691,184480.4218,185230.2104,185996.9015,186763.2903,188305.478
Mixed,Male,done,39,M_depth.wav,None,728.3340218,2191,180664.0521,187530.1616,188296.5124,189063.2851,189830.1219,176014.16,176781.0842,177530.4282,181413.4196,182180.3042,182946.9478,183714.1691,184480.4218,185230.2104,185996.9015,186763.2903,189072.4075
Mixed,Male,done,39,F_bluff.wav,None,726.0174149,2191,180664.0521,187530.1616,188296.5124,189063.2851,189830.1219,190597.0696,176781.0842,177530.4282,181413.4196,182180.3042,182946.9478,183714.1691,184480.4218,185230.2104,185996.9015,186763.2903,189839.2783
Mixed,Male,done,39,M_ball.wav,None,722.4981388,2191,180664.0521,187530.1616,188296.5124,189063.2851,189830.1219,190597.0696,191363.9549,177530.4282,181413.4196,182180.3042,182946.9478,183714.1691,184480.4218,185230.2104,185996.9015,186763.2903,190606.6177
Mixed,Male,done,39,F_greet.wav,None,719.5662847,2191,180664.0521,187530.1616,188296.5124,189063.2851,189830.1219,190597.0696,191363.9549,192113.0772,181413.4196,182180.3042,182946.9478,183714.1691,184480.4218,185230.2104,185996.9015,186763.2903,191373.5478
Mixed,Male,tile,29,F_gnash.wav,None,735.3027017,2191,195246.9327,187530.1616,188296.5124,189063.2851,189830.1219,190597.0696,191363.9549,192113.0772,181413.4196,182180.3042,182946.9478,183714.1691,184480.4218,185230.2104,185996.9015,186763.2903,192121.8248
Mixed,Male,tile,29,F_depth.wav,None,720.3444642,2191,195246.9327,187530.1616,188296.5124,189063.2851,189830.1219,190597.0696,191363.9549,192113.0772,195996.3673,182180.3042,182946.9478,183714.1691,184480.4218,185230.2104,185996.9015,186763.2903,195256.1689
Mixed,Male,tile,29,M_bluff.wav,None,735.0439269,2191,195246.9327,187530.1616,188296.5124,189063.2851,189830.1219,190597.0696,191363.9549,192113.0772,195996.3673,196763.3298,182946.9478,183714.1691,184480.4218,185230.2104,185996.9015,186763.2903,196005.4089
Mixed,Male,tile,29,M_romp.wav,None,731.9305901,2191,195246.9327,187530.1616,188296.5124,189063.2851,189830.1219,190597.0696,191363.9549,192113.0772,195996.3673,196763.3298,197529.8831,183714.1691,184480.4218,185230.2104,185996.9015,186763.2903,196772.4562
Mixed,Male,tile,29,M_cad.wav,None,729.6665421,2191,195246.9327,187530.1616,188296.5124,189063.2851,189830.1219,190597.0696,191363.9549,192113.0772,195996.3673,196763.3298,197529.8831,198296.4379,184480.4218,185230.2104,185996.9015,186763.2903,197538.986
Mixed,Male,tile,29,M_tile.wav,None,727.1239324,2191,195246.9327,187530.1616,188296.5124,189063.2851,189830.1219,190597.0696,191363.9549,192113.0772,195996.3673,196763.3298,197529.8831,198296.4379,199063.1083,185230.2104,185996.9015,186763.2903,198305.4761
Mixed,Male,tile,29,F_bluff.wav,space,523.5067733,2191,195246.9327,187530.1616,188296.5124,189063.2851,189830.1219,190597.0696,191363.9549,192113.0772,195996.3673,196763.3298,197529.8831,198296.4379,199063.1083,199829.9351,185996.9015,186763.2903,199072.7139
Mixed,Male,tile,29,M_tile.wav,None,724.4434331,2191,195246.9327,187530.1616,188296.5124,189063.2851,189830.1219,190597.0696,191363.9549,192113.0772,195996.3673,196763.3298,197529.8831,198296.4379,199063.1083,199829.9351,200596.8223,186763.2903,199838.9963
Mixed,Male,tile,29,F_reek.wav,space,477.8662483,2191,195246.9327,187530.1616,188296.5124,189063.2851,189830.1219,190597.0696,191363.9549,192113.0772,195996.3673,196763.3298,197529.8831,198296.4379,199063.1083,199829.9351,200596.8223,201346.1217,200606.2541
Mixed,Male,tile,29,M_tile.wav,None,735.6523724,2191,195246.9327,202113.0982,188296.5124,189063.2851,189830.1219,190597.0696,191363.9549,192113.0772,195996.3673,196763.3298,197529.8831,198296.4379,199063.1083,199829.9351,200596.8223,201346.1217,201355.1176
Mixed,Male,tile,29,F_bluff.wav,space,322.1202719,2191,195246.9327,202113.0982,202879.9782,189063.2851,189830.1219,190597.0696,191363.9549,192113.0772,195996.3673,196763.3298,197529.8831,198296.4379,199063.1083,199829.9351,200596.8223,201346.1217,202122.0168
Mixed,Male,tile,29,F_jaw.wav,None,728.9851327,2191,195246.9327,202113.0982,202879.9782,203646.4032,189830.1219,190597.0696,191363.9549,192113.0772,195996.3673,196763.3298,197529.8831,198296.4379,199063.1083,199829.9351,200596.8223,201346.1217,202889.0644
Mixed,Male,tile,29,F_park.wav,None,725.9633102,2191,195246.9327,202113.0982,202879.9782,203646.4032,204413.601,190597.0696,191363.9549,192113.0772,195996.3673,196763.3298,197529.8831,198296.4379,199063.1083,199829.9351,200596.8223,201346.1217,203656.0264
Mixed,Male,tile,29,F_jolt.wav,None,722.8032891,2191,195246.9327,202113.0982,202879.9782,203646.4032,204413.601,205180.0557,191363.9549,192113.0772,195996.3673,196763.3298,197529.8831,198296.4379,199063.1083,199829.9351,200596.8223,201346.1217,204423.2017
Mixed,Male,tile,29,M_tile.wav,None,720.3883664,2191,195246.9327,202113.0982,202879.9782,203646.4032,204413.601,205180.0557,205929.3174,192113.0772,195996.3673,196763.3298,197529.8831,198296.4379,199063.1083,199829.9351,200596.8223,201346.1217,205189.7682
Mixed,Male,tile,29,M_cad.wav,space,457.7476633,2191,195246.9327,202113.0982,202879.9782,203646.4032,204413.601,205180.0557,205929.3174,206696.2187,195996.3673,196763.3298,197529.8831,198296.4379,199063.1083,199829.9351,200596.8223,201346.1217,205938.2378
Mixed,Female,done,45,M_romp.wav,None,731.6739796,2191,209829.8269,202113.0982,202879.9782,203646.4032,204413.601,205180.0557,205929.3174,206696.2187,195996.3673,196763.3298,197529.8831,198296.4379,199063.1083,199829.9351,200596.8223,201346.1217,206705.6546
Mixed,Female,done,45,F_depth.wav,None,720.1676193,2191,209829.8269,202113.0982,202879.9782,203646.4032,204413.601,205180.0557,205929.3174,206696.2187,210579.161,196763.3298,197529.8831,198296.4379,199063.1083,199829.9351,200596.8223,201346.1217,209839.1404
Mixed,Female,done,45,F_done.wav,space,343.9399074,2191,209829.8269,202113.0982,202879.9782,203646.4032,204413.601,205180.0557,205929.3174,206696.2187,210579.161,211346.0024,197529.8831,198296.4379,199063.1083,199829.9351,200596.8223,201346.1217,210587.9528
Mixed,Female,done,45,M_bluff.wav,space,512.823113,2191,209829.8269,202113.0982,202879.9782,203646.4032,204413.601,205180.0557,205929.3174,206696.2187,210579.161,211346.0024,212112.7723,198296.4379,199063.1083,199829.9351,200596.8223,201346.1217,211354.9822
Mixed,Female,done,45,M_tile.wav,None,727.5060659,2191,209829.8269,202113.0982,202879.9782,203646.4032,204413.601,205180.0557,205929.3174,206696.2187,210579.161,211346.0024,212112.7723,212879.4626,199063.1083,199829.9351,200596.8223,201346.1217,212121.942
Mixed,Female,done,45,F_done.wav,None,724.4626017,2191,209829.8269,202113.0982,202879.9782,203646.4032,204413.601,205180.0557,205929.3174,206696.2187,210579.161,211346.0024,212112.7723,212879.4626,213646.3744,199829.9351,200596.8223,201346.1217,212889.0861
Mixed,Female,done,45,M_ball.wav,space,403.816759,2191,209829.8269,202113.0982,202879.9782,203646.4032,204413.601,205180.0557,205929.3174,206696.2187,210579.161,211346.0024,212112.7723,212879.4626,213646.3744,214395.7038,200596.8223,201346.1217,213655.9401
Mixed,Female,done,45,F_done.wav,None,735.9269147,2191,209829.8269,202113.0982,202879.9782,203646.4032,204413.601,205180.0557,205929.3174,206696.2187,210579.161,211346.0024,212112.7723,212879.4626,213646.3744,214395.7038,215162.3736,201346.1217,214404.6976
Mixed,Female,done,45,M_knife.wav,space,496.4983466,2191,209829.8269,202113.0982,202879.9782,203646.4032,204413.601,205180.0557,205929.3174,206696.2187,210579.161,211346.0024,212112.7723,212879.4626,213646.3744,214395.7038,215162.3736,215929.3699,215171.1949
Mixed,Female,done,45,F_done.wav,None,728.6583406,2191,209829.8269,216695.9161,202879.9782,203646.4032,204413.601,205180.0557,205929.3174,206696.2187,210579.161,211346.0024,212112.7723,212879.4626,213646.3744,214395.7038,215162.3736,215929.3699,215938.9075
Mixed,Female,done,45,M_lash.wav,space,362.7670916,2191,209829.8269,216695.9161,217462.7902,203646.4032,204413.601,205180.0557,205929.3174,206696.2187,210579.161,211346.0024,212112.7723,212879.4626,213646.3744,214395.7038,215162.3736,215929.3699,216704.9067
Mixed,Female,done,45,M_park.wav,None,722.5287466,2191,209829.8269,216695.9161,217462.7902,218229.183,204413.601,205180.0557,205929.3174,206696.2187,210579.161,211346.0024,212112.7723,212879.4626,213646.3744,214395.7038,215162.3736,215929.3699,217472.0962
Mixed,Female,done,45,F_park.wav,None,723.2151028,2191,209829.8269,216695.9161,217462.7902,218229.183,218996.2247,205180.0557,205929.3174,206696.2187,210579.161,211346.0024,212112.7723,212879.4626,213646.3744,214395.7038,215162.3736,215929.3699,218237.7844
Mixed,Female,done,45,M_depth.wav,None,719.3987148,2191,209829.8269,216695.9161,217462.7902,218229.183,218996.2247,219745.7733,205929.3174,206696.2187,210579.161,211346.0024,212112.7723,212879.4626,213646.3744,214395.7038,215162.3736,215929.3699,219005.6754
Mixed,Female,done,45,F_park.wav,None,734.5835734,2191,209829.8269,216695.9161,217462.7902,218229.183,218996.2247,219745.7733,220512.4571,206696.2187,210579.161,211346.0024,212112.7723,212879.4626,213646.3744,214395.7038,215162.3736,215929.3699,219754.7983
Mixed,Female,done,45,F_park.wav,None,731.4628167,2191,209829.8269,216695.9161,217462.7902,218229.183,218996.2247,219745.7733,220512.4571,221279.2131,210579.161,211346.0024,212112.7723,212879.4626,213646.3744,214395.7038,215162.3736,215929.3699,220521.9155
Mixed,Female,done,44,M_cad.wav,None,729.1372441,2191,224413.0455,216695.9161,217462.7902,218229.183,218996.2247,219745.7733,220512.4571,221279.2131,210579.161,211346.0024,212112.7723,212879.4626,213646.3744,214395.7038,215162.3736,215929.3699,221288.4248
Mixed,Female,done,44,M_greet.wav,None,720.3144749,2191,224413.0455,216695.9161,217462.7902,218229.183,218996.2247,219745.7733,220512.4571,221279.2131,225162.2747,211346.0024,212112.7723,212879.4626,213646.3744,214395.7038,215162.3736,215929.3699,224422.4554
Mixed,Female,done,44,F_done.wav,None,735.2968275,2191,224413.0455,216695.9161,217462.7902,218229.183,218996.2247,219745.7733,220512.4571,221279.2131,225162.2747,225929.1087,212112.7723,212879.4626,213646.3744,214395.7038,215162.3736,215929.3699,225171.4369
Mixed,Female,done,44,M_bluff.wav,space,376.7449525,2191,224413.0455,216695.9161,217462.7902,218229.183,218996.2247,219745.7733,220512.4571,221279.2131,225162.2747,225929.1087,226695.6409,212879.4626,213646.3744,214395.7038,215162.3736,215929.3699,225938.6552
Mixed,Female,done,44,F_bluff.wav,None,729.1288965,2191,224413.0455,216695.9161,217462.7902,218229.183,218996.2247,219745.7733,220512.4571,221279.2131,225162.2747,225929.1087,226695.6409,227462.379,213646.3744,214395.7038,215162.3736,215929.3699,226704.6025
Mixed,Female,done,44,F_gnash.wav,None,726.2811364,2191,224413.0455,216695.9161,217462.7902,218229.183,218996.2247,219745.7733,220512.4571,221279.2131,225162.2747,225929.1087,226695.6409,227462.379,228229.4053,214395.7038,215162.3736,215929.3699,227471.5434
Mixed,Female,done,44,M_cave.wav,None,722.9479804,2191,224413.0455,216695.9161,217462.7902,218229.183,218996.2247,219745.7733,220512.4571,221279.2131,225162.2747,225929.1087,226695.6409,227462.379,228229.4053,228995.91,215162.3736,215929.3699,228238.9231
Mixed,Female,done,44,F_done.wav,None,720.7599881,2191,224413.0455,216695.9161,217462.7902,218229.183,218996.2247,219745.7733,220512.4571,221279.2131,225162.2747,225929.1087,226695.6409,227462.379,228229.4053,228995.91,229745.4756,215929.3699,229005.2024
Mixed,Female,done,44,M_reek.wav,space,352.1638153,2191,224413.0455,216695.9161,217462.7902,218229.183,218996.2247,219745.7733,220512.4571,221279.2131,225162.2747,225929.1087,226695.6409,227462.379,228229.4053,228995.91,229745.4756,230512.4496,229755.1288
Mixed,Female,done,44,M_knife.wav,None,732.0100468,2191,224413.0455,231278.8916,217462.7902,218229.183,218996.2247,219745.7733,220512.4571,221279.2131,225162.2747,225929.1087,226695.6409,227462.379,228229.4053,228995.91,229745.4756,230512.4496,230521.4409
Mixed,Female,done,44,F_done.wav,None,729.7129176,2191,224413.0455,231278.8916,232045.4856,218229.183,218996.2247,219745.7733,220512.4571,221279.2131,225162.2747,225929.1087,226695.6409,227462.379,228229.4053,228995.91,229745.4756,230512.4496,231287.8816
Mixed,Female,done,44,M_reek.wav,space,372.7186384,2191,224413.0455,231278.8916,232045.4856,232812.7824,218996.2247,219745.7733,220512.4571,221279.2131,225162.2747,225929.1087,226695.6409,227462.379,228229.4053,228995.91,229745.4756,230512.4496,232054.4924
Mixed,Female,done,44,F_cling.wav,None,722.1982444,2191,224413.0455,231278.8916,232045.4856,232812.7824,233579.0939,219745.7733,220512.4571,221279.2131,225162.2747,225929.1087,226695.6409,227462.379,228229.4053,228995.91,229745.4756,230512.4496,232822.5145
Mixed,Female,done,44,F_cad.wav,None,720.1008387,2191,224413.0455,231278.8916,232045.4856,232812.7824,233579.0939,234328.6397,220512.4571,221279.2131,225162.2747,225929.1087,226695.6409,227462.379,228229.4053,228995.91,229745.4756,230512.4496,233588.7687
Mixed,Female,done,44,F_done.wav,None,735.093703,2191,224413.0455,231278.8916,232045.4856,232812.7824,233579.0939,234328.6397,235095.4261,221279.2131,225162.2747,225929.1087,226695.6409,227462.379,228229.4053,228995.91,229745.4756,230512.4496,234337.7129
Mixed,Female,done,44,M_cling.wav,space,490.7681996,2191,224413.0455,231278.8916,232045.4856,232812.7824,233579.0939,234328.6397,235095.4261,235862.0804,225162.2747,225929.1087,226695.6409,227462.379,228229.4053,228995.91,229745.4756,230512.4496,235104.3602
Mixed,Male,cave,14,F_lash.wav,None,729.040474,2191,238995.6265,231278.8916,232045.4856,232812.7824,233579.0939,234328.6397,235095.4261,235862.0804,225162.2747,225929.1087,226695.6409,227462.379,228229.4053,228995.91,229745.4756,230512.4496,235871.0238
Mixed,Male,cave,14,F_knife.wav,None,720.3611594,2191,238995.6265,231278.8916,232045.4856,232812.7824,233579.0939,234328.6397,235095.4261,235862.0804,239745.2218,225929.1087,226695.6409,227462.379,228229.4053,228995.91,229745.4756,230512.4496,239004.9863
Mixed,Male,cave,14,M_cave.wav,None,734.7452691,2191,238995.6265,231278.8916,232045.4856,232812.7824,233579.0939,234328.6397,235095.4261,235862.0804,239745.2218,240512.0505,226695.6409,227462.379,228229.4053,228995.91,229745.4756,230512.4496,239754.7606
Mixed,Male,cave,14,F_done.wav,space,529.8181588,2191,238995.6265,231278.8916,232045.4856,232812.7824,233579.0939,234328.6397,235095.4261,235862.0804,239745.2218,240512.0505,241278.5592,227462.379,228229.4053,228995.91,229745.4756,230512.4496,240521.1472
Mixed,Male,cave,14,F_cling.wav,None,729.2108263,2191,238995.6265,231278.8916,232045.4856,232812.7824,233579.0939,234328.6397,235095.4261,235862.0804,239745.2218,240512.0505,241278.5592,242045.1984,228229.4053,228995.91,229745.4756,230512.4496,241287.6411
Mixed,Male,cave,14,F_cling.wav,None,726.5123952,2191,238995.6265,231278.8916,232045.4856,232812.7824,233579.0939,234328.6397,235095.4261,235862.0804,239745.2218,240512.0505,241278.5592,242045.1984,242812.4417,228995.91,229745.4756,230512.4496,242054.5097
Mixed,Male,cave,14,M_cave.wav,None,722.8264768,2191,238995.6265,231278.8916,232045.4856,232812.7824,233579.0939,234328.6397,235095.4261,235862.0804,239745.2218,240512.0505,241278.5592,242045.1984,242812.4417,243578.8228,229745.4756,230512.4496,242822.2813
Mixed,Male,cave,14,M_priest.wav,space,430.5073596,2191,238995.6265,231278.8916,232045.4856,232812.7824,233579.0939,234328.6397,235095.4261,235862.0804,239745.2218,240512.0505,241278.5592,242045.1984,242812.4417,243578.8228,244328.1169,230512.4496,243588.3232
Mixed,Male,cave,14,M_jaw.wav,None,735.5982676,2191,238995.6265,231278.8916,232045.4856,232812.7824,233579.0939,234328.6397,235095.4261,235862.0804,239745.2218,240512.0505,241278.5592,242045.1984,242812.4417,243578.8228,244328.1169,245095.0984,244336.9845
Mixed,Male,cave,14,F_cad.wav,None,732.5659335,2191,238995.6265,245861.7725,232045.4856,232812.7824,233579.0939,234328.6397,235095.4261,235862.0804,239745.2218,240512.0505,241278.5592,242045.1984,242812.4417,243578.8228,244328.1169,245095.0984,245104.2195
Mixed,Male,cave,14,M_cave.wav,None,729.8300928,2191,238995.6265,245861.7725,246628.4077,232812.7824,233579.0939,234328.6397,235095.4261,235862.0804,239745.2218,240512.0505,241278.5592,242045.1984,242812.4417,243578.8228,244328.1169,245095.0984,245871.0745
Mixed,Male,cave,14,F_cling.wav,space,570.7518877,2191,238995.6265,245861.7725,246628.4077,247395.2089,233579.0939,234328.6397,235095.4261,235862.0804,239745.2218,240512.0505,241278.5592,242045.1984,242812.4417,243578.8228,244328.1169,245095.0984,246632.0228
Mixed,Male,cave,14,M_done.wav,None,723.2389089,2191,238995.6265,245861.7725,246628.4077,247395.2089,248161.8855,234328.6397,235095.4261,235862.0804,239745.2218,240512.0505,241278.5592,242045.1984,242812.4417,243578.8228,244328.1169,245095.0984,247405.0686
Mixed,Male,cave,14,M_cave.wav,None,720.8443913,2191,238995.6265,245861.7725,246628.4077,247395.2089,248161.8855,248911.5713,235095.4261,235862.0804,239745.2218,240512.0505,241278.5592,242045.1984,242812.4417,243578.8228,244328.1169,245095.0984,248171.7461
Mixed,Male,cave,14,F_jaw.wav,space,633.9213942,2191,238995.6265,245861.7725,246628.4077,247395.2089,248161.8855,248911.5713,249678.0631,235862.0804,239745.2218,240512.0505,241278.5592,242045.1984,242812.4417,243578.8228,244328.1169,245095.0984,248920.7985
Mixed,Male,cave,14,M_jolt.wav,None,731.9364644,2191,238995.6265,245861.7725,246628.4077,247395.2089,248161.8855,248911.5713,249678.0631,250444.9579,239745.2218,240512.0505,241278.5592,242045.1984,242812.4417,243578.8228,244328.1169,245095.0984,249687.7905
Mixed,Male,done,42,F_park.wav,None,729.8777049,2191,253578.4357,245861.7725,246628.4077,247395.2089,248161.8855,248911.5713,249678.0631,250444.9579,239745.2218,240512.0505,241278.5592,242045.1984,242812.4417,243578.8228,244328.1169,245095.0984,250454.0522
Mixed,Male,done,42,M_done.wav,None,712.5277326,2191,253578.4357,245861.7725,246628.4077,247395.2089,248161.8855,248911.5713,249678.0631,250444.9579,254328.0001,240512.0505,241278.5592,242045.1984,242812.4417,243578.8228,244328.1169,245095.0984,253595.6459
Mixed,Male,done,42,F_greet.wav,space,457.449624,2191,253578.4357,245861.7725,246628.4077,247395.2089,248161.8855,248911.5713,249678.0631,250444.9579,254328.0001,255094.7073,241278.5592,242045.1984,242812.4417,243578.8228,244328.1169,245095.0984,254337.0949
Mixed,Male,done,42,M_greet.wav,None,732.0573496,2191,253578.4357,245861.7725,246628.4077,247395.2089,248161.8855,248911.5713,249678.0631,250444.9579,254328.0001,255094.7073,255861.4754,242045.1984,242812.4417,243578.8228,244328.1169,245095.0984,255103.4957
Mixed,Male,done,42,M_done.wav,None,728.9842052,2191,253578.4357,245861.7725,246628.4077,247395.2089,248161.8855,248911.5713,249678.0631,250444.9579,254328.0001,255094.7073,255861.4754,256628.0419,242812.4417,243578.8228,244328.1169,245095.0984,255870.735
Mixed,Male,done,42,F_cad.wav,space,413.4170895,2191,253578.4357,245861.7725,246628.4077,247395.2089,248161.8855,248911.5713,249678.0631,250444.9579,254328.0001,255094.7073,255861.4754,256628.0419,257395.1306,243578.8228,244328.1169,245095.0984,256637.0947
Mixed,Male,done,42,F_bluff.wav,None,722.7723721,2191,253578.4357,245861.7725,246628.4077,247395.2089,248161.8855,248911.5713,249678.0631,250444.9579,254328.0001,255094.7073,255861.4754,256628.0419,257395.1306,258161.7207,244328.1169,245095.0984,257404.5492
Mixed,Male,done,42,M_park.wav,None,720.2844854,2191,253578.4357,245861.7725,246628.4077,247395.2089,248161.8855,248911.5713,249678.0631,250444.9579,254328.0001,255094.7073,255861.4754,256628.0419,257395.1306,258161.7207,258911.1926,245095.0984,258171.2802
Mixed,Male,done,42,M_done.wav,None,735.0535111,2191,253578.4357,245861.7725,246628.4077,247395.2089,248161.8855,248911.5713,249678.0631,250444.9579,254328.0001,255094.7073,255861.4754,256628.0419,257395.1306,258161.7207,258911.1926,259677.9944,258920.7589
Mixed,Male,done,42,F_cave.wav,space,443.3505685,2191,253578.4357,260444.6689,246628.4077,247395.2089,248161.8855,248911.5713,249678.0631,250444.9579,254328.0001,255094.7073,255861.4754,256628.0419,257395.1306,258161.7207,258911.1926,259677.9944,259687.0658
Mixed,Male,done,42,M_done.wav,None,729.5753373,2191,253578.4357,260444.6689,261211.3226,247395.2089,248161.8855,248911.5713,249678.0631,250444.9579,254328.0001,255094.7073,255861.4754,256628.0419,257395.1306,258161.7207,258911.1926,259677.9944,260453.5912
Mixed,Male,done,42,F_knife.wav,space,517.9720214,2191,253578.4357,260444.6689,261211.3226,261978.2815,248161.8855,248911.5713,249678.0631,250444.9579,254328.0001,255094.7073,255861.4754,256628.0419,257395.1306,258161.7207,258911.1926,259677.9944,261220.3822
Mixed,Male,done,42,F_cave.wav,None,722.4329041,2191,253578.4357,260444.6689,261211.3226,261978.2815,262744.7144,248911.5713,249678.0631,250444.9579,254328.0001,255094.7073,255861.4754,256628.0419,257395.1306,258161.7207,258911.1926,259677.9944,261987.8524
Mixed,Male,done,42,M_tile.wav,None,720.4093898,2191,253578.4357,260444.6689,261211.3226,261978.2815,262744.7144,263494.2454,249678.0631,250444.9579,254328.0001,255094.7073,255861.4754,256628.0419,257395.1306,258161.7207,258911.1926,259677.9944,262754.6728
Mixed,Male,done,42,M_tile.wav,None,735.8904328,2191,253578.4357,260444.6689,261211.3226,261978.2815,262744.7144,263494.2454,264260.9393,250444.9579,254328.0001,255094.7073,255861.4754,256628.0419,257395.1306,258161.7207,258911.1926,259677.9944,263503.5718
Mixed,Male,done,42,F_depth.wav,None,734.3142868,2191,253578.4357,260444.6689,261211.3226,261978.2815,262744.7144,263494.2454,264260.9393,265027.5696,254328.0001,255094.7073,255861.4754,256628.0419,257395.1306,258161.7207,258911.1926,259677.9944,264269.6956
Mixed,Male,done,37,M_lash.wav,None,732.0372537,2191,268161.7346,260444.6689,261211.3226,261978.2815,262744.7144,263494.2454,264260.9393,265027.5696,254328.0001,255094.7073,255861.4754,256628.0419,257395.1306,258161.7207,258911.1926,259677.9944,265036.3351
Mixed,Male,done,37,M_done.wav,None,719.3801646,2191,268161.7346,260444.6689,261211.3226,261978.2815,262744.7144,263494.2454,264260.9393,265027.5696,268910.9493,255094.7073,255861.4754,256628.0419,257395.1306,258161.7207,258911.1926,259677.9944,268171.0792
Mixed,Male,done,37,F_park.wav,space,521.5092293,2191,268161.7346,260444.6689,261211.3226,261978.2815,262744.7144,263494.2454,264260.9393,265027.5696,268910.9493,269677.4407,255861.4754,256628.0419,257395.1306,258161.7207,258911.1926,259677.9944,268920.6309
Mixed,Male,done,37,F_reek.wav,None,731.6226574,2191,268161.7346,260444.6689,261211.3226,261978.2815,262744.7144,263494.2454,264260.9393,265027.5696,268910.9493,269677.4407,270444.0889,256628.0419,257395.1306,258161.7207,258911.1926,259677.9944,269686.3049
Mixed,Male,done,37,F_cad.wav,None,729.266786,2191,268161.7346,260444.6689,261211.3226,261978.2815,262744.7144,263494.2454,264260.9393,265027.5696,268910.9493,269677.4407,270444.0889,271210.9482,257395.1306,258161.7207,258911.1926,259677.9944,270453.1042
Mixed,Male,done,37,M_jolt.wav,None,726.502811,2191,268161.7346,260444.6689,261211.3226,261978.2815,262744.7144,263494.2454,264260.9393,265027.5696,268910.9493,269677.4407,270444.0889,271210.9482,271978.1835,258161.7207,258911.1926,259677.9944,271220.1549
Mixed,Male,done,37,F_greet.wav,None,723.0082684,2191,268161.7346,260444.6689,261211.3226,261978.2815,262744.7144,263494.2454,264260.9393,265027.5696,268910.9493,269677.4407,270444.0889,271210.9482,271978.1835,272744.5373,258911.1926,259677.9944,271987.9217
Mixed,Male,done,37,F_reek.wav,None,721.1050212,2191,268161.7346,260444.6689,261211.3226,261978.2815,262744.7144,263494.2454,264260.9393,265027.5696,268910.9493,269677.4407,270444.0889,271210.9482,271978.1835,272744.5373,273494.2974,259677.9944,272754.1855
Mixed,Male,done,37,M_done.wav,None,736.3158501,2191,268161.7346,260444.6689,261211.3226,261978.2815,262744.7144,263494.2454,264260.9393,265027.5696,268910.9493,269677.4407,270444.0889,271210.9482,271978.1835,272744.5373,273494.2974,274260.8033,273503.3177
Mixed,Male,done,37,F_reek.wav,space,459.9350373,2191,268161.7346,275027.5479,261211.3226,261978.2815,262744.7144,263494.2454,264260.9393,265027.5696,268910.9493,269677.4407,270444.0889,271210.9482,271978.1835,272744.5373,273494.2974,274260.8033,274269.9572
Mixed,Male,done,37,M_depth.wav,None,730.5878672,2191,268161.7346,275027.5479,275794.1064,261978.2815,262744.7144,263494.2454,264260.9393,265027.5696,268910.9493,269677.4407,270444.0889,271210.9482,271978.1835,272744.5373,273494.2974,274260.8033,275036.678
Mixed,Male,done,37,F_greet.wav,None,727.8303846,2191,268161.7346,275027.5479,275794.1064,276560.8303,262744.7144,263494.2454,264260.9393,265027.5696,268910.9493,269677.4407,270444.0889,271210.9482,271978.1835,272744.5373,273494.2974,274260.8033,275803.7108
Mixed,Male,done,37,M_done.wav,None,726.0279267,2191,268161.7346,275027.5479,275794.1064,276560.8303,277327.5576,263494.2454,264260.9393,265027.5696,268910.9493,269677.4407,270444.0889,271210.9482,271978.1835,272744.5373,273494.2974,274260.8033,276569.9419
Mixed,Male,done,37,M_priest.wav,space,528.782132,2191,268161.7346,275027.5479,275794.1064,276560.8303,277327.5576,278094.4426,264260.9393,265027.5696,268910.9493,269677.4407,270444.0889,271210.9482,271978.1835,272744.5373,273494.2974,274260.8033,277337.0383
Mixed,Male,done,37,M_done.wav,None,719.8018718,2191,268161.7346,275027.5479,275794.1064,276560.8303,277327.5576,278094.4426,278843.9544,265027.5696,268910.9493,269677.4407,270444.0889,271210.9482,271978.1835,272744.5373,273494.2974,274260.8033,278103.9987
Mixed,Male,done,37,F_lash.wav,space,580.7702154,2191,268161.7346,275027.5479,275794.1064,276560.8303,277327.5576,278094.4426,278843.9544,279610.7272,268910.9493,269677.4407,270444.0889,271210.9482,271978.1835,272744.5373,273494.2974,274260.8033,278853.0406
Mixed,Male,tile,27,F_priest.wav,None,730.8992009,2191,282744.3917,275027.5479,275794.1064,276560.8303,277327.5576,278094.4426,278843.9544,279610.7272,268910.9493,269677.4407,270444.0889,271210.9482,271978.1835,272744.5373,273494.2974,274260.8033,279620.4388
Mixed,Male,tile,27,M_bluff.wav,None,719.300399,2191,282744.3917,275027.5479,275794.1064,276560.8303,277327.5576,278094.4426,278843.9544,279610.7272,283493.7665,269677.4407,270444.0889,271210.9482,271978.1835,272744.5373,273494.2974,274260.8033,282753.8093
Mixed,Male,tile,27,M_gnash.wav,None,734.6580833,2191,282744.3917,275027.5479,275794.1064,276560.8303,277327.5576,278094.4426,278843.9544,279610.7272,283493.7665,284260.5745,270444.0889,271210.9482,271978.1835,272744.5373,273494.2974,274260.8033,283502.8329
Mixed,Male,tile,27,M_tile.wav,None,732.4237155,2191,282744.3917,275027.5479,275794.1064,276560.8303,277327.5576,278094.4426,278843.9544,279610.7272,283493.7665,284260.5745,285027.2542,271210.9482,271978.1835,272744.5373,273494.2974,274260.8033,284269.7136
Mixed,Male,tile,27,M_knife.wav,space,453.177211,2191,282744.3917,275027.5479,275794.1064,276560.8303,277327.5576,278094.4426,278843.9544,279610.7272,283493.7665,284260.5745,285027.2542,285793.8733,271978.1835,272744.5373,273494.2974,274260.8033,285036.4254
Mixed,Male,tile,27,F_jolt.wav,None,726.6397731,2191,282744.3917,275027.5479,275794.1064,276560.8303,277327.5576,278094.4426,278843.9544,279610.7272,283493.7665,284260.5745,285027.2542,285793.8733,286561.0668,272744.5373,273494.2974,274260.8033,285803.4573
Mixed,Male,tile,27,F_cad.wav,None,723.8182925,2191,282744.3917,275027.5479,275794.1064,276560.8303,277327.5576,278094.4426,278843.9544,279610.7272,283493.7665,284260.5745,285027.2542,285793.8733,286561.0668,287327.5208,273494.2974,274260.8033,286570.5834
Mixed,Male,tile,27,M_tile.wav,None,721.7564413,2191,282744.3917,275027.5479,275794.1064,276560.8303,277327.5576,278094.4426,278843.9544,279610.7272,283493.7665,284260.5745,285027.2542,285793.8733,286561.0668,287327.5208,288094.2095,274260.8033,287337.2588
Mixed,Male,tile,27,F_cad.wav,space,457.74519,2191,282744.3917,275027.5479,275794.1064,276560.8303,277327.5576,278094.4426,278843.9544,279610.7272,283493.7665,284260.5745,285027.2542,285793.8733,286561.0668,287327.5208,288094.2095,288843.6063,288103.7576
Mixed,Male,tile,27,M_tile.wav,None,734.5109187,2191,282744.3917,289610.4734,275794.1064,276560.8303,277327.5576,278094.4426,278843.9544,279610.7272,283493.7665,284260.5745,285027.2542,285793.8733,286561.0668,287327.5208,288094.2095,288843.6063,288852.6359
Mixed,Male,tile,27,F_dime.wav,space,317.8673367,2191,282744.3917,289610.4734,290377.0931,276560.8303,277327.5576,278094.4426,278843.9544,279610.7272,283493.7665,284260.5745,285027.2542,285793.8733,286561.0668,287327.5208,288094.2095,288843.6063,289619.6412
Mixed,Male,tile,27,M_tile.wav,None,728.5476578,2191,282744.3917,289610.4734,290377.0931,291143.7122,277327.5576,278094.4426,278843.9544,279610.7272,283493.7665,284260.5745,285027.2542,285793.8733,286561.0668,287327.5208,288094.2095,288843.6063,290386.1845
Mixed,Male,tile,27,F_reek.wav,space,464.053793,2191,282744.3917,289610.4734,290377.0931,291143.7122,291910.8909,278094.4426,278843.9544,279610.7272,283493.7665,284260.5745,285027.2542,285793.8733,286561.0668,287327.5208,288094.2095,288843.6063,291153.3122
Mixed,Male,tile,27,F_park.wav,None,721.8111643,2191,282744.3917,289610.4734,290377.0931,291143.7122,291910.8909,292677.445,278843.9544,279610.7272,283493.7665,284260.5745,285027.2542,285793.8733,286561.0668,287327.5208,288094.2095,288843.6063,291920.5657
Mixed,Male,tile,27,F_cad.wav,None,720.0127254,2191,282744.3917,289610.4734,290377.0931,291143.7122,291910.8909,292677.445,293426.9841,279610.7272,283493.7665,284260.5745,285027.2542,285793.8733,286561.0668,287327.5208,288094.2095,288843.6063,292686.9433
Mixed,Male,tile,27,M_dime.wav,None,735.9807102,2191,282744.3917,289610.4734,290377.0931,291143.7122,291910.8909,292677.445,293426.9841,294193.5874,283493.7665,284260.5745,285027.2542,285793.8733,286561.0668,287327.5208,288094.2095,288843.6063,293436.086
Mixed,Female,done,47,F_lash.wav,space,438.7223015,2191,297327.327,289610.4734,290377.0931,291143.7122,291910.8909,292677.445,293426.9841,294193.5874,283493.7665,284260.5745,285027.2542,285793.8733,286561.0668,287327.5208,288094.2095,288843.6063,294202.6043
Mixed,Female,done,47,M_cad.wav,None,713.0984594,2191,297327.327,289610.4734,290377.0931,291143.7122,291910.8909,292677.445,293426.9841,294193.5874,298076.5674,284260.5745,285027.2542,285793.8733,286561.0668,287327.5208,288094.2095,288843.6063,297343.5262
Mixed,Female,done,47,F_done.wav,None,734.9360266,2191,297327.327,289610.4734,290377.0931,291143.7122,291910.8909,292677.445,293426.9841,294193.5874,298076.5674,298843.431,285027.2542,285793.8733,286561.0668,287327.5208,288094.2095,288843.6063,298085.9253
Mixed,Female,done,47,M_ball.wav,space,500.6548209,2191,297327.327,289610.4734,290377.0931,291143.7122,291910.8909,292677.445,293426.9841,294193.5874,298076.5674,298843.431,299610.1469,285793.8733,286561.0668,287327.5208,288094.2095,288843.6063,298852.5228
Mixed,Female,done,47,F_done.wav,None,729.1520841,2191,297327.327,289610.4734,290377.0931,291143.7122,291910.8909,292677.445,293426.9841,294193.5874,298076.5674,298843.431,299610.1469,300376.5734,286561.0668,287327.5208,288094.2095,288843.6063,299619.2303
Mixed,Female,done,47,M_depth.wav,space,487.7139142,2191,297327.327,289610.4734,290377.0931,291143.7122,291910.8909,292677.445,293426.9841,294193.5874,298076.5674,298843.431,299610.1469,300376.5734,301143.6575,287327.5208,288094.2095,288843.6063,300385.4592
Mixed,Female,done,47,F_greet.wav,None,722.6391201,2191,297327.327,289610.4734,290377.0931,291143.7122,291910.8909,292677.445,293426.9841,294193.5874,298076.5674,298843.431,299610.1469,300376.5734,301143.6575,301910.6271,288094.2095,288843.6063,301153.4467
Mixed,Female,done,47,M_gnash.wav,None,720.4267033,2191,297327.327,289610.4734,290377.0931,291143.7122,291910.8909,292677.445,293426.9841,294193.5874,298076.5674,298843.431,299610.1469,300376.5734,301143.6575,301910.6271,302659.9006,288843.6063,301920.0281
Mixed,Female,done,47,M_tile.wav,None,736.1117981,2191,297327.327,289610.4734,290377.0931,291143.7122,291910.8909,292677.445,293426.9841,294193.5874,298076.5674,298843.431,299610.1469,300376.5734,301143.6575,301910.6271,302659.9006,303426.5957,302668.9642
Mixed,Female,done,47,F_done.wav,None,733.8854688,2191,297327.327,304193.0358,290377.0931,291143.7122,291910.8909,292677.445,293426.9841,294193.5874,298076.5674,298843.431,299610.1469,300376.5734,301143.6575,301910.6271,302659.9006,303426.5957,303435.6683
Mixed,Female,done,47,M_tile.wav,space,391.1330814,2191,297327.327,304193.0358,304959.7161,291143.7122,291910.8909,292677.445,293426.9841,294193.5874,298076.5674,298843.431,299610.1469,300376.5734,301143.6575,301910.6271,302659.9006,303426.5957,304201.8904
Mixed,Female,done,47,F_done.wav,None,728.5108666,2191,297327.327,304193.0358,304959.7161,305726.6302,291910.8909,292677.445,293426.9841,294193.5874,298076.5674,298843.431,299610.1469,300376.5734,301143.6575,301910.6271,302659.9006,303426.5957,304968.8549
Mixed,Female,done,47,M_bluff.wav,space,401.2413772,2191,297327.327,304193.0358,304959.7161,305726.6302,306493.8865,292677.445,293426.9841,294193.5874,298076.5674,298843.431,299610.1469,300376.5734,301143.6575,301910.6271,302659.9006,303426.5957,305735.7563
Mixed,Female,done,47,M_dime.wav,None,721.9441071,2191,297327.327,304193.0358,304959.7161,305726.6302,306493.8865,307260.56,293426.9841,294193.5874,298076.5674,298843.431,299610.1469,300376.5734,301143.6575,301910.6271,302659.9006,303426.5957,306503.1582
Mixed,Female,done,47,F_knife.wav,None,719.5279477,2191,297327.327,304193.0358,304959.7161,305726.6302,306493.8865,307260.56,308009.6532,294193.5874,298076.5674,298843.431,299610.1469,300376.5734,301143.6575,301910.6271,302659.9006,303426.5957,307269.943
Mixed,Female,done,47,F_reek.wav,None,735.4409004,2191,297327.327,304193.0358,304959.7161,305726.6302,306493.8865,307260.56,308009.6532,308776.2092,298076.5674,298843.431,299610.1469,300376.5734,301143.6575,301910.6271,302659.9006,303426.5957,308019.2742
Mixed,Male,cave,13,F_depth.wav,None,734.20515,2191,311910.1986,304193.0358,304959.7161,305726.6302,306493.8865,307260.56,308009.6532,308776.2092,298076.5674,298843.431,299610.1469,300376.5734,301143.6575,301910.6271,302659.9006,303426.5957,308785.053
Mixed,Male,cave,13,F_greet.wav,None,719.5369137,2191,311910.1986,304193.0358,304959.7161,305726.6302,306493.8865,307260.56,308009.6532,308776.2092,312659.8669,298843.431,299610.1469,300376.5734,301143.6575,301910.6271,302659.9006,303426.5957,311919.5949
Mixed,Male,cave,13,F_cling.wav,None,734.6259297,2191,311910.1986,304193.0358,304959.7161,305726.6302,306493.8865,307260.56,308009.6532,308776.2092,312659.8669,313425.8593,299610.1469,300376.5734,301143.6575,301910.6271,302659.9006,303426.5957,312668.9376
Mixed,Male,cave,13,M_ball.wav,None,736.5702965,2191,311910.1986,304193.0358,304959.7161,305726.6302,306493.8865,307260.56,308009.6532,308776.2092,312659.8669,313425.8593,314192.7316,300376.5734,301143.6575,301910.6271,302659.9006,303426.5957,313434.4672
Mixed,Male,cave,13,M_ball.wav,None,733.7457242,2191,311910.1986,304193.0358,304959.7161,305726.6302,306493.8865,307260.56,308009.6532,308776.2092,312659.8669,313425.8593,314192.7316,314959.7013,301143.6575,301910.6271,302659.9006,303426.5957,314201.7662
Mixed,Male,cave,13,M_cave.wav,None,731.3032853,2191,311910.1986,304193.0358,304959.7161,305726.6302,306493.8865,307260.56,308009.6532,308776.2092,312659.8669,313425.8593,314192.7316,314959.7013,315726.6732,301910.6271,302659.9006,303426.5957,314968.8642
Mixed,Male,cave,13,M_lash.wav,space,600.3956752,2191,311910.1986,304193.0358,304959.7161,305726.6302,306493.8865,307260.56,308009.6532,308776.2092,312659.8669,313425.8593,314192.7316,314959.7013,315726.6732,316492.9902,302659.9006,303426.5957,315736.2444
Mixed,Male,cave,13,M_cave.wav,None,725.570665,2191,311910.1986,304193.0358,304959.7161,305726.6302,306493.8865,307260.56,308009.6532,308776.2092,312659.8669,313425.8593,314192.7316,314959.7013,315726.6732,316492.9902,317260.0907,303426.5957,316501.957
Mixed,Male,cave,13,F_lash.wav,space,571.0122085,2191,311910.1986,304193.0358,304959.7161,305726.6302,306493.8865,307260.56,308009.6532,308776.2092,312659.8669,313425.8593,314192.7316,314959.7013,315726.6732,316492.9902,317260.0907,318026.6773,317269.6477
Mixed,Male,cave,13,M_cave.wav,None,719.3940772,2191,311910.1986,318775.8398,304959.7161,305726.6302,306493.8865,307260.56,308009.6532,308776.2092,312659.8669,313425.8593,314192.7316,314959.7013,315726.6732,316492.9902,317260.0907,318026.6773,318036.5296
Mixed,Male,cave,13,F_bluff.wav,space,408.0678392,2191,311910.1986,318775.8398,319542.8126,305726.6302,306493.8865,307260.56,308009.6532,308776.2092,312659.8669,313425.8593,314192.7316,314959.7013,315726.6732,316492.9902,317260.0907,318026.6773,318784.5098
Mixed,Male,cave,13,F_gnash.wav,None,731.902765,2191,311910.1986,318775.8398,319542.8126,320309.5581,306493.8865,307260.56,308009.6532,308776.2092,312659.8669,313425.8593,314192.7316,314959.7013,315726.6732,316492.9902,317260.0907,318026.6773,319551.8394
Mixed,Male,cave,13,M_cave.wav,None,730.1813093,2191,311910.1986,318775.8398,319542.8126,320309.5581,321076.1735,307260.56,308009.6532,308776.2092,312659.8669,313425.8593,314192.7316,314959.7013,315726.6732,316492.9902,317260.0907,318026.6773,320318.6835
Mixed,Male,cave,13,M_gnash.wav,space,659.1919794,2191,311910.1986,318775.8398,319542.8126,320309.5581,321076.1735,321843.55,308009.6532,308776.2092,312659.8669,313425.8593,314192.7316,314959.7013,315726.6732,316492.9902,317260.0907,318026.6773,321085.3379
Mixed,Male,cave,13,F_greet.wav,None,723.2757,2191,311910.1986,318775.8398,319542.8126,320309.5581,321076.1735,321843.55,322609.864,308776.2092,312659.8669,313425.8593,314192.7316,314959.7013,315726.6732,316492.9902,317260.0907,318026.6773,321853.2666
Mixed,Male,cave,13,F_cling.wav,None,721.5669204,2191,311910.1986,318775.8398,319542.8126,320309.5581,321076.1735,321843.55,322609.864,323376.279,312659.8669,313425.8593,314192.7316,314959.7013,315726.6732,316492.9902,317260.0907,318026.6773,322619.5614
Mixed,Female,ball,7,M_cave.wav,None,720.4267033,2191,326493.001,318775.8398,319542.8126,320309.5581,321076.1735,321843.55,322609.864,323376.279,312659.8669,313425.8593,314192.7316,314959.7013,315726.6732,316492.9902,317260.0907,318026.6773,323385.3797
Mixed,Female,ball,7,F_jaw.wav,None,720.2430568,2191,326493.001,318775.8398,319542.8126,320309.5581,321076.1735,321843.55,322609.864,323376.279,327242.3227,313425.8593,314192.7316,314959.7013,315726.6732,316492.9902,317260.0907,318026.6773,326502.5411
Mixed,Female,ball,7,M_cling.wav,None,735.5562206,2191,326493.001,318775.8398,319542.8126,320309.5581,321076.1735,321843.55,322609.864,323376.279,327242.3227,328008.931,314192.7316,314959.7013,315726.6732,316492.9902,317260.0907,318026.6773,327251.923
Mixed,Female,ball,7,F_knife.wav,None,735.2918808,2191,326493.001,318775.8398,319542.8126,320309.5581,321076.1735,321843.55,322609.864,323376.279,327242.3227,328008.931,328775.9637,314959.7013,315726.6732,316492.9902,317260.0907,318026.6773,328017.7179
Mixed,Female,ball,7,F_ball.wav,None,732.7359767,2191,326493.001,318775.8398,319542.8126,320309.5581,321076.1735,321843.55,322609.864,323376.279,327242.3227,328008.931,328775.9637,329542.4496,315726.6732,316492.9902,317260.0907,318026.6773,328785.0641
Mixed,Female,ball,7,M_jolt.wav,space,440.7940462,2191,326493.001,318775.8398,319542.8126,320309.5581,321076.1735,321843.55,322609.864,323376.279,327242.3227,328008.931,328775.9637,329542.4496,330309.2696,316492.9902,317260.0907,318026.6773,329551.4956
Mixed,Female,ball,7,M_park.wav,None,727.2853189,2191,326493.001,318775.8398,319542.8126,320309.5581,321076.1735,321843.55,322609.864,323376.279,327242.3227,328008.931,328775.9637,329542.4496,330309.2696,331075.9367,317260.0907,318026.6773,330318.4272
Mixed,Female,ball,7,F_done.wav,None,725.0664096,2191,326493.001,318775.8398,319542.8126,320309.5581,321076.1735,321843.55,322609.864,323376.279,327242.3227,328008.931,328775.9637,329542.4496,330309.2696,331075.9367,331843.2532,318026.6773,331085.4761
Mixed,Female,ball,7,M_lash.wav,None,722.7828838,2191,326493.001,318775.8398,319542.8126,320309.5581,321076.1735,321843.55,322609.864,323376.279,327242.3227,328008.931,328775.9637,329542.4496,330309.2696,331075.9367,331843.2532,332609.7205,331852.4316
Mixed,Female,ball,7,M_gnash.wav,None,720.648687,2191,326493.001,333375.7065,319542.8126,320309.5581,321076.1735,321843.55,322609.864,323376.279,327242.3227,328008.931,328775.9637,329542.4496,330309.2696,331075.9367,331843.2532,332609.7205,332619.3283
Mixed,Female,ball,7,F_ball.wav,None,719.9351239,2191,326493.001,333375.7065,334125.6452,320309.5581,321076.1735,321843.55,322609.864,323376.279,327242.3227,328008.931,328775.9637,329542.4496,330309.2696,331075.9367,331843.2532,332609.7205,333384.92
Mixed,Female,ball,7,F_cad.wav,space,441.4111484,2191,326493.001,333375.7065,334125.6452,334892.3827,321076.1735,321843.55,322609.864,323376.279,327242.3227,328008.931,328775.9637,329542.4496,330309.2696,331075.9367,331843.2532,332609.7205,334134.7333
Mixed,Female,ball,7,F_ball.wav,None,731.1245854,2191,326493.001,333375.7065,334125.6452,334892.3827,335659.072,321843.55,322609.864,323376.279,327242.3227,328008.931,328775.9637,329542.4496,330309.2696,331075.9367,331843.2532,332609.7205,334901.9902
Mixed,Female,ball,7,M_cad.wav,space,603.9585441,2191,326493.001,333375.7065,334125.6452,334892.3827,335659.072,336425.706,322609.864,323376.279,327242.3227,328008.931,328775.9637,329542.4496,330309.2696,331075.9367,331843.2532,332609.7205,335668.1103
Mixed,Female,ball,7,F_ball.wav,None,726.0693554,2191,326493.001,333375.7065,334125.6452,334892.3827,335659.072,336425.706,337192.659,323376.279,327242.3227,328008.931,328775.9637,329542.4496,330309.2696,331075.9367,331843.2532,332609.7205,336434.7767
Mixed,Female,ball,7,M_done.wav,space,486.1232374,2191,326493.001,333375.7065,334125.6452,334892.3827,335659.072,336425.706,337192.659,337959.6061,327242.3227,328008.931,328775.9637,329542.4496,330309.2696,331075.9367,331843.2532,332609.7205,337201.9309
Mixed,Male,cave,18,F_reek.wav,None,719.0372958,2191,341075.9033,333375.7065,334125.6452,334892.3827,335659.072,336425.706,337192.659,337959.6061,327242.3227,328008.931,328775.9637,329542.4496,330309.2696,331075.9367,331843.2532,332609.7205,337969.6278
Mixed,Male,cave,18,F_park.wav,None,719.5585555,2191,341075.9033,333375.7065,334125.6452,334892.3827,335659.072,336425.706,337192.659,337959.6061,341825.4231,328008.931,328775.9637,329542.4496,330309.2696,331075.9367,331843.2532,332609.7205,341085.8823
Mixed,Male,cave,18,F_dime.wav,None,735.5855918,2191,341075.9033,333375.7065,334125.6452,334892.3827,335659.072,336425.706,337192.659,337959.6061,341825.4231,342592.1374,328775.9637,329542.4496,330309.2696,331075.9367,331843.2532,332609.7205,341834.45
Mixed,Male,cave,18,F_depth.wav,None,733.7259373,2191,341075.9033,333375.7065,334125.6452,334892.3827,335659.072,336425.706,337192.659,337959.6061,341825.4231,342592.1374,343358.9458,329542.4496,330309.2696,331075.9367,331843.2532,332609.7205,342601.1337
Mixed,Male,cave,18,M_jolt.wav,None,731.6232758,2191,341075.9033,333375.7065,334125.6452,334892.3827,335659.072,336425.706,337192.659,337959.6061,341825.4231,342592.1374,343358.9458,344125.4492,330309.2696,331075.9367,331843.2532,332609.7205,343368.0428
Mixed,Male,cave,18,F_lash.wav,None,729.481968,2191,341075.9033,333375.7065,334125.6452,334892.3827,335659.072,336425.706,337192.659,337959.6061,341825.4231,342592.1374,343358.9458,344125.4492,344892.038,331075.9367,331843.2532,332609.7205,344134.992
Mixed,Male,cave,18,M_cave.wav,None,728.6110376,2191,341075.9033,333375.7065,334125.6452,334892.3827,335659.072,336425.706,337192.659,337959.6061,341825.4231,342592.1374,343358.9458,344125.4492,344892.038,345658.4293,331843.2532,332609.7205,344900.9569
Mixed,Male,cave,18,F_cling.wav,space,452.6525503,2191,341075.9033,333375.7065,334125.6452,334892.3827,335659.072,336425.706,337192.659,337959.6061,341825.4231,342592.1374,343358.9458,344125.4492,344892.038,345658.4293,346425.85,332609.7205,345667.1673
Mixed,Male,cave,18,M_cave.wav,None,721.6346285,2191,341075.9033,333375.7065,334125.6452,334892.3827,335659.072,336425.706,337192.659,337959.6061,341825.4231,342592.1374,343358.9458,344125.4492,344892.038,345658.4293,346425.85,347192.3575,346435.7101
Mixed,Male,cave,18,M_jaw.wav,space,349.8521552,2191,341075.9033,347941.9089,334125.6452,334892.3827,335659.072,336425.706,337192.659,337959.6061,341825.4231,342592.1374,343358.9458,344125.4492,344892.038,345658.4293,346425.85,347192.3575,347201.871
Mixed,Male,cave,18,M_cad.wav,None,734.1201283,2191,341075.9033,347941.9089,348708.6582,334892.3827,335659.072,336425.706,337192.659,337959.6061,341825.4231,342592.1374,343358.9458,344125.4492,344892.038,345658.4293,346425.85,347192.3575,347951.3027
Mixed,Male,cave,18,M_cave.wav,None,732.5702619,2191,341075.9033,347941.9089,348708.6582,349474.9993,335659.072,336425.706,337192.659,337959.6061,341825.4231,342592.1374,343358.9458,344125.4492,344892.038,345658.4293,346425.85,347192.3575,348717.689
Mixed,Male,cave,18,F_bluff.wav,space,475.9419775,2191,341075.9033,347941.9089,348708.6582,349474.9993,350241.8234,336425.706,337192.659,337959.6061,341825.4231,342592.1374,343358.9458,344125.4492,344892.038,345658.4293,346425.85,347192.3575,349483.6789
Mixed,Male,cave,18,F_depth.wav,None,727.3227284,2191,341075.9033,347941.9089,348708.6582,349474.9993,350241.8234,351008.5547,337192.659,337959.6061,341825.4231,342592.1374,343358.9458,344125.4492,344892.038,345658.4293,346425.85,347192.3575,350250.8205
Mixed,Male,cave,18,M_cave.wav,None,725.426283,2191,341075.9033,347941.9089,348708.6582,349474.9993,350241.8234,351008.5547,351775.248,337959.6061,341825.4231,342592.1374,343358.9458,344125.4492,344892.038,345658.4293,346425.85,347192.3575,351017.6304
Mixed,Male,cave,18,M_jaw.wav,space,511.2327453,2191,341075.9033,347941.9089,348708.6582,349474.9993,350241.8234,351008.5547,351775.248,352542.1438,341825.4231,342592.1374,343358.9458,344125.4492,344892.038,345658.4293,346425.85,347192.3575,351784.3824
Mixed,Male,ball,3,F_park.wav,None,718.9216663,2191,355658.9255,347941.9089,348708.6582,349474.9993,350241.8234,351008.5547,351775.248,352542.1438,341825.4231,342592.1374,343358.9458,344125.4492,344892.038,345658.4293,346425.85,347192.3575,352551.9785
Mixed,Male,ball,3,M_ball.wav,None,720.0498258,2191,355658.9255,347941.9089,348708.6582,349474.9993,350241.8234,351008.5547,351775.248,352542.1438,356408.7653,342592.1374,343358.9458,344125.4492,344892.038,345658.4293,346425.85,347192.3575,355668.8854
Mixed,Male,ball,3,F_bluff.wav,space,397.6172927,2191,355658.9255,347941.9089,348708.6582,349474.9993,350241.8234,351008.5547,351775.248,352542.1438,356408.7653,357175.1068,343358.9458,344125.4492,344892.038,345658.4293,346425.85,347192.3575,356417.836
Mixed,Male,ball,3,M_done.wav,None,732.9826939,2191,355658.9255,347941.9089,348708.6582,349474.9993,350241.8234,351008.5547,351775.248,352542.1438,356408.7653,357175.1068,357941.6542,344125.4492,344892.038,345658.4293,346425.85,347192.3575,357184.1852
Mixed,Male,ball,3,F_bluff.wav,None,730.640426,2191,355658.9255,347941.9089,348708.6582,349474.9993,350241.8234,351008.5547,351775.248,352542.1438,356408.7653,357175.1068,357941.6542,358708.3747,344892.038,345658.4293,346425.85,347192.3575,357951.2257
Mixed,Male,ball,3,F_greet.wav,None,729.2080439,2191,355658.9255,347941.9089,348708.6582,349474.9993,350241.8234,351008.5547,351775.248,352542.1438,356408.7653,357175.1068,357941.6542,358708.3747,359474.9737,345658.4293,346425.85,347192.3575,358717.4785
Mixed,Male,ball,3,F_knife.wav,None,727.4686564,2191,355658.9255,347941.9089,348708.6582,349474.9993,350241.8234,351008.5547,351775.248,352542.1438,356408.7653,357175.1068,357941.6542,358708.3747,359474.9737,360241.6295,346425.85,347192.3575,359484.0636
Mixed,Male,ball,3,M_ball.wav,None,725.8161455,2191,355658.9255,347941.9089,348708.6582,349474.9993,350241.8234,351008.5547,351775.248,352542.1438,356408.7653,357175.1068,357941.6542,358708.3747,359474.9737,360241.6295,361008.751,347192.3575,360250.678
Mixed,Male,ball,3,M_gnash.wav,space,364.8014267,2191,355658.9255,347941.9089,348708.6582,349474.9993,350241.8234,351008.5547,351775.248,352542.1438,356408.7653,357175.1068,357941.6542,358708.3747,359474.9737,360241.6295,361008.751,361775.4802,361018.5622
Mixed,Male,ball,3,M_ball.wav,None,719.22929,2191,355658.9255,362524.5941,348708.6582,349474.9993,350241.8234,351008.5547,351775.248,352542.1438,356408.7653,357175.1068,357941.6542,358708.3747,359474.9737,360241.6295,361008.751,361775.4802,361785.4707
Mixed,Male,ball,3,F_park.wav,space,457.7148913,2191,355658.9255,362524.5941,363291.498,349474.9993,350241.8234,351008.5547,351775.248,352542.1438,356408.7653,357175.1068,357941.6542,358708.3747,359474.9737,360241.6295,361008.751,361775.4802,362533.5845
Mixed,Male,ball,3,F_cling.wav,None,732.2580006,2191,355658.9255,362524.5941,363291.498,364058.2349,350241.8234,351008.5547,351775.248,352542.1438,356408.7653,357175.1068,357941.6542,358708.3747,359474.9737,360241.6295,361008.751,361775.4802,363300.5044
Mixed,Male,ball,3,F_cling.wav,None,730.1766718,2191,355658.9255,362524.5941,363291.498,364058.2349,364824.5822,351008.5547,351775.248,352542.1438,356408.7653,357175.1068,357941.6542,358708.3747,359474.9737,360241.6295,361008.751,361775.4802,364067.3832
Mixed,Male,ball,3,M_cave.wav,None,729.3140891,2191,355658.9255,362524.5941,363291.498,364058.2349,364824.5822,365591.4888,351775.248,352542.1438,356408.7653,357175.1068,357941.6542,358708.3747,359474.9737,360241.6295,361008.751,361775.4802,364833.4535
Mixed,Male,ball,3,M_ball.wav,None,727.1993698,2191,355658.9255,362524.5941,363291.498,364058.2349,364824.5822,365591.4888,366358.1401,352542.1438,356408.7653,357175.1068,357941.6542,358708.3747,359474.9737,360241.6295,361008.751,361775.4802,365600.5197
Mixed,Male,ball,3,M_greet.wav,space,479.9920977,2191,355658.9255,362524.5941,363291.498,364058.2349,364824.5822,365591.4888,366358.1401,367125.1113,356408.7653,357175.1068,357941.6542,358708.3747,359474.9737,360241.6295,361008.751,361775.4802,366367.1929
Mixed,Female,ball,9,M_gnash.wav,None,721.1235714,2191,370241.6586,362524.5941,363291.498,364058.2349,364824.5822,365591.4888,366358.1401,367125.1113,356408.7653,357175.1068,357941.6542,358708.3747,359474.9737,360241.6295,361008.751,361775.4802,367134.7379
Mixed,Female,ball,9,F_done.wav,None,720.2347091,2191,370241.6586,362524.5941,363291.498,364058.2349,364824.5822,365591.4888,366358.1401,367125.1113,370990.9611,357175.1068,357941.6542,358708.3747,359474.9737,360241.6295,361008.751,361775.4802,370251.1133
Mixed,Female,ball,9,F_ball.wav,None,736.3971616,2191,370241.6586,362524.5941,363291.498,364058.2349,364824.5822,365591.4888,366358.1401,367125.1113,370990.9611,371757.8625,357941.6542,358708.3747,359474.9737,360241.6295,361008.751,361775.4802,370999.9743
Mixed,Female,ball,9,M_jolt.wav,space,487.4715254,2191,370241.6586,362524.5941,363291.498,364058.2349,364824.5822,365591.4888,366358.1401,367125.1113,370990.9611,371757.8625,372524.6869,358708.3747,359474.9737,360241.6295,361008.751,361775.4802,371767.5655
Mixed,Female,ball,9,F_ball.wav,None,730.6707245,2191,370241.6586,362524.5941,363291.498,364058.2349,364824.5822,365591.4888,366358.1401,367125.1113,370990.9611,371757.8625,372524.6869,373291.2837,359474.9737,360241.6295,361008.751,361775.4802,372534.017
Mixed,Female,ball,9,F_lash.wav,space,354.6631413,2191,370241.6586,362524.5941,363291.498,364058.2349,364824.5822,365591.4888,366358.1401,367125.1113,370990.9611,371757.8625,372524.6869,373291.2837,374057.9062,360241.6295,361008.751,361775.4802,373300.3189
Mixed,Female,ball,9,M_knife.wav,None,725.970112,2191,370241.6586,362524.5941,363291.498,364058.2349,364824.5822,365591.4888,366358.1401,367125.1113,370990.9611,371757.8625,372524.6869,373291.2837,374057.9062,374824.9399,361008.751,361775.4802,374066.8993
Mixed,Female,ball,9,M_gnash.wav,None,723.18635,2191,370241.6586,362524.5941,363291.498,364058.2349,364824.5822,365591.4888,366358.1401,367125.1113,370990.9611,371757.8625,372524.6869,373291.2837,374057.9062,374824.9399,375591.3815,361775.4802,374834.6475
Mixed,Female,ball,9,F_cling.wav,None,722.5655378,2191,370241.6586,362524.5941,363291.498,364058.2349,364824.5822,365591.4888,366358.1401,367125.1113,370990.9611,371757.8625,372524.6869,373291.2837,374057.9062,374824.9399,375591.3815,376358.44,375600.9033
Mixed,Female,ball,9,F_ball.wav,None,720.6236442,2191,370241.6586,377124.3146,363291.498,364058.2349,364824.5822,365591.4888,366358.1401,367125.1113,370990.9611,371757.8625,372524.6869,373291.2837,374057.9062,374824.9399,375591.3815,376358.44,376367.9194
Mixed,Female,ball,9,M_cad.wav,space,433.8405156,2191,370241.6586,377124.3146,377874.2138,364058.2349,364824.5822,365591.4888,366358.1401,367125.1113,370990.9611,371757.8625,372524.6869,373291.2837,374057.9062,374824.9399,375591.3815,376358.44,377132.9654
Mixed,Female,ball,9,F_jaw.wav,None,735.5215936,2191,370241.6586,377124.3146,377874.2138,378640.8026,364824.5822,365591.4888,366358.1401,367125.1113,370990.9611,371757.8625,372524.6869,373291.2837,374057.9062,374824.9399,375591.3815,376358.44,377883.782
Mixed,Female,ball,9,M_bluff.wav,None,740.2265347,2191,370241.6586,377124.3146,377874.2138,378640.8026,379407.7441,365591.4888,366358.1401,367125.1113,370990.9611,371757.8625,372524.6869,373291.2837,374057.9062,374824.9399,375591.3815,376358.44,378644.2535
Mixed,Female,ball,9,M_gnash.wav,None,732.8256358,2191,370241.6586,377124.3146,377874.2138,378640.8026,379407.7441,380174.1042,366358.1401,367125.1113,370990.9611,371757.8625,372524.6869,373291.2837,374057.9062,374824.9399,375591.3815,376358.44,379416.7728
Mixed,Female,ball,9,F_ball.wav,None,731.8486603,2191,370241.6586,377124.3146,377874.2138,378640.8026,379407.7441,380174.1042,380940.782,367125.1113,370990.9611,371757.8625,372524.6869,373291.2837,374057.9062,374824.9399,375591.3815,376358.44,380182.888
Mixed,Female,ball,9,M_done.wav,space,385.177859,2191,370241.6586,377124.3146,377874.2138,378640.8026,379407.7441,380174.1042,380940.782,381707.7538,370990.9611,371757.8625,372524.6869,373291.2837,374057.9062,374824.9399,375591.3815,376358.44,380949.6017
Mixed,Male,ball,2,F_cad.wav,None,725.4216453,2191,384824.6338,377124.3146,377874.2138,378640.8026,379407.7441,380174.1042,380940.782,381707.7538,370990.9611,371757.8625,372524.6869,373291.2837,374057.9062,374824.9399,375591.3815,376358.44,381717.2407
Mixed,Male,ball,2,F_done.wav,None,719.6581081,2191,384824.6338,377124.3146,377874.2138,378640.8026,379407.7441,380174.1042,380940.782,381707.7538,385574.001,371757.8625,372524.6869,373291.2837,374057.9062,374824.9399,375591.3815,376358.44,384834.4379
Mixed,Male,ball,2,M_done.wav,None,736.1513719,2191,384824.6338,377124.3146,377874.2138,378640.8026,379407.7441,380174.1042,380940.782,381707.7538,385574.001,386340.7808,372524.6869,373291.2837,374057.9062,374824.9399,375591.3815,376358.44,385582.9839
Mixed,Male,ball,2,M_ball.wav,None,734.0388168,2191,384824.6338,377124.3146,377874.2138,378640.8026,379407.7441,380174.1042,380940.782,381707.7538,385574.001,386340.7808,387107.4995,373291.2837,374057.9062,374824.9399,375591.3815,376358.44,386350.3406
Mixed,Male,ball,2,F_priest.wav,space,441.9491033,2191,384824.6338,377124.3146,377874.2138,378640.8026,379407.7441,380174.1042,380940.782,381707.7538,385574.001,386340.7808,387107.4995,387874.1952,374057.9062,374824.9399,375591.3815,376358.44,387116.6521
Mixed,Male,ball,2,M_bluff.wav,None,730.0625882,2191,384824.6338,377124.3146,377874.2138,378640.8026,379407.7441,380174.1042,380940.782,381707.7538,385574.001,386340.7808,387107.4995,387874.1952,388640.716,374824.9399,375591.3815,376358.44,387883.2187
Mixed,Male,ball,2,F_jolt.wav,None,728.9195887,2191,384824.6338,377124.3146,377874.2138,378640.8026,379407.7441,380174.1042,380940.782,381707.7538,385574.001,386340.7808,387107.4995,387874.1952,388640.716,389407.1385,375591.3815,376358.44,388649.7159
Mixed,Male,ball,2,M_ball.wav,None,727.8885086,2191,384824.6338,377124.3146,377874.2138,378640.8026,379407.7441,380174.1042,380940.782,381707.7538,385574.001,386340.7808,387107.4995,387874.1952,388640.716,389407.1385,390174.1323,376358.44,389416.0123
Mixed,Male,ball,2,M_bluff.wav,space,446.680942,2191,384824.6338,377124.3146,377874.2138,378640.8026,379407.7441,380174.1042,380940.782,381707.7538,385574.001,386340.7808,387107.4995,387874.1952,388640.716,389407.1385,390174.1323,390941.046,390183.7592
Mixed,Male,ball,2,F_romp.wav,None,721.4800437,2191,384824.6338,391707.3491,377874.2138,378640.8026,379407.7441,380174.1042,380940.782,381707.7538,385574.001,386340.7808,387107.4995,387874.1952,388640.716,389407.1385,390174.1323,390941.046,390950.5892
Mixed,Male,ball,2,M_ball.wav,None,726.5964893,2191,384824.6338,391707.3491,392474.035,378640.8026,379407.7441,380174.1042,380940.782,381707.7538,385574.001,386340.7808,387107.4995,387874.1952,388640.716,389407.1385,390174.1323,390941.046,391716.6199
Mixed,Male,ball,2,F_cad.wav,space,497.367422,2191,384824.6338,391707.3491,392474.035,393240.9086,379407.7441,380174.1042,380940.782,381707.7538,385574.001,386340.7808,387107.4995,387874.1952,388640.716,389407.1385,390174.1323,390941.046,392485.0464
Mixed,Male,ball,2,M_ball.wav,None,721.1479958,2191,384824.6338,391707.3491,392474.035,393240.9086,394007.6727,380174.1042,380940.782,381707.7538,385574.001,386340.7808,387107.4995,387874.1952,388640.716,389407.1385,390174.1323,390941.046,393250.3883
Mixed,Male,ball,2,M_priest.wav,space,444.6221825,2191,384824.6338,391707.3491,392474.035,393240.9086,394007.6727,394757.4164,380940.782,381707.7538,385574.001,386340.7808,387107.4995,387874.1952,388640.716,389407.1385,390174.1323,390941.046,394017.738
Mixed,Male,ball,2,F_jaw.wav,None,733.3218529,2191,384824.6338,391707.3491,392474.035,393240.9086,394007.6727,394757.4164,395523.9285,381707.7538,385574.001,386340.7808,387107.4995,387874.1952,388640.716,389407.1385,390174.1323,390941.046,394766.4568
Mixed,Male,ball,2,F_reek.wav,None,731.9519229,2191,384824.6338,391707.3491,392474.035,393240.9086,394007.6727,394757.4164,395523.9285,396290.444,385574.001,386340.7808,387107.4995,387874.1952,388640.716,389407.1385,390174.1323,390941.046,395533.0057
Mixed,Female,ball,12,F_priest.wav,None,730.6274408,2191,399424.1978,391707.3491,392474.035,393240.9086,394007.6727,394757.4164,395523.9285,396290.444,385574.001,386340.7808,387107.4995,387874.1952,388640.716,389407.1385,390174.1323,390941.046,396299.4752
Mixed,Female,ball,12,F_greet.wav,None,719.349866,2191,399424.1978,391707.3491,392474.035,393240.9086,394007.6727,394757.4164,395523.9285,396290.444,400173.7681,386340.7808,387107.4995,387874.1952,388640.716,389407.1385,390174.1323,390941.046,399434.2826
Mixed,Female,ball,12,F_ball.wav,None,735.6885452,2191,399424.1978,391707.3491,392474.035,393240.9086,394007.6727,394757.4164,395523.9285,396290.444,400173.7681,400940.1995,387107.4995,387874.1952,388640.716,389407.1385,390174.1323,390941.046,400182.9288
Mixed,Female,ball,12,M_depth.wav,space,448.8689344,2191,399424.1978,391707.3491,392474.035,393240.9086,394007.6727,394757.4164,395523.9285,396290.444,400173.7681,400940.1995,401707.1126,387874.1952,388640.716,389407.1385,390174.1323,390941.046,400949.3067
Mixed,Female,ball,12,F_ball.wav,None,730.6651595,2191,399424.1978,391707.3491,392474.035,393240.9086,394007.6727,394757.4164,395523.9285,396290.444,400173.7681,400940.1995,401707.1126,402473.7361,388640.716,389407.1385,390174.1323,390941.046,401716.2767
Mixed,Female,ball,12,M_dime.wav,space,410.5872612,2191,399424.1978,391707.3491,392474.035,393240.9086,394007.6727,394757.4164,395523.9285,396290.444,400173.7681,400940.1995,401707.1126,402473.7361,403240.4099,389407.1385,390174.1323,390941.046,402483.4418
Mixed,Female,ball,12,M_bluff.wav,None,724.8843088,2191,399424.1978,391707.3491,392474.035,393240.9086,394007.6727,394757.4164,395523.9285,396290.444,400173.7681,400940.1995,401707.1126,402473.7361,403240.4099,404006.8401,390174.1323,390941.046,403250.3101
Mixed,Female,ball,12,F_done.wav,None,724.2335071,2191,399424.1978,391707.3491,392474.035,393240.9086,394007.6727,394757.4164,395523.9285,396290.444,400173.7681,400940.1995,401707.1126,402473.7361,403240.4099,404006.8401,404774.2608,390941.046,404016.2289
Mixed,Female,ball,12,F_cave.wav,None,722.0207811,2191,399424.1978,391707.3491,392474.035,393240.9086,394007.6727,394757.4164,395523.9285,396290.444,400173.7681,400940.1995,401707.1126,402473.7361,403240.4099,404006.8401,404774.2608,405540.6233,404783.7242
Mixed,Female,ball,12,M_jaw.wav,None,721.0710124,2191,399424.1978,406307.3043,392474.035,393240.9086,394007.6727,394757.4164,395523.9285,396290.444,400173.7681,400940.1995,401707.1126,402473.7361,403240.4099,404006.8401,404774.2608,405540.6233,405550.1572
Mixed,Female,ball,12,F_ball.wav,None,719.3192584,2191,399424.1978,406307.3043,407056.8359,393240.9086,394007.6727,394757.4164,395523.9285,396290.444,400173.7681,400940.1995,401707.1126,402473.7361,403240.4099,404006.8401,404774.2608,405540.6233,406317.1408
Mixed,Female,ball,12,M_greet.wav,space,363.9475005,2191,399424.1978,406307.3043,407056.8359,407823.5789,394007.6727,394757.4164,395523.9285,396290.444,400173.7681,400940.1995,401707.1126,402473.7361,403240.4099,404006.8401,404774.2608,405540.6233,407066.0457
Mixed,Female,ball,12,M_knife.wav,None,732.6577568,2191,399424.1978,406307.3043,407056.8359,407823.5789,408606.7454,394757.4164,395523.9285,396290.444,400173.7681,400940.1995,401707.1126,402473.7361,403240.4099,404006.8401,404774.2608,405540.6233,407832.6194
Mixed,Female,ball,12,F_ball.wav,None,725.999483,2191,399424.1978,406307.3043,407056.8359,407823.5789,408606.7454,409356.6644,395523.9285,396290.444,400173.7681,400940.1995,401707.1126,402473.7361,403240.4099,404006.8401,404774.2608,405540.6233,408610.0328
Mixed,Female,ball,12,M_romp.wav,space,440.2279567,2191,399424.1978,406307.3043,407056.8359,407823.5789,408606.7454,409356.6644,410123.5052,396290.444,400173.7681,400940.1995,401707.1126,402473.7361,403240.4099,404006.8401,404774.2608,405540.6233,409365.6643
Mixed,Female,ball,12,M_reek.wav,None,731.8149608,2191,399424.1978,406307.3043,407056.8359,407823.5789,408606.7454,409356.6644,410123.5052,410890.0998,400173.7681,400940.1995,401707.1126,402473.7361,403240.4099,404006.8401,404774.2608,405540.6233,410132.6254
Mixed,Male,ball,6,M_park.wav,None,730.4682187,2191,414023.7615,406307.3043,407056.8359,407823.5789,408606.7454,409356.6644,410123.5052,410890.0998,400173.7681,400940.1995,401707.1126,402473.7361,403240.4099,404006.8401,404774.2608,405540.6233,410899.2111
Mixed,Male,ball,6,F_cad.wav,None,726.1463385,2191,414023.7615,406307.3043,407056.8359,407823.5789,408606.7454,409356.6644,410123.5052,410890.0998,414789.7397,400940.1995,401707.1126,402473.7361,403240.4099,404006.8401,404774.2608,405540.6233,414028.8857
Mixed,Male,ball,6,M_knife.wav,None,723.6760744,2191,414023.7615,406307.3043,407056.8359,407823.5789,408606.7454,409356.6644,410123.5052,410890.0998,414789.7397,415556.7286,401707.1126,402473.7361,403240.4099,404006.8401,404774.2608,405540.6233,414797.2278
Mixed,Male,ball,6,F_romp.wav,None,714.5110546,2191,414023.7615,406307.3043,407056.8359,407823.5789,408606.7454,409356.6644,410123.5052,410890.0998,414789.7397,415556.7286,416322.934,402473.7361,403240.4099,404006.8401,404774.2608,405540.6233,415573.2373
Mixed,Male,ball,6,F_gnash.wav,None,723.611458,2191,414023.7615,406307.3043,407056.8359,407823.5789,408606.7454,409356.6644,410123.5052,410890.0998,414789.7397,415556.7286,416322.934,417090.0227,403240.4099,404006.8401,404774.2608,405540.6233,416331.6708
Mixed,Male,ball,6,M_ball.wav,None,721.675748,2191,414023.7615,406307.3043,407056.8359,407823.5789,408606.7454,409356.6644,410123.5052,410890.0998,414789.7397,415556.7286,416322.934,417090.0227,417856.5042,404006.8401,404774.2608,405540.6233,417099.1927
Mixed,Male,ball,6,F_lash.wav,space,456.9580446,2191,414023.7615,406307.3043,407056.8359,407823.5789,408606.7454,409356.6644,410123.5052,410890.0998,414789.7397,415556.7286,416322.934,417090.0227,417856.5042,418606.0377,404774.2608,405540.6233,417860.6539
Mixed,Male,ball,6,F_knife.wav,None,741.9312951,2191,414023.7615,406307.3043,407056.8359,407823.5789,408606.7454,409356.6644,410123.5052,410890.0998,414789.7397,415556.7286,416322.934,417090.0227,417856.5042,418606.0377,419372.7492,405540.6233,418609.2351
Mixed,Male,ball,6,M_ball.wav,None,735.2547804,2191,414023.7615,406307.3043,407056.8359,407823.5789,408606.7454,409356.6644,410123.5052,410890.0998,414789.7397,415556.7286,416322.934,417090.0227,417856.5042,418606.0377,419372.7492,420139.6896,419381.6586
Mixed,Male,ball,6,F_lash.wav,space,473.138738,2191,414023.7615,420906.1161,407056.8359,407823.5789,408606.7454,409356.6644,410123.5052,410890.0998,414789.7397,415556.7286,416322.934,417090.0227,417856.5042,418606.0377,419372.7492,420139.6896,420148.4715
Mixed,Male,ball,6,M_greet.wav,None,732.2379047,2191,414023.7615,420906.1161,421672.762,407823.5789,408606.7454,409356.6644,410123.5052,410890.0998,414789.7397,415556.7286,416322.934,417090.0227,417856.5042,418606.0377,419372.7492,420139.6896,420914.8621
Mixed,Male,ball,6,M_ball.wav,None,731.2603107,2191,414023.7615,420906.1161,421672.762,422439.3991,408606.7454,409356.6644,410123.5052,410890.0998,414789.7397,415556.7286,416322.934,417090.0227,417856.5042,418606.0377,419372.7492,420139.6896,421681.3996
Mixed,Male,ball,6,M_bluff.wav,space,541.1275781,2191,414023.7615,420906.1161,421672.762,422439.3991,423206.1035,409356.6644,410123.5052,410890.0998,414789.7397,415556.7286,416322.934,417090.0227,417856.5042,418606.0377,419372.7492,420139.6896,422448.3681
Mixed,Male,ball,6,F_bluff.wav,None,726.8268205,2191,414023.7615,420906.1161,421672.762,422439.3991,423206.1035,423972.8929,410123.5052,410890.0998,414789.7397,415556.7286,416322.934,417090.0227,417856.5042,418606.0377,419372.7492,420139.6896,423215.1368
Mixed,Male,ball,6,M_ball.wav,None,719.9740792,2191,414023.7615,420906.1161,421672.762,422439.3991,423206.1035,423972.8929,424739.3272,410890.0998,414789.7397,415556.7286,416322.934,417090.0227,417856.5042,418606.0377,419372.7492,420139.6896,423989.4041
Mixed,Male,ball,6,F_jaw.wav,space,424.8996435,2191,414023.7615,420906.1161,421672.762,422439.3991,423206.1035,423972.8929,424739.3272,425506.2047,414789.7397,415556.7286,416322.934,417090.0227,417856.5042,418606.0377,419372.7492,420139.6896,424748.5509
Mixed,Male,ball,5,M_priest.wav,None,724.1679631,2191,442105.5879,420906.1161,421672.762,422439.3991,423206.1035,423972.8929,424739.3272,425506.2047,414789.7397,415556.7286,416322.934,417090.0227,417856.5042,418606.0377,419372.7492,420139.6896,425515.1694
Mixed,Male,ball,5,M_ball.wav,None,684.9563082,2191,442105.5879,420906.1161,421672.762,422439.3991,423206.1035,423972.8929,424739.3272,425506.2047,442872.01,415556.7286,416322.934,417090.0227,417856.5042,418606.0377,419372.7492,420139.6896,442157.093
Mixed,Male,ball,5,F_cave.wav,space,402.9343893,2191,442105.5879,420906.1161,421672.762,422439.3991,423206.1035,423972.8929,424739.3272,425506.2047,442872.01,443638.904,416322.934,417090.0227,417856.5042,418606.0377,419372.7492,420139.6896,442913.9764
Mixed,Male,ball,5,F_cling.wav,None,733.214571,2191,442105.5879,420906.1161,421672.762,422439.3991,423206.1035,423972.8929,424739.3272,425506.2047,442872.01,443638.904,444405.2392,417090.0227,417856.5042,418606.0377,419372.7492,420139.6896,443647.7861
Mixed,Male,ball,5,M_ball.wav,None,736.7962993,2191,442105.5879,420906.1161,421672.762,422439.3991,423206.1035,423972.8929,424739.3272,425506.2047,442872.01,443638.904,444405.2392,445171.9854,417856.5042,418606.0377,419372.7492,420139.6896,444414.2729
Mixed,Male,ball,5,F_greet.wav,space,377.5361172,2191,442105.5879,420906.1161,421672.762,422439.3991,423206.1035,423972.8929,424739.3272,425506.2047,442872.01,443638.904,444405.2392,445171.9854,445938.4267,418606.0377,419372.7492,420139.6896,445211.254
Mixed,Male,ball,5,M_ball.wav,None,736.6154352,2191,442105.5879,420906.1161,421672.762,422439.3991,423206.1035,423972.8929,424739.3272,425506.2047,442872.01,443638.904,444405.2392,445171.9854,445938.4267,446705.5594,419372.7492,420139.6896,445947.3398
Mixed,Male,ball,5,F_knife.wav,space,339.8922606,2191,442105.5879,420906.1161,421672.762,422439.3991,423206.1035,423972.8929,424739.3272,425506.2047,442872.01,443638.904,444405.2392,445171.9854,445938.4267,446705.5594,447472.1547,420139.6896,446760.8568
Mixed,Male,ball,5,F_tile.wav,None,616.5565818,2191,442105.5879,420906.1161,421672.762,422439.3991,423206.1035,423972.8929,424739.3272,425506.2047,442872.01,443638.904,444405.2392,445171.9854,445938.4267,446705.5594,447472.1547,448255.4939,447601.2994
Mixed,Male,ball,5,F_priest.wav,None,723.9855531,2191,442105.5879,449021.9727,421672.762,422439.3991,423206.1035,423972.8929,424739.3272,425506.2047,442872.01,443638.904,444405.2392,445171.9854,445938.4267,446705.5594,447472.1547,448255.4939,448264.5291
