"Condition","Talker","Target","Trial","current_stimulus","response_response","response_time_response","subject_nr","time_Audio1","time_Audio10","time_Audio11","time_Audio12","time_Audio13","time_Audio14","time_Audio15","time_Audio16","time_Audio2","time_Audio3","time_Audio4","time_Audio5","time_Audio6","time_Audio7","time_Audio8","time_Audio9","time_response"
"Mixed","Male","done","42","F_dime.wav","NA","NA","203","1027419.93351","NA","NA","NA","NA","NA","NA","NA","NA","NA","NA","NA","NA","NA","NA","NA","NA"
"Mixed","Male","done","42","M_done.wav","space","592.292707006","203","1027419.93351","NA","NA","NA","NA","NA","NA","NA","1028187.29964","NA","NA","NA","NA","NA","NA","NA","1027434.53324"
"Mixed","Male","done","42","F_knife.wav","None","722.367962589","203","1027419.93351","NA","NA","NA","NA","NA","NA","NA","1028187.29964","1028953.2748","NA","NA","NA","NA","NA","NA","1028196.98384"
"Mixed","Male","done","42","M_done.wav","space","0.0231878948398","203","1027419.93351","NA","NA","NA","NA","NA","NA","NA","1028187.29964","1028953.2748","1029702.90031","NA","NA","NA","NA","NA","1028962.95529"
"Mixed","Male","done","42","F_jaw.wav","space","666.886385065","203","1027419.93351","NA","NA","NA","NA","NA","NA","NA","1028187.29964","1028953.2748","1029702.90031","1030469.78846","NA","NA","NA","NA","1029711.89537"
"Mixed","Male","done","42","M_cad.wav","None","734.89809531","203","1027419.93351","NA","NA","NA","NA","NA","NA","NA","1028187.29964","1028953.2748","1029702.90031","1030469.78846","1031236.45308","NA","NA","NA","1030479.60221"
"Mixed","Male","done","42","M_cling.wav","None","735.226127028","203","1027419.93351","NA","NA","NA","NA","NA","NA","NA","1028187.29964","1028953.2748","1029702.90031","1030469.78846","1031236.45308","1032003.10038","NA","NA","1031245.62993"
"Mixed","Male","done","42","F_jolt.wav","None","734.548421518","203","1027419.93351","NA","NA","NA","NA","NA","NA","NA","1028187.29964","1028953.2748","1029702.90031","1030469.78846","1031236.45308","1032003.10038","1032769.55074","NA","1032012.48345"
"Mixed","Male","done","42","M_lash.wav","None","734.240176738","203","1027419.93351","NA","NA","NA","NA","NA","NA","NA","1028187.29964","1028953.2748","1029702.90031","1030469.78846","1031236.45308","1032003.10038","1032769.55074","1033536.62377","1032778.75418"
"Mixed","Male","done","42","M_done.wav","None","732.950619364","203","1027419.93351","1034303.08093","NA","NA","NA","NA","NA","NA","1028187.29964","1028953.2748","1029702.90031","1030469.78846","1031236.45308","1032003.10038","1032769.55074","1033536.62377","1033546.37197"
"Mixed","Male","done","42","M_cad.wav","space","514.484874206","203","1027419.93351","1034303.08093","1035069.96784","NA","NA","NA","NA","NA","1028187.29964","1028953.2748","1029702.90031","1030469.78846","1031236.45308","1032003.10038","1032769.55074","1033536.62377","1034312.17492"
"Mixed","Male","done","42","F_jolt.wav","None","726.317328808","203","1027419.93351","1034303.08093","1035069.96784","1035837.16702","NA","NA","NA","NA","1028187.29964","1028953.2748","1029702.90031","1030469.78846","1031236.45308","1032003.10038","1032769.55074","1033536.62377","1035079.36019"
"Mixed","Male","done","42","F_jolt.wav","None","722.808842198","203","1027419.93351","1034303.08093","1035069.96784","1035837.16702","1036603.61583","NA","NA","NA","1028187.29964","1028953.2748","1029702.90031","1030469.78846","1031236.45308","1032003.10038","1032769.55074","1033536.62377","1035846.94614"
"Mixed","Male","done","42","F_park.wav","None","718.650784693","203","1027419.93351","1034303.08093","1035069.96784","1035837.16702","1036603.61583","1037370.46069","NA","NA","1028187.29964","1028953.2748","1029702.90031","1030469.78846","1031236.45308","1032003.10038","1032769.55074","1033536.62377","1036614.28011"
"Mixed","Male","done","42","M_done.wav","None","719.377339468","203","1027419.93351","1034303.08093","1035069.96784","1035837.16702","1036603.61583","1037370.46069","1038120.09239","NA","1028187.29964","1028953.2748","1029702.90031","1030469.78846","1031236.45308","1032003.10038","1032769.55074","1033536.62377","1037379.79553"
"Mixed","Male","done","42","F_reek.wav","space","545.260806859","203","1027419.93351","1034303.08093","1035069.96784","1035837.16702","1036603.61583","1037370.46069","1038120.09239","1038886.78854","1028187.29964","1028953.2748","1029702.90031","1030469.78846","1031236.45308","1032003.10038","1032769.55074","1033536.62377","1038129.3283"
"Mixed","Female","cave","24","M_depth.wav","None","732.504483778","203","1042053.78546","1034303.08093","1035069.96784","1035837.16702","1036603.61583","1037370.46069","1038120.09239","1038886.78854","1028187.29964","1028953.2748","1029702.90031","1030469.78846","1031236.45308","1032003.10038","1032769.55074","1033536.62377","1038895.77587"
"Mixed","Female","cave","24","M_depth.wav","None","721.579573408","203","1042053.78546","1034303.08093","1035069.96784","1035837.16702","1036603.61583","1037370.46069","1038120.09239","1038886.78854","1042803.58875","1028953.2748","1029702.90031","1030469.78846","1031236.45308","1032003.10038","1032769.55074","1033536.62377","1042064.1149"
"Mixed","Female","cave","24","M_tile.wav","None","736.656357825","203","1042053.78546","1034303.08093","1035069.96784","1035837.16702","1036603.61583","1037370.46069","1038120.09239","1038886.78854","1042803.58875","1043570.11856","1029702.90031","1030469.78846","1031236.45308","1032003.10038","1032769.55074","1033536.62377","1042812.27463"
"Mixed","Female","cave","24","F_cave.wav","None","735.868277785","203","1042053.78546","1034303.08093","1035069.96784","1035837.16702","1036603.61583","1037370.46069","1038120.09239","1038886.78854","1042803.58875","1043570.11856","1044336.86171","1030469.78846","1031236.45308","1032003.10038","1032769.55074","1033536.62377","1043579.32293"
"Mixed","Female","cave","24","F_park.wav","space","584.734991426","203","1042053.78546","1034303.08093","1035069.96784","1035837.16702","1036603.61583","1037370.46069","1038120.09239","1038886.78854","1042803.58875","1043570.11856","1044336.86171","1045103.53684","1031236.45308","1032003.10038","1032769.55074","1033536.62377","1044345.72475"
"Mixed","Female","cave","24","F_cave.wav","None","732.033614477","203","1042053.78546","1034303.08093","1035069.96784","1035837.16702","1036603.61583","1037370.46069","1038120.09239","1038886.78854","1042803.58875","1043570.11856","1044336.86171","1045103.53684","1045869.94484","1032003.10038","1032769.55074","1033536.62377","1045112.67752"
"Mixed","Female","cave","24","M_lash.wav","space","523.167976702","203","1042053.78546","1034303.08093","1035069.96784","1035837.16702","1036603.61583","1037370.46069","1038120.09239","1038886.78854","1042803.58875","1043570.11856","1044336.86171","1045103.53684","1045869.94484","1046636.59029","1032769.55074","1033536.62377","1045879.27844"
"Mixed","Female","cave","24","M_bluff.wav","None","725.153913663","203","1042053.78546","1034303.08093","1035069.96784","1035837.16702","1036603.61583","1037370.46069","1038120.09239","1038886.78854","1042803.58875","1043570.11856","1044336.86171","1045103.53684","1045869.94484","1046636.59029","1047403.23573","1033536.62377","1046646.03705"
"Mixed","Female","cave","24","F_bluff.wav","None","725.16102466","203","1042053.78546","1034303.08093","1035069.96784","1035837.16702","1036603.61583","1037370.46069","1038120.09239","1038886.78854","1042803.58875","1043570.11856","1044336.86171","1045103.53684","1045869.94484","1046636.59029","1047403.23573","1048169.80543","1047412.56408"
"Mixed","Female","cave","24","F_cling.wav","None","724.544535158","203","1042053.78546","1048936.30897","1035069.96784","1035837.16702","1036603.61583","1037370.46069","1038120.09239","1038886.78854","1042803.58875","1043570.11856","1044336.86171","1045103.53684","1045869.94484","1046636.59029","1047403.23573","1048169.80543","1048179.45996"
"Mixed","Female","cave","24","F_cave.wav","None","726.701939129","203","1042053.78546","1048936.30897","1049703.58204","1035837.16702","1036603.61583","1037370.46069","1038120.09239","1038886.78854","1042803.58875","1043570.11856","1044336.86171","1045103.53684","1045869.94484","1046636.59029","1047403.23573","1048169.80543","1048945.25023"
"Mixed","Female","cave","24","F_gnash.wav","space","505.458281375","203","1042053.78546","1048936.30897","1049703.58204","1050470.15143","1036603.61583","1037370.46069","1038120.09239","1038886.78854","1042803.58875","1043570.11856","1044336.86171","1045103.53684","1045869.94484","1046636.59029","1047403.23573","1048169.80543","1049712.89709"
"Mixed","Female","cave","24","F_cave.wav","None","721.408601094","203","1042053.78546","1048936.30897","1049703.58204","1050470.15143","1051219.62081","1037370.46069","1038120.09239","1038886.78854","1042803.58875","1043570.11856","1044336.86171","1045103.53684","1045869.94484","1046636.59029","1047403.23573","1048169.80543","1050480.05267"
"Mixed","Female","cave","24","M_romp.wav","space","509.028293309","203","1042053.78546","1048936.30897","1049703.58204","1050470.15143","1051219.62081","1051986.20937","1038120.09239","1038886.78854","1042803.58875","1043570.11856","1044336.86171","1045103.53684","1045869.94484","1046636.59029","1047403.23573","1048169.80543","1051229.31398"
"Mixed","Female","cave","24","M_park.wav","None","735.654021439","203","1042053.78546","1048936.30897","1049703.58204","1050470.15143","1051219.62081","1051986.20937","1052752.89779","1038886.78854","1042803.58875","1043570.11856","1044336.86171","1045103.53684","1045869.94484","1046636.59029","1047403.23573","1048169.80543","1051995.39797"
"Mixed","Female","cave","24","M_gnash.wav","None","735.276522115","203","1042053.78546","1048936.30897","1049703.58204","1050470.15143","1051219.62081","1051986.20937","1052752.89779","1053519.20934","1042803.58875","1043570.11856","1044336.86171","1045103.53684","1045869.94484","1046636.59029","1047403.23573","1048169.80543","1052762.08547"
"Mixed","Male","done","37","F_romp.wav","None","735.390297486","203","1056653.38885","1048936.30897","1049703.58204","1050470.15143","1051219.62081","1051986.20937","1052752.89779","1053519.20934","1042803.58875","1043570.11856","1044336.86171","1045103.53684","1045869.94484","1046636.59029","1047403.23573","1048169.80543","1053528.38464"
"Mixed","Male","done","37","M_done.wav","None","722.115368873","203","1056653.38885","1048936.30897","1049703.58204","1050470.15143","1051219.62081","1051986.20937","1052752.89779","1053519.20934","1057420.01204","1043570.11856","1044336.86171","1045103.53684","1045869.94484","1046636.59029","1047403.23573","1048169.80543","1056663.39583"
"Mixed","Male","done","37","F_depth.wav","None","719.358170754","203","1056653.38885","1048936.30897","1049703.58204","1050470.15143","1051219.62081","1051986.20937","1052752.89779","1053519.20934","1057420.01204","1058186.18693","1044336.86171","1045103.53684","1045869.94484","1046636.59029","1047403.23573","1048169.80543","1057429.4319"
"Mixed","Male","done","37","M_knife.wav","space","60.4023628985","203","1056653.38885","1048936.30897","1049703.58204","1050470.15143","1051219.62081","1051986.20937","1052752.89779","1053519.20934","1057420.01204","1058186.18693","1058935.97568","1045103.53684","1045869.94484","1046636.59029","1047403.23573","1048169.80543","1058189.79713"
"Mixed","Male","done","37","F_bluff.wav","None","735.982362356","203","1056653.38885","1048936.30897","1049703.58204","1050470.15143","1051219.62081","1051986.20937","1052752.89779","1053519.20934","1057420.01204","1058186.18693","1058935.97568","1059702.93494","1045869.94484","1046636.59029","1047403.23573","1048169.80543","1058945.50499"
"Mixed","Male","done","37","F_knife.wav","None","732.865906146","203","1056653.38885","1048936.30897","1049703.58204","1050470.15143","1051219.62081","1051986.20937","1052752.89779","1053519.20934","1057420.01204","1058186.18693","1058935.97568","1059702.93494","1060469.45332","1046636.59029","1047403.23573","1048169.80543","1059711.77603"
"Mixed","Male","done","37","F_bluff.wav","None","730.568138009","203","1056653.38885","1048936.30897","1049703.58204","1050470.15143","1051219.62081","1051986.20937","1052752.89779","1053519.20934","1057420.01204","1058186.18693","1058935.97568","1059702.93494","1060469.45332","1061236.24346","1047403.23573","1048169.80543","1060478.83979"
"Mixed","Male","done","37","M_done.wav","None","726.410389703","203","1056653.38885","1048936.30897","1049703.58204","1050470.15143","1051219.62081","1051986.20937","1052752.89779","1053519.20934","1057420.01204","1058186.18693","1058935.97568","1059702.93494","1060469.45332","1061236.24346","1062003.33133","1048169.80543","1061246.29867"
"Mixed","Male","done","37","M_lash.wav","space","436.816787347","203","1056653.38885","1048936.30897","1049703.58204","1050470.15143","1051219.62081","1051986.20937","1052752.89779","1053519.20934","1057420.01204","1058186.18693","1058935.97568","1059702.93494","1060469.45332","1061236.24346","1062003.33133","1062769.9035","1062013.30368"
"Mixed","Male","done","37","F_park.wav","None","719.257689838","203","1056653.38885","1063519.37072","1049703.58204","1050470.15143","1051219.62081","1051986.20937","1052752.89779","1053519.20934","1057420.01204","1058186.18693","1058935.97568","1059702.93494","1060469.45332","1061236.24346","1062003.33133","1062769.9035","1062779.84648"
"Mixed","Male","done","37","M_tile.wav","None","733.935642114","203","1056653.38885","1063519.37072","1064285.97721","1050470.15143","1051219.62081","1051986.20937","1052752.89779","1053519.20934","1057420.01204","1058186.18693","1058935.97568","1059702.93494","1060469.45332","1061236.24346","1062003.33133","1062769.9035","1063528.8552"
"Mixed","Male","done","37","M_done.wav","None","731.291291886","203","1056653.38885","1063519.37072","1064285.97721","1065052.90679","1051219.62081","1051986.20937","1052752.89779","1053519.20934","1057420.01204","1058186.18693","1058935.97568","1059702.93494","1060469.45332","1061236.24346","1062003.33133","1062769.9035","1064295.01401"
"Mixed","Male","done","37","F_jaw.wav","space","619.263347704","203","1056653.38885","1063519.37072","1064285.97721","1065052.90679","1065819.94149","1051986.20937","1052752.89779","1053519.20934","1057420.01204","1058186.18693","1058935.97568","1059702.93494","1060469.45332","1061236.24346","1062003.33133","1062769.9035","1065062.76506"
"Mixed","Male","done","37","M_bluff.wav","None","722.814098117","203","1056653.38885","1063519.37072","1064285.97721","1065052.90679","1065819.94149","1066586.66794","1052752.89779","1053519.20934","1057420.01204","1058186.18693","1058935.97568","1059702.93494","1060469.45332","1061236.24346","1062003.33133","1062769.9035","1065829.94939"
"Mixed","Male","done","37","M_done.wav","None","719.73134164","203","1056653.38885","1063519.37072","1064285.97721","1065052.90679","1065819.94149","1066586.66794","1067336.01365","1053519.20934","1057420.01204","1058186.18693","1058935.97568","1059702.93494","1060469.45332","1061236.24346","1062003.33133","1062769.9035","1066596.38553"
"Mixed","Male","done","37","F_greet.wav","space","552.513060218","203","1056653.38885","1063519.37072","1064285.97721","1065052.90679","1065819.94149","1066586.66794","1067336.01365","1068102.79359","1057420.01204","1058186.18693","1058935.97568","1059702.93494","1060469.45332","1061236.24346","1062003.33133","1062769.9035","1067345.48267"
"Mixed","Female","tile","35","F_jolt.wav","None","733.547012554","203","1071236.45586","1063519.37072","1064285.97721","1065052.90679","1065819.94149","1066586.66794","1067336.01365","1068102.79359","1057420.01204","1058186.18693","1058935.97568","1059702.93494","1060469.45332","1061236.24346","1062003.33133","1062769.9035","1068112.26724"
"Mixed","Female","tile","35","M_gnash.wav","None","720.133883995","203","1071236.45586","1063519.37072","1064285.97721","1065052.90679","1065819.94149","1066586.66794","1067336.01365","1068102.79359","1071985.59845","1058186.18693","1058935.97568","1059702.93494","1060469.45332","1061236.24346","1062003.33133","1062769.9035","1071246.03803"
"Mixed","Female","tile","35","M_gnash.wav","None","734.858212061","203","1071236.45586","1063519.37072","1064285.97721","1065052.90679","1065819.94149","1066586.66794","1067336.01365","1068102.79359","1071985.59845","1072752.68508","1058935.97568","1059702.93494","1060469.45332","1061236.24346","1062003.33133","1062769.9035","1071994.83837"
"Mixed","Female","tile","35","F_tile.wav","None","730.917502602","203","1071236.45586","1063519.37072","1064285.97721","1065052.90679","1065819.94149","1066586.66794","1067336.01365","1068102.79359","1071985.59845","1072752.68508","1073519.30085","1059702.93494","1060469.45332","1061236.24346","1062003.33133","1062769.9035","1072762.37269"
"Mixed","Female","tile","35","M_gnash.wav","space","558.374038432","203","1071236.45586","1063519.37072","1064285.97721","1065052.90679","1065819.94149","1066586.66794","1067336.01365","1068102.79359","1071985.59845","1072752.68508","1073519.30085","1074286.01061","1060469.45332","1061236.24346","1062003.33133","1062769.9035","1073523.44128"
"Mixed","Female","tile","35","M_dime.wav","None","728.12413139","203","1071236.45586","1063519.37072","1064285.97721","1065052.90679","1065819.94149","1066586.66794","1067336.01365","1068102.79359","1071985.59845","1072752.68508","1073519.30085","1074286.01061","1075052.63843","1061236.24346","1062003.33133","1062769.9035","1074295.01463"
"Mixed","Female","tile","35","F_tile.wav","None","727.598538564","203","1071236.45586","1063519.37072","1064285.97721","1065052.90679","1065819.94149","1066586.66794","1067336.01365","1068102.79359","1071985.59845","1072752.68508","1073519.30085","1074286.01061","1075052.63843","1075819.26502","1062003.33133","1062769.9035","1075062.01562"
"Mixed","Female","tile","35","F_depth.wav","space","517.250110744","203","1071236.45586","1063519.37072","1064285.97721","1065052.90679","1065819.94149","1066586.66794","1067336.01365","1068102.79359","1071985.59845","1072752.68508","1073519.30085","1074286.01061","1075052.63843","1075819.26502","1076586.41967","1062769.9035","1075828.58842"
"Mixed","Female","tile","35","M_cling.wav","None","720.608772535","203","1071236.45586","1063519.37072","1064285.97721","1065052.90679","1065819.94149","1066586.66794","1067336.01365","1068102.79359","1071985.59845","1072752.68508","1073519.30085","1074286.01061","1075052.63843","1075819.26502","1076586.41967","1077335.5332","1076595.96846"
"Mixed","Female","tile","35","M_reek.wav","None","735.56899908","203","1071236.45586","1078102.076","1064285.97721","1065052.90679","1065819.94149","1066586.66794","1067336.01365","1068102.79359","1071985.59845","1072752.68508","1073519.30085","1074286.01061","1075052.63843","1075819.26502","1076586.41967","1077335.5332","1077344.55732"
"Mixed","Female","tile","35","F_tile.wav","None","735.880644643","203","1071236.45586","1078102.076","1078869.21427","1065052.90679","1065819.94149","1066586.66794","1067336.01365","1068102.79359","1071985.59845","1072752.68508","1073519.30085","1074286.01061","1075052.63843","1075819.26502","1076586.41967","1077335.5332","1078110.84752"
"Mixed","Female","tile","35","M_depth.wav","space","627.20598263","203","1071236.45586","1078102.076","1078869.21427","1079635.83343","1065819.94149","1066586.66794","1067336.01365","1068102.79359","1071985.59845","1072752.68508","1073519.30085","1074286.01061","1075052.63843","1075819.26502","1076586.41967","1077335.5332","1078878.54663"
"Mixed","Female","tile","35","F_priest.wav","None","728.848212864","203","1071236.45586","1078102.076","1078869.21427","1079635.83343","1080402.60935","1066586.66794","1067336.01365","1068102.79359","1071985.59845","1072752.68508","1073519.30085","1074286.01061","1075052.63843","1075819.26502","1076586.41967","1077335.5332","1079645.26597"
"Mixed","Female","tile","35","F_jolt.wav","None","728.489882138","203","1071236.45586","1078102.076","1078869.21427","1079635.83343","1080402.60935","1081168.99911","1067336.01365","1068102.79359","1071985.59845","1072752.68508","1073519.30085","1074286.01061","1075052.63843","1075819.26502","1076586.41967","1077335.5332","1080411.96058"
"Mixed","Female","tile","35","F_tile.wav","None","725.681361509","203","1071236.45586","1078102.076","1078869.21427","1079635.83343","1080402.60935","1081168.99911","1081935.99887","1068102.79359","1071985.59845","1072752.68508","1073519.30085","1074286.01061","1075052.63843","1075819.26502","1076586.41967","1077335.5332","1081178.649"
"Mixed","Female","tile","35","M_bluff.wav","space","600.232250174","203","1071236.45586","1078102.076","1078869.21427","1079635.83343","1080402.60935","1081168.99911","1081935.99887","1082703.29234","1071985.59845","1072752.68508","1073519.30085","1074286.01061","1075052.63843","1075819.26502","1076586.41967","1077335.5332","1081945.43945"
"Mixed","Female","cave","22","F_tile.wav","None","719.306538987","203","1085819.48453","1078102.076","1078869.21427","1079635.83343","1080402.60935","1081168.99911","1081935.99887","1082703.29234","1071985.59845","1072752.68508","1073519.30085","1074286.01061","1075052.63843","1075819.26502","1076586.41967","1077335.5332","1082712.19681"
"Mixed","Female","cave","22","F_cave.wav","None","719.808325579","203","1085819.48453","1078102.076","1078869.21427","1079635.83343","1080402.60935","1081168.99911","1081935.99887","1082703.29234","1086568.86765","1072752.68508","1073519.30085","1074286.01061","1075052.63843","1075819.26502","1076586.41967","1077335.5332","1085829.13843"
"Mixed","Female","cave","22","M_done.wav","space","678.907001915","203","1085819.48453","1078102.076","1078869.21427","1079635.83343","1080402.60935","1081168.99911","1081935.99887","1082703.29234","1086568.86765","1087336.13948","1073519.30085","1074286.01061","1075052.63843","1075819.26502","1076586.41967","1077335.5332","1086578.65326"
"Mixed","Female","cave","22","F_done.wav","None","729.93433493","203","1085819.48453","1078102.076","1078869.21427","1079635.83343","1080402.60935","1081168.99911","1081935.99887","1082703.29234","1086568.86765","1087336.13948","1088102.34498","1074286.01061","1075052.63843","1075819.26502","1076586.41967","1077335.5332","1087345.52441"
"Mixed","Female","cave","22","F_depth.wav","None","731.179680675","203","1085819.48453","1078102.076","1078869.21427","1079635.83343","1080402.60935","1081168.99911","1081935.99887","1082703.29234","1086568.86765","1087336.13948","1088102.34498","1088868.92921","1075052.63843","1075819.26502","1076586.41967","1077335.5332","1088111.65663"
"Mixed","Female","cave","22","F_cave.wav","None","727.751888044","203","1085819.48453","1078102.076","1078869.21427","1079635.83343","1080402.60935","1081168.99911","1081935.99887","1082703.29234","1086568.86765","1087336.13948","1088102.34498","1088868.92921","1089635.72739","1075819.26502","1076586.41967","1077335.5332","1088878.36515"
"Mixed","Female","cave","22","M_cad.wav","space","483.896299906","203","1085819.48453","1078102.076","1078869.21427","1079635.83343","1080402.60935","1081168.99911","1081935.99887","1082703.29234","1086568.86765","1087336.13948","1088102.34498","1088868.92921","1089635.72739","1090402.71447","1076586.41967","1077335.5332","1089645.61008"
"Mixed","Female","cave","22","F_greet.wav","None","720.920108957","203","1085819.48453","1078102.076","1078869.21427","1079635.83343","1080402.60935","1081168.99911","1081935.99887","1082703.29234","1086568.86765","1087336.13948","1088102.34498","1088868.92921","1089635.72739","1090402.71447","1091152.07719","1077335.5332","1090412.65003"
"Mixed","Female","cave","22","F_cave.wav","None","735.488305101","203","1085819.48453","1078102.076","1078869.21427","1079635.83343","1080402.60935","1081168.99911","1081935.99887","1082703.29234","1086568.86765","1087336.13948","1088102.34498","1088868.92921","1089635.72739","1090402.71447","1091152.07719","1091918.35318","1091161.59042"
"Mixed","Female","cave","22","M_romp.wav","space","586.248698761","203","1085819.48453","1092685.64356","1078869.21427","1079635.83343","1080402.60935","1081168.99911","1081935.99887","1082703.29234","1086568.86765","1087336.13948","1088102.34498","1088868.92921","1089635.72739","1090402.71447","1091152.07719","1091918.35318","1091927.22549"
"Mixed","Female","cave","22","F_cave.wav","None","731.051065086","203","1085819.48453","1092685.64356","1093452.64919","1079635.83343","1080402.60935","1081168.99911","1081935.99887","1082703.29234","1086568.86765","1087336.13948","1088102.34498","1088868.92921","1089635.72739","1090402.71447","1091152.07719","1091918.35318","1092695.21677"
"Mixed","Female","cave","22","M_jaw.wav","space","611.388421443","203","1085819.48453","1092685.64356","1093452.64919","1094218.85963","1080402.60935","1081168.99911","1081935.99887","1082703.29234","1086568.86765","1087336.13948","1088102.34498","1088868.92921","1089635.72739","1090402.71447","1091152.07719","1091918.35318","1093462.00691"
"Mixed","Female","cave","22","M_lash.wav","None","728.12258557","203","1085819.48453","1092685.64356","1093452.64919","1094218.85963","1094985.59257","1081168.99911","1081935.99887","1082703.29234","1086568.86765","1087336.13948","1088102.34498","1088868.92921","1089635.72739","1090402.71447","1091152.07719","1091918.35318","1094228.20869"
"Mixed","Female","cave","22","M_dime.wav","None","724.563085532","203","1085819.48453","1092685.64356","1093452.64919","1094218.85963","1094985.59257","1095752.6115","1081935.99887","1082703.29234","1086568.86765","1087336.13948","1088102.34498","1088868.92921","1089635.72739","1090402.71447","1091152.07719","1091918.35318","1094995.10766"
"Mixed","Female","cave","22","M_park.wav","None","720.266518823","203","1085819.48453","1092685.64356","1093452.64919","1094218.85963","1094985.59257","1095752.6115","1096501.97082","1082703.29234","1086568.86765","1087336.13948","1088102.34498","1088868.92921","1089635.72739","1090402.71447","1091152.07719","1091918.35318","1095763.14871"
"Mixed","Female","cave","22","M_jolt.wav","None","735.484595061","203","1085819.48453","1092685.64356","1093452.64919","1094218.85963","1094985.59257","1095752.6115","1096501.97082","1097268.58442","1086568.86765","1087336.13948","1088102.34498","1088868.92921","1089635.72739","1090402.71447","1091152.07719","1091918.35318","1096511.44447"
"Mixed","Male","ball","2","M_park.wav","None","735.491396801","203","1100402.57287","1092685.64356","1093452.64919","1094218.85963","1094985.59257","1095752.6115","1096501.97082","1097268.58442","1086568.86765","1087336.13948","1088102.34498","1088868.92921","1089635.72739","1090402.71447","1091152.07719","1091918.35318","1097278.05591"
"Mixed","Male","ball","2","F_tile.wav","None","719.426497817","203","1100402.57287","1092685.64356","1093452.64919","1094218.85963","1094985.59257","1095752.6115","1096501.97082","1097268.58442","1101152.12789","1087336.13948","1088102.34498","1088868.92921","1089635.72739","1090402.71447","1091152.07719","1091918.35318","1100412.20049"
"Mixed","Male","ball","2","M_ball.wav","None","733.344504784","203","1100402.57287","1092685.64356","1093452.64919","1094218.85963","1094985.59257","1095752.6115","1096501.97082","1097268.58442","1101152.12789","1101918.78571","1088102.34498","1088868.92921","1089635.72739","1090402.71447","1091152.07719","1091918.35318","1101161.8798"
"Mixed","Male","ball","2","M_greet.wav","space","448.915933899","203","1100402.57287","1092685.64356","1093452.64919","1094218.85963","1094985.59257","1095752.6115","1096501.97082","1097268.58442","1101152.12789","1101918.78571","1102685.42281","1088868.92921","1089635.72739","1090402.71447","1091152.07719","1091918.35318","1101928.36232"
"Mixed","Male","ball","2","M_ball.wav","None","733.103350387","203","1100402.57287","1092685.64356","1093452.64919","1094218.85963","1094985.59257","1095752.6115","1096501.97082","1097268.58442","1101152.12789","1101918.78571","1102685.42281","1103452.08897","1089635.72739","1090402.71447","1091152.07719","1091918.35318","1102694.87111"
"Mixed","Male","ball","2","F_done.wav","space","571.890121384","203","1100402.57287","1092685.64356","1093452.64919","1094218.85963","1094985.59257","1095752.6115","1096501.97082","1097268.58442","1101152.12789","1101918.78571","1102685.42281","1103452.08897","1104218.69701","1090402.71447","1091152.07719","1091918.35318","1103461.30601"
"Mixed","Male","ball","2","F_reek.wav","None","732.607128972","203","1100402.57287","1092685.64356","1093452.64919","1094218.85963","1094985.59257","1095752.6115","1096501.97082","1097268.58442","1101152.12789","1101918.78571","1102685.42281","1103452.08897","1104218.69701","1104985.87701","1091152.07719","1091918.35318","1104222.49488"
"Mixed","Male","ball","2","M_ball.wav","None","723.419457383","203","1100402.57287","1092685.64356","1093452.64919","1094218.85963","1094985.59257","1095752.6115","1096501.97082","1097268.58442","1101152.12789","1101918.78571","1102685.42281","1103452.08897","1104218.69701","1104985.87701","1105752.42507","1091918.35318","1104995.47588"
"Mixed","Male","ball","2","F_lash.wav","space","518.929534359","203","1100402.57287","1092685.64356","1093452.64919","1094218.85963","1094985.59257","1095752.6115","1096501.97082","1097268.58442","1101152.12789","1101918.78571","1102685.42281","1103452.08897","1104218.69701","1104985.87701","1105752.42507","1106519.09741","1105762.26602"
"Mixed","Male","ball","2","M_romp.wav","None","719.395889842","203","1100402.57287","1107268.43664","1093452.64919","1094218.85963","1094985.59257","1095752.6115","1096501.97082","1097268.58442","1101152.12789","1101918.78571","1102685.42281","1103452.08897","1104218.69701","1104985.87701","1105752.42507","1106519.09741","1106529.23301"
"Mixed","Male","ball","2","F_priest.wav","None","734.377758345","203","1100402.57287","1107268.43664","1108034.98995","1094218.85963","1094985.59257","1095752.6115","1096501.97082","1097268.58442","1101152.12789","1101918.78571","1102685.42281","1103452.08897","1104218.69701","1104985.87701","1105752.42507","1106519.09741","1107277.95141"
"Mixed","Male","ball","2","F_tile.wav","None","731.845019385","203","1100402.57287","1107268.43664","1108034.98995","1108801.88706","1094985.59257","1095752.6115","1096501.97082","1097268.58442","1101152.12789","1101918.78571","1102685.42281","1103452.08897","1104218.69701","1104985.87701","1105752.42507","1106519.09741","1108044.1161"
"Mixed","Male","ball","2","M_tile.wav","None","728.3182916","203","1100402.57287","1107268.43664","1108034.98995","1108801.88706","1109568.49386","1095752.6115","1096501.97082","1097268.58442","1101152.12789","1101918.78571","1102685.42281","1103452.08897","1104218.69701","1104985.87701","1105752.42507","1106519.09741","1108811.32176"
"Mixed","Male","ball","2","F_jolt.wav","None","725.47916288","203","1100402.57287","1107268.43664","1108034.98995","1108801.88706","1109568.49386","1110335.71994","1096501.97082","1097268.58442","1101152.12789","1101918.78571","1102685.42281","1103452.08897","1104218.69701","1104985.87701","1105752.42507","1106519.09741","1109577.89332"
"Mixed","Male","ball","2","M_ball.wav","None","721.553602896","203","1100402.57287","1107268.43664","1108034.98995","1108801.88706","1109568.49386","1110335.71994","1111101.90317","1097268.58442","1101152.12789","1101918.78571","1102685.42281","1103452.08897","1104218.69701","1104985.87701","1105752.42507","1106519.09741","1110345.76092"
"Mixed","Male","ball","2","F_cad.wav","space","386.062144244","203","1100402.57287","1107268.43664","1108034.98995","1108801.88706","1109568.49386","1110335.71994","1111101.90317","1111852.17795","1101152.12789","1101918.78571","1102685.42281","1103452.08897","1104218.69701","1104985.87701","1105752.42507","1106519.09741","1111111.02066"
"Mixed","Male","ball","4","F_gnash.wav","None","736.136330117","203","1114985.4992","1107268.43664","1108034.98995","1108801.88706","1109568.49386","1110335.71994","1111101.90317","1111852.17795","1101152.12789","1101918.78571","1102685.42281","1103452.08897","1104218.69701","1104985.87701","1105752.42507","1106519.09741","1111861.11272"
"Mixed","Male","ball","4","F_reek.wav","None","719.49111484","203","1114985.4992","1107268.43664","1108034.98995","1108801.88706","1109568.49386","1110335.71994","1111101.90317","1111852.17795","1115734.90397","1101918.78571","1102685.42281","1103452.08897","1104218.69701","1104985.87701","1105752.42507","1106519.09741","1114995.66973"
"Mixed","Male","ball","4","F_tile.wav","None","735.018363281","203","1114985.4992","1107268.43664","1108034.98995","1108801.88706","1109568.49386","1110335.71994","1111101.90317","1111852.17795","1115734.90397","1116501.73832","1102685.42281","1103452.08897","1104218.69701","1104985.87701","1105752.42507","1106519.09741","1115744.18779"
"Mixed","Male","ball","4","M_ball.wav","None","731.742992532","203","1114985.4992","1107268.43664","1108034.98995","1108801.88706","1109568.49386","1110335.71994","1111101.90317","1111852.17795","1115734.90397","1116501.73832","1117268.45952","1103452.08897","1104218.69701","1104985.87701","1105752.42507","1106519.09741","1116511.18168"
"Mixed","Male","ball","4","F_depth.wav","space","435.287312197","203","1114985.4992","1107268.43664","1108034.98995","1108801.88706","1109568.49386","1110335.71994","1111101.90317","1111852.17795","1115734.90397","1116501.73832","1117268.45952","1118034.61276","1104218.69701","1104985.87701","1105752.42507","1106519.09741","1117277.65182"
"Mixed","Male","ball","4","M_ball.wav","None","726.499122102","203","1114985.4992","1107268.43664","1108034.98995","1108801.88706","1109568.49386","1110335.71994","1111101.90317","1111852.17795","1115734.90397","1116501.73832","1117268.45952","1118034.61276","1118802.04474","1104985.87701","1105752.42507","1106519.09741","1118043.58648"
"Mixed","Male","ball","4","M_greet.wav","space","421.214100847","203","1114985.4992","1107268.43664","1108034.98995","1108801.88706","1109568.49386","1110335.71994","1111101.90317","1111852.17795","1115734.90397","1116501.73832","1117268.45952","1118034.61276","1118802.04474","1119551.59884","1105752.42507","1106519.09741","1118811.70328"
"Mixed","Male","ball","4","F_tile.wav","None","735.293526552","203","1114985.4992","1107268.43664","1108034.98995","1108801.88706","1109568.49386","1110335.71994","1111101.90317","1111852.17795","1115734.90397","1116501.73832","1117268.45952","1118034.61276","1118802.04474","1119551.59884","1120318.21801","1106519.09741","1119561.32663"
"Mixed","Male","ball","4","M_ball.wav","None","734.022828692","203","1114985.4992","1107268.43664","1108034.98995","1108801.88706","1109568.49386","1110335.71994","1111101.90317","1111852.17795","1115734.90397","1116501.73832","1117268.45952","1118034.61276","1118802.04474","1119551.59884","1120318.21801","1121085.06596","1120327.60664"
"Mixed","Male","ball","4","F_jaw.wav","space","633.719005098","203","1114985.4992","1121851.42326","1108034.98995","1108801.88706","1109568.49386","1110335.71994","1111101.90317","1111852.17795","1115734.90397","1116501.73832","1117268.45952","1118034.61276","1118802.04474","1119551.59884","1120318.21801","1121085.06596","1121095.13725"
"Mixed","Male","ball","4","F_park.wav","None","727.994279063","203","1114985.4992","1121851.42326","1122617.94225","1108801.88706","1109568.49386","1110335.71994","1111101.90317","1111852.17795","1115734.90397","1116501.73832","1117268.45952","1118034.61276","1118802.04474","1119551.59884","1120318.21801","1121085.06596","1121860.42605"
"Mixed","Male","ball","4","F_reek.wav","None","725.407125719","203","1114985.4992","1121851.42326","1122617.94225","1123385.36898","1109568.49386","1110335.71994","1111101.90317","1111852.17795","1115734.90397","1116501.73832","1117268.45952","1118034.61276","1118802.04474","1119551.59884","1120318.21801","1121085.06596","1122626.77531"
"Mixed","Male","ball","4","M_gnash.wav","None","720.768614556","203","1114985.4992","1121851.42326","1122617.94225","1123385.36898","1124134.90453","1110335.71994","1111101.90317","1111852.17795","1115734.90397","1116501.73832","1117268.45952","1118034.61276","1118802.04474","1119551.59884","1120318.21801","1121085.06596","1123395.20931"
"Mixed","Male","ball","4","M_jaw.wav","None","735.726676881","203","1114985.4992","1121851.42326","1122617.94225","1123385.36898","1124134.90453","1124901.59326","1111101.90317","1111852.17795","1115734.90397","1116501.73832","1117268.45952","1118034.61276","1118802.04474","1119551.59884","1120318.21801","1121085.06596","1124144.20814"
"Mixed","Male","ball","4","M_ball.wav","None","732.766043453","203","1114985.4992","1121851.42326","1122617.94225","1123385.36898","1124134.90453","1124901.59326","1125668.20068","1111852.17795","1115734.90397","1116501.73832","1117268.45952","1118034.61276","1118802.04474","1119551.59884","1120318.21801","1121085.06596","1124910.94448"
"Mixed","Male","ball","4","M_cad.wav","space","514.668831718","203","1114985.4992","1121851.42326","1122617.94225","1123385.36898","1124134.90453","1124901.59326","1125668.20068","1126434.89559","1115734.90397","1116501.73832","1117268.45952","1118034.61276","1118802.04474","1119551.59884","1120318.21801","1121085.06596","1125678.05647"
"Mixed","Female","tile","33","F_park.wav","None","726.364941336","203","1129551.98407","1121851.42326","1122617.94225","1123385.36898","1124134.90453","1124901.59326","1125668.20068","1126434.89559","1115734.90397","1116501.73832","1117268.45952","1118034.61276","1118802.04474","1119551.59884","1120318.21801","1121085.06596","1126444.25887"
"Mixed","Female","tile","33","F_greet.wav","None","719.17483164","203","1129551.98407","1121851.42326","1122617.94225","1123385.36898","1124134.90453","1124901.59326","1125668.20068","1126434.89559","1130301.49086","1116501.73832","1117268.45952","1118034.61276","1118802.04474","1119551.59884","1120318.21801","1121085.06596","1129561.78761"
"Mixed","Female","tile","33","F_tile.wav","None","733.951409871","203","1129551.98407","1121851.42326","1122617.94225","1123385.36898","1124134.90453","1124901.59326","1125668.20068","1126434.89559","1130301.49086","1131068.26399","1117268.45952","1118034.61276","1118802.04474","1119551.59884","1120318.21801","1121085.06596","1130310.85476"
"Mixed","Female","tile","33","M_depth.wav","space","538.666162873","203","1129551.98407","1121851.42326","1122617.94225","1123385.36898","1124134.90453","1124901.59326","1125668.20068","1126434.89559","1130301.49086","1131068.26399","1131834.7799","1118034.61276","1118802.04474","1119551.59884","1120318.21801","1121085.06596","1131077.94294"
"Mixed","Female","tile","33","M_cave.wav","None","727.859480015","203","1129551.98407","1121851.42326","1122617.94225","1123385.36898","1124134.90453","1124901.59326","1125668.20068","1126434.89559","1130301.49086","1131068.26399","1131834.7799","1132601.43957","1118802.04474","1119551.59884","1120318.21801","1121085.06596","1131843.95675"
"Mixed","Female","tile","33","M_jolt.wav","None","727.605649561","203","1129551.98407","1121851.42326","1122617.94225","1123385.36898","1124134.90453","1124901.59326","1125668.20068","1126434.89559","1130301.49086","1131068.26399","1131834.7799","1132601.43957","1133368.02349","1119551.59884","1120318.21801","1121085.06596","1132611.12995"
"Mixed","Female","tile","33","F_bluff.wav","None","725.276964193","203","1129551.98407","1121851.42326","1122617.94225","1123385.36898","1124134.90453","1124901.59326","1125668.20068","1126434.89559","1130301.49086","1131068.26399","1131834.7799","1132601.43957","1133368.02349","1134135.00192","1120318.21801","1121085.06596","1133377.38615"
"Mixed","Female","tile","33","F_tile.wav","None","721.322651254","203","1129551.98407","1121851.42326","1122617.94225","1123385.36898","1124134.90453","1124901.59326","1125668.20068","1126434.89559","1130301.49086","1131068.26399","1131834.7799","1132601.43957","1133368.02349","1134135.00192","1134901.7398","1121085.06596","1134145.33971"
"Mixed","Female","tile","33","M_bluff.wav","space","497.233062983","203","1129551.98407","1121851.42326","1122617.94225","1123385.36898","1124134.90453","1124901.59326","1125668.20068","1126434.89559","1130301.49086","1131068.26399","1131834.7799","1132601.43957","1133368.02349","1134135.00192","1134901.7398","1135651.40211","1134911.33589"
"Mixed","Female","tile","33","M_jolt.wav","None","732.826641237","203","1129551.98407","1136417.63667","1122617.94225","1123385.36898","1124134.90453","1124901.59326","1125668.20068","1126434.89559","1130301.49086","1131068.26399","1131834.7799","1132601.43957","1133368.02349","1134135.00192","1134901.7398","1135651.40211","1135660.8532"
"Mixed","Female","tile","33","F_tile.wav","None","722.938385385","203","1129551.98407","1136417.63667","1137184.39682","1123385.36898","1124134.90453","1124901.59326","1125668.20068","1126434.89559","1130301.49086","1131068.26399","1131834.7799","1132601.43957","1133368.02349","1134135.00192","1134901.7398","1135651.40211","1136434.72122"
"Mixed","Female","tile","33","M_done.wav","space","543.24253049","203","1129551.98407","1136417.63667","1137184.39682","1137951.7175","1124134.90453","1124901.59326","1125668.20068","1126434.89559","1130301.49086","1131068.26399","1131834.7799","1132601.43957","1133368.02349","1134135.00192","1134901.7398","1135651.40211","1137193.28954"
"Mixed","Female","tile","33","M_knife.wav","None","722.760920529","203","1129551.98407","1136417.63667","1137184.39682","1137951.7175","1138718.25381","1124901.59326","1125668.20068","1126434.89559","1130301.49086","1131068.26399","1131834.7799","1132601.43957","1133368.02349","1134135.00192","1134901.7398","1135651.40211","1137961.96501"
"Mixed","Female","tile","33","F_cad.wav","None","720.275793981","203","1129551.98407","1136417.63667","1137184.39682","1137951.7175","1138718.25381","1139467.61745","1125668.20068","1126434.89559","1130301.49086","1131068.26399","1131834.7799","1132601.43957","1133368.02349","1134135.00192","1134901.7398","1135651.40211","1138728.33561"
"Mixed","Female","tile","33","F_tile.wav","None","735.344849178","203","1129551.98407","1136417.63667","1137184.39682","1137951.7175","1138718.25381","1139467.61745","1140234.55878","1126434.89559","1130301.49086","1131068.26399","1131834.7799","1132601.43957","1133368.02349","1134135.00192","1134901.7398","1135651.40211","1139477.33752"
"Mixed","Female","tile","33","M_romp.wav","space","492.282906256","203","1129551.98407","1136417.63667","1137184.39682","1137951.7175","1138718.25381","1139467.61745","1140234.55878","1141001.30811","1130301.49086","1131068.26399","1131834.7799","1132601.43957","1133368.02349","1134135.00192","1134901.7398","1135651.40211","1140244.09767"
"Mixed","Male","tile","27","M_cave.wav","None","728.429902752","203","1144134.90236","1136417.63667","1137184.39682","1137951.7175","1138718.25381","1139467.61745","1140234.55878","1141001.30811","1130301.49086","1131068.26399","1131834.7799","1132601.43957","1133368.02349","1134135.00192","1134901.7398","1135651.40211","1141011.45823"
"Mixed","Male","tile","27","M_tile.wav","None","719.246250461","203","1144134.90236","1136417.63667","1137184.39682","1137951.7175","1138718.25381","1139467.61745","1140234.55878","1141001.30811","1144883.99579","1131068.26399","1131834.7799","1132601.43957","1133368.02349","1134135.00192","1134901.7398","1135651.40211","1144145.5416"
"Mixed","Male","tile","27","M_romp.wav","space","611.331842956","203","1144134.90236","1136417.63667","1137184.39682","1137951.7175","1138718.25381","1139467.61745","1140234.55878","1141001.30811","1144883.99579","1145651.17178","1131834.7799","1132601.43957","1133368.02349","1134135.00192","1134901.7398","1135651.40211","1144893.02208"
"Mixed","Male","tile","27","M_tile.wav","None","731.159275339","203","1144134.90236","1136417.63667","1137184.39682","1137951.7175","1138718.25381","1139467.61745","1140234.55878","1141001.30811","1144883.99579","1145651.17178","1146417.74673","1132601.43957","1133368.02349","1134135.00192","1134901.7398","1135651.40211","1145660.70449"
"Mixed","Male","tile","27","F_romp.wav","space","508.83567892","203","1144134.90236","1136417.63667","1137184.39682","1137951.7175","1138718.25381","1139467.61745","1140234.55878","1141001.30811","1144883.99579","1145651.17178","1146417.74673","1147184.22646","1133368.02349","1134135.00192","1134901.7398","1135651.40211","1146427.5005"
"Mixed","Male","tile","27","M_tile.wav","None","725.4810179","203","1144134.90236","1136417.63667","1137184.39682","1137951.7175","1138718.25381","1139467.61745","1140234.55878","1141001.30811","1144883.99579","1145651.17178","1146417.74673","1147184.22646","1147951.45996","1134135.00192","1134901.7398","1135651.40211","1147193.51585"
"Mixed","Male","tile","27","M_park.wav","space","702.763659821","203","1144134.90236","1136417.63667","1137184.39682","1137951.7175","1138718.25381","1139467.61745","1140234.55878","1141001.30811","1144883.99579","1145651.17178","1146417.74673","1147184.22646","1147951.45996","1148701.00076","1134901.7398","1135651.40211","1147961.48178"
"Mixed","Male","tile","27","F_dime.wav","None","736.08840839","203","1144134.90236","1136417.63667","1137184.39682","1137951.7175","1138718.25381","1139467.61745","1140234.55878","1141001.30811","1144883.99579","1145651.17178","1146417.74673","1147184.22646","1147951.45996","1148701.00076","1149467.58066","1135651.40211","1148709.96954"
"Mixed","Male","tile","27","F_lash.wav","None","732.960822002","203","1144134.90236","1136417.63667","1137184.39682","1137951.7175","1138718.25381","1139467.61745","1140234.55878","1141001.30811","1144883.99579","1145651.17178","1146417.74673","1147184.22646","1147951.45996","1148701.00076","1149467.58066","1150234.74305","1149477.36535"
"Mixed","Male","tile","27","F_cave.wav","None","729.699054791","203","1144134.90236","1151001.00141","1137184.39682","1137951.7175","1138718.25381","1139467.61745","1140234.55878","1141001.30811","1144883.99579","1145651.17178","1146417.74673","1147184.22646","1147951.45996","1148701.00076","1149467.58066","1150234.74305","1150244.63965"
"Mixed","Male","tile","27","F_cave.wav","None","727.649551991","203","1144134.90236","1151001.00141","1151767.70127","1137951.7175","1138718.25381","1139467.61745","1140234.55878","1141001.30811","1144883.99579","1145651.17178","1146417.74673","1147184.22646","1147951.45996","1148701.00076","1149467.58066","1150234.74305","1151010.75332"
"Mixed","Male","tile","27","F_lash.wav","None","725.1585513","203","1144134.90236","1151001.00141","1151767.70127","1152534.43916","1138718.25381","1139467.61745","1140234.55878","1141001.30811","1144883.99579","1145651.17178","1146417.74673","1147184.22646","1147951.45996","1148701.00076","1149467.58066","1150234.74305","1151777.12979"
"Mixed","Male","tile","27","F_reek.wav","None","721.487130853","203","1144134.90236","1151001.00141","1151767.70127","1152534.43916","1153301.21106","1139467.61745","1140234.55878","1141001.30811","1144883.99579","1145651.17178","1146417.74673","1147184.22646","1147951.45996","1148701.00076","1149467.58066","1150234.74305","1152544.84497"
"Mixed","Male","tile","27","M_depth.wav","None","719.006332802","203","1144134.90236","1151001.00141","1151767.70127","1152534.43916","1153301.21106","1154050.57161","1140234.55878","1141001.30811","1144883.99579","1145651.17178","1146417.74673","1147184.22646","1147951.45996","1148701.00076","1149467.58066","1150234.74305","1153311.3819"
"Mixed","Male","tile","27","M_tile.wav","None","734.476384358","203","1144134.90236","1151001.00141","1151767.70127","1152534.43916","1153301.21106","1154050.57161","1154817.62702","1141001.30811","1144883.99579","1145651.17178","1146417.74673","1147184.22646","1147951.45996","1148701.00076","1149467.58066","1150234.74305","1154059.94788"
"Mixed","Male","tile","27","F_greet.wav","space","500.895826553","203","1144134.90236","1151001.00141","1151767.70127","1152534.43916","1153301.21106","1154050.57161","1154817.62702","1155584.32905","1144883.99579","1145651.17178","1146417.74673","1147184.22646","1147951.45996","1148701.00076","1149467.58066","1150234.74305","1154827.23702"
"Mixed","Female","ball","7","M_bluff.wav","None","727.042337705","203","1158717.40915","1151001.00141","1151767.70127","1152534.43916","1153301.21106","1154050.57161","1154817.62702","1155584.32905","1144883.99579","1145651.17178","1146417.74673","1147184.22646","1147951.45996","1148701.00076","1149467.58066","1150234.74305","1155594.74073"
"Mixed","Female","ball","7","F_ball.wav","None","721.000184538","203","1158717.40915","1151001.00141","1151767.70127","1152534.43916","1153301.21106","1154050.57161","1154817.62702","1155584.32905","1159484.57864","1145651.17178","1146417.74673","1147184.22646","1147951.45996","1148701.00076","1149467.58066","1150234.74305","1158726.6803"
"Mixed","Female","ball","7","F_cad.wav","space","561.334362661","203","1158717.40915","1151001.00141","1151767.70127","1152534.43916","1153301.21106","1154050.57161","1154817.62702","1155584.32905","1159484.57864","1160234.19705","1146417.74673","1147184.22646","1147951.45996","1148701.00076","1149467.58066","1150234.74305","1159494.72042"
"Mixed","Female","ball","7","F_jolt.wav","None","733.914927579","203","1158717.40915","1151001.00141","1151767.70127","1152534.43916","1153301.21106","1154050.57161","1154817.62702","1155584.32905","1159484.57864","1160234.19705","1161000.82518","1147184.22646","1147951.45996","1148701.00076","1149467.58066","1150234.74305","1160243.79221"
"Mixed","Female","ball","7","F_ball.wav","None","731.681467209","203","1158717.40915","1151001.00141","1151767.70127","1152534.43916","1153301.21106","1154050.57161","1154817.62702","1155584.32905","1159484.57864","1160234.19705","1161000.82518","1161767.41961","1147951.45996","1148701.00076","1149467.58066","1150234.74305","1161010.40148"
"Mixed","Female","ball","7","M_lash.wav","space","502.95584125","203","1158717.40915","1151001.00141","1151767.70127","1152534.43916","1153301.21106","1154050.57161","1154817.62702","1155584.32905","1159484.57864","1160234.19705","1161000.82518","1161767.41961","1162534.164","1148701.00076","1149467.58066","1150234.74305","1161777.03333"
"Mixed","Female","ball","7","M_dime.wav","None","725.472979422","203","1158717.40915","1151001.00141","1151767.70127","1152534.43916","1153301.21106","1154050.57161","1154817.62702","1155584.32905","1159484.57864","1160234.19705","1161000.82518","1161767.41961","1162534.164","1163301.23827","1149467.58066","1150234.74305","1162543.84573"
"Mixed","Female","ball","7","M_depth.wav","None","722.495959897","203","1158717.40915","1151001.00141","1151767.70127","1152534.43916","1153301.21106","1154050.57161","1154817.62702","1155584.32905","1159484.57864","1160234.19705","1161000.82518","1161767.41961","1162534.164","1163301.23827","1164067.33926","1150234.74305","1163310.94906"
"Mixed","Female","ball","7","M_gnash.wav","None","720.519421739","203","1158717.40915","1151001.00141","1151767.70127","1152534.43916","1153301.21106","1154050.57161","1154817.62702","1155584.32905","1159484.57864","1160234.19705","1161000.82518","1161767.41961","1162534.164","1163301.23827","1164067.33926","1164817.09246","1164076.9406"
"Mixed","Female","ball","7","F_ball.wav","None","734.725577175","203","1158717.40915","1165584.08913","1151767.70127","1152534.43916","1153301.21106","1154050.57161","1154817.62702","1155584.32905","1159484.57864","1160234.19705","1161000.82518","1161767.41961","1162534.164","1163301.23827","1164067.33926","1164817.09246","1164826.74668"
"Mixed","Female","ball","7","M_cave.wav","space","494.110732514","203","1158717.40915","1165584.08913","1166350.75591","1152534.43916","1153301.21106","1154050.57161","1154817.62702","1155584.32905","1159484.57864","1160234.19705","1161000.82518","1161767.41961","1162534.164","1163301.23827","1164067.33926","1164817.09246","1165593.83084"
"Mixed","Female","ball","7","M_depth.wav","None","728.098160936","203","1158717.40915","1165584.08913","1166350.75591","1167117.41867","1153301.21106","1154050.57161","1154817.62702","1155584.32905","1159484.57864","1160234.19705","1161000.82518","1161767.41961","1162534.164","1163301.23827","1164067.33926","1164817.09246","1166360.39405"
"Mixed","Female","ball","7","F_ball.wav","None","725.584281434","203","1158717.40915","1165584.08913","1166350.75591","1167117.41867","1167884.3668","1154050.57161","1154817.62702","1155584.32905","1159484.57864","1160234.19705","1161000.82518","1161767.41961","1162534.164","1163301.23827","1164067.33926","1164817.09246","1167126.82307"
"Mixed","Female","ball","7","M_bluff.wav","space","465.689764824","203","1158717.40915","1165584.08913","1166350.75591","1167117.41867","1167884.3668","1168634.23254","1154817.62702","1155584.32905","1159484.57864","1160234.19705","1161000.82518","1161767.41961","1162534.164","1163301.23827","1164067.33926","1164817.09246","1167894.16756"
"Mixed","Female","ball","7","F_jolt.wav","None","735.233547166","203","1158717.40915","1165584.08913","1166350.75591","1167117.41867","1167884.3668","1168634.23254","1169400.656","1155584.32905","1159484.57864","1160234.19705","1161000.82518","1161767.41961","1162534.164","1163301.23827","1164067.33926","1164817.09246","1168644.09884"
"Mixed","Female","ball","7","F_greet.wav","None","732.693697209","203","1158717.40915","1165584.08913","1166350.75591","1167117.41867","1167884.3668","1168634.23254","1169400.656","1170167.27764","1159484.57864","1160234.19705","1161000.82518","1161767.41961","1162534.164","1163301.23827","1164067.33926","1164817.09246","1169410.72883"
"Mixed","Male","cave","14","M_jolt.wav","None","729.503348761","203","1173300.70463","1165584.08913","1166350.75591","1167117.41867","1167884.3668","1168634.23254","1169400.656","1170167.27764","1159484.57864","1160234.19705","1161000.82518","1161767.41961","1162534.164","1163301.23827","1164067.33926","1164817.09246","1170178.01179"
"Mixed","Male","cave","14","F_dime.wav","None","720.203138539","203","1173300.70463","1165584.08913","1166350.75591","1167117.41867","1167884.3668","1168634.23254","1169400.656","1170167.27764","1174050.41332","1160234.19705","1161000.82518","1161767.41961","1162534.164","1163301.23827","1164067.33926","1164817.09246","1173310.24167"
"Mixed","Male","cave","14","F_cling.wav","None","734.510393231","203","1173300.70463","1165584.08913","1166350.75591","1167117.41867","1167884.3668","1168634.23254","1169400.656","1170167.27764","1174050.41332","1174817.27704","1161000.82518","1161767.41961","1162534.164","1163301.23827","1164067.33926","1164817.09246","1174059.95746"
"Mixed","Male","cave","14","M_cad.wav","None","731.681467267","203","1173300.70463","1165584.08913","1166350.75591","1167117.41867","1167884.3668","1168634.23254","1169400.656","1170167.27764","1174050.41332","1174817.27704","1175583.83716","1161767.41961","1162534.164","1163301.23827","1164067.33926","1164817.09246","1174826.80789"
"Mixed","Male","cave","14","M_cad.wav","None","729.193867359","203","1173300.70463","1165584.08913","1166350.75591","1167117.41867","1167884.3668","1168634.23254","1169400.656","1170167.27764","1174050.41332","1174817.27704","1175583.83716","1176350.50301","1162534.164","1163301.23827","1164067.33926","1164817.09246","1175593.5733"
"Mixed","Male","cave","14","F_greet.wav","None","726.258276962","203","1173300.70463","1165584.08913","1166350.75591","1167117.41867","1167884.3668","1168634.23254","1169400.656","1170167.27764","1174050.41332","1174817.27704","1175583.83716","1176350.50301","1177117.09311","1163301.23827","1164067.33926","1164817.09246","1176360.47536"
"Mixed","Male","cave","14","M_cave.wav","None","724.471879716","203","1173300.70463","1165584.08913","1166350.75591","1167117.41867","1167884.3668","1168634.23254","1169400.656","1170167.27764","1174050.41332","1174817.27704","1175583.83716","1176350.50301","1177117.09311","1177884.15718","1164067.33926","1164817.09246","1177126.76248"
"Mixed","Male","cave","14","M_greet.wav","space","640.798431123","203","1173300.70463","1165584.08913","1166350.75591","1167117.41867","1167884.3668","1168634.23254","1169400.656","1170167.27764","1174050.41332","1174817.27704","1175583.83716","1176350.50301","1177117.09311","1177884.15718","1178633.53907","1164817.09246","1177894.83877"
"Mixed","Male","cave","14","F_depth.wav","None","734.971059952","203","1173300.70463","1165584.08913","1166350.75591","1167117.41867","1167884.3668","1168634.23254","1169400.656","1170167.27764","1174050.41332","1174817.27704","1175583.83716","1176350.50301","1177117.09311","1177884.15718","1178633.53907","1179400.43989","1178643.41279"
"Mixed","Male","cave","14","M_cave.wav","None","732.555188006","203","1173300.70463","1180167.01917","1166350.75591","1167117.41867","1167884.3668","1168634.23254","1169400.656","1170167.27764","1174050.41332","1174817.27704","1175583.83716","1176350.50301","1177117.09311","1177884.15718","1178633.53907","1179400.43989","1179410.00753"
"Mixed","Male","cave","14","F_gnash.wav","space","494.808534277","203","1173300.70463","1180167.01917","1180933.47479","1167117.41867","1167884.3668","1168634.23254","1169400.656","1170167.27764","1174050.41332","1174817.27704","1175583.83716","1176350.50301","1177117.09311","1177884.15718","1178633.53907","1179400.43989","1180176.82303"
"Mixed","Male","cave","14","F_bluff.wav","None","727.053467941","203","1173300.70463","1180167.01917","1180933.47479","1181700.53298","1167884.3668","1168634.23254","1169400.656","1170167.27764","1174050.41332","1174817.27704","1175583.83716","1176350.50301","1177117.09311","1177884.15718","1178633.53907","1179400.43989","1180942.79386"
"Mixed","Male","cave","14","M_cave.wav","None","724.105201429","203","1173300.70463","1180167.01917","1180933.47479","1181700.53298","1182467.36919","1168634.23254","1169400.656","1170167.27764","1174050.41332","1174817.27704","1175583.83716","1176350.50301","1177117.09311","1177884.15718","1178633.53907","1179400.43989","1181709.81402"
"Mixed","Male","cave","14","F_tile.wav","space","665.392155584","203","1173300.70463","1180167.01917","1180933.47479","1181700.53298","1182467.36919","1183216.70594","1169400.656","1170167.27764","1174050.41332","1174817.27704","1175583.83716","1176350.50301","1177117.09311","1177884.15718","1178633.53907","1179400.43989","1182478.17692"
"Mixed","Male","cave","14","M_cave.wav","None","735.266628559","203","1173300.70463","1180167.01917","1180933.47479","1181700.53298","1182467.36919","1183216.70594","1183983.70693","1170167.27764","1174050.41332","1174817.27704","1175583.83716","1176350.50301","1177117.09311","1177884.15718","1178633.53907","1179400.43989","1183225.91216"
"Mixed","Male","cave","14","F_tile.wav","None","731.978890952","203","1173300.70463","1180167.01917","1180933.47479","1181700.53298","1182467.36919","1183216.70594","1183983.70693","1184750.29766","1174050.41332","1174817.27704","1175583.83716","1176350.50301","1177117.09311","1177884.15718","1178633.53907","1179400.43989","1183993.37073"
"Mixed","Female","ball","11","M_bluff.wav","space","71.3074863306","203","1187883.90242","1180167.01917","1180933.47479","1181700.53298","1182467.36919","1183216.70594","1183983.70693","1184750.29766","1174050.41332","1174817.27704","1175583.83716","1176350.50301","1177117.09311","1177884.15718","1178633.53907","1179400.43989","1184760.24775"
"Mixed","Female","ball","11","F_ball.wav","None","720.068648574","203","1187883.90242","1180167.01917","1180933.47479","1181700.53298","1182467.36919","1183216.70594","1183983.70693","1184750.29766","1188633.24319","1174817.27704","1175583.83716","1176350.50301","1177117.09311","1177884.15718","1178633.53907","1179400.43989","1187893.93259"
"Mixed","Female","ball","11","F_bluff.wav","space","524.657568545","203","1187883.90242","1180167.01917","1180933.47479","1181700.53298","1182467.36919","1183216.70594","1183983.70693","1184750.29766","1188633.24319","1189400.24295","1175583.83716","1176350.50301","1177117.09311","1177884.15718","1178633.53907","1179400.43989","1188642.7524"
"Mixed","Female","ball","11","M_cave.wav","None","731.137633265","203","1187883.90242","1180167.01917","1180933.47479","1181700.53298","1182467.36919","1183216.70594","1183983.70693","1184750.29766","1188633.24319","1189400.24295","1190166.9054","1176350.50301","1177117.09311","1177884.15718","1178633.53907","1179400.43989","1189410.16954"
"Mixed","Female","ball","11","F_cave.wav","None","728.941891983","203","1187883.90242","1180167.01917","1180933.47479","1181700.53298","1182467.36919","1183216.70594","1183983.70693","1184750.29766","1188633.24319","1189400.24295","1190166.9054","1190933.52982","1177117.09311","1177884.15718","1178633.53907","1179400.43989","1190176.58465"
"Mixed","Female","ball","11","M_cad.wav","None","726.123477856","203","1187883.90242","1180167.01917","1180933.47479","1181700.53298","1182467.36919","1183216.70594","1183983.70693","1184750.29766","1188633.24319","1189400.24295","1190166.9054","1190933.52982","1191700.50485","1177884.15718","1178633.53907","1179400.43989","1190943.56803"
"Mixed","Female","ball","11","M_greet.wav","None","723.730484664","203","1187883.90242","1180167.01917","1180933.47479","1181700.53298","1182467.36919","1183216.70594","1183983.70693","1184750.29766","1188633.24319","1189400.24295","1190166.9054","1190933.52982","1191700.50485","1192467.18369","1178633.53907","1179400.43989","1191709.95099"
"Mixed","Female","ball","11","M_cling.wav","None","720.557140769","203","1187883.90242","1180167.01917","1180933.47479","1181700.53298","1182467.36919","1183216.70594","1183983.70693","1184750.29766","1188633.24319","1189400.24295","1190166.9054","1190933.52982","1191700.50485","1192467.18369","1193233.71814","1179400.43989","1192477.45872"
"Mixed","Female","ball","11","F_ball.wav","None","717.662979383","203","1187883.90242","1180167.01917","1180933.47479","1181700.53298","1182467.36919","1183216.70594","1183983.70693","1184750.29766","1188633.24319","1189400.24295","1190166.9054","1190933.52982","1191700.50485","1192467.18369","1193233.71814","1193983.58017","1193244.60038"
"Mixed","Female","ball","11","F_tile.wav","space","398.151706497","203","1187883.90242","1194750.1375","1180933.47479","1181700.53298","1182467.36919","1183216.70594","1183983.70693","1184750.29766","1188633.24319","1189400.24295","1190166.9054","1190933.52982","1191700.50485","1192467.18369","1193233.71814","1193983.58017","1193993.16235"
"Mixed","Female","ball","11","F_ball.wav","None","730.198368023","203","1187883.90242","1194750.1375","1195516.68989","1181700.53298","1182467.36919","1183216.70594","1183983.70693","1184750.29766","1188633.24319","1189400.24295","1190166.9054","1190933.52982","1191700.50485","1192467.18369","1193233.71814","1193983.58017","1194759.47265"
"Mixed","Female","ball","11","M_bluff.wav","space","480.88496225","203","1187883.90242","1194750.1375","1195516.68989","1196284.05014","1182467.36919","1183216.70594","1183983.70693","1184750.29766","1188633.24319","1189400.24295","1190166.9054","1190933.52982","1191700.50485","1192467.18369","1193233.71814","1193983.58017","1195526.41521"
"Mixed","Female","ball","11","M_cad.wav","None","722.770195687","203","1187883.90242","1194750.1375","1195516.68989","1196284.05014","1197050.41517","1183216.70594","1183983.70693","1184750.29766","1188633.24319","1189400.24295","1190166.9054","1190933.52982","1191700.50485","1192467.18369","1193233.71814","1193983.58017","1196294.15698"
"Mixed","Female","ball","11","F_ball.wav","None","719.65033852","203","1187883.90242","1194750.1375","1195516.68989","1196284.05014","1197050.41517","1197800.1455","1183983.70693","1184750.29766","1188633.24319","1189400.24295","1190166.9054","1190933.52982","1191700.50485","1192467.18369","1193233.71814","1193983.58017","1197061.55527"
"Mixed","Female","ball","11","F_priest.wav","space","501.312899927","203","1187883.90242","1194750.1375","1195516.68989","1196284.05014","1197050.41517","1197800.1455","1198566.30091","1184750.29766","1188633.24319","1189400.24295","1190166.9054","1190933.52982","1191700.50485","1192467.18369","1193233.71814","1193983.58017","1197809.85474"
"Mixed","Female","ball","11","M_dime.wav","None","733.072742354","203","1187883.90242","1194750.1375","1195516.68989","1196284.05014","1197050.41517","1197800.1455","1198566.30091","1199333.28706","1188633.24319","1189400.24295","1190166.9054","1190933.52982","1191700.50485","1192467.18369","1193233.71814","1193983.58017","1198575.38377"
"Mixed","Male","tile","30","F_bluff.wav","None","730.183836946","203","1202467.00344","1194750.1375","1195516.68989","1196284.05014","1197050.41517","1197800.1455","1198566.30091","1199333.28706","1188633.24319","1189400.24295","1190166.9054","1190933.52982","1191700.50485","1192467.18369","1193233.71814","1193983.58017","1199342.38322"
"Mixed","Male","tile","30","F_bluff.wav","None","719.560369442","203","1202467.00344","1194750.1375","1195516.68989","1196284.05014","1197050.41517","1197800.1455","1198566.30091","1199333.28706","1203216.29968","1189400.24295","1190166.9054","1190933.52982","1191700.50485","1192467.18369","1193233.71814","1193983.58017","1202477.05679"
"Mixed","Male","tile","30","M_tile.wav","None","735.114515817","203","1202467.00344","1194750.1375","1195516.68989","1196284.05014","1197050.41517","1197800.1455","1198566.30091","1199333.28706","1203216.29968","1203983.39158","1190166.9054","1190933.52982","1191700.50485","1192467.18369","1193233.71814","1193983.58017","1203225.88341"
"Mixed","Male","tile","30","M_done.wav","space","510.309812205","203","1202467.00344","1194750.1375","1195516.68989","1196284.05014","1197050.41517","1197800.1455","1198566.30091","1199333.28706","1203216.29968","1203983.39158","1204749.92294","1190933.52982","1191700.50485","1192467.18369","1193233.71814","1193983.58017","1203992.76382"
"Mixed","Male","tile","30","F_park.wav","None","728.846666927","203","1202467.00344","1194750.1375","1195516.68989","1196284.05014","1197050.41517","1197800.1455","1198566.30091","1199333.28706","1203216.29968","1203983.39158","1204749.92294","1205516.49542","1191700.50485","1192467.18369","1193233.71814","1193983.58017","1204759.8149"
"Mixed","Male","tile","30","M_cad.wav","None","726.211591915","203","1202467.00344","1194750.1375","1195516.68989","1196284.05014","1197050.41517","1197800.1455","1198566.30091","1199333.28706","1203216.29968","1203983.39158","1204749.92294","1205516.49542","1206283.21414","1192467.18369","1193233.71814","1193983.58017","1205526.7519"
"Mixed","Male","tile","30","M_tile.wav","None","724.93563802","203","1202467.00344","1194750.1375","1195516.68989","1196284.05014","1197050.41517","1197800.1455","1198566.30091","1199333.28706","1203216.29968","1203983.39158","1204749.92294","1205516.49542","1206283.21414","1207050.16969","1193233.71814","1193983.58017","1206292.58577"
"Mixed","Male","tile","30","F_cad.wav","space","499.096134969","203","1202467.00344","1194750.1375","1195516.68989","1196284.05014","1197050.41517","1197800.1455","1198566.30091","1199333.28706","1203216.29968","1203983.39158","1204749.92294","1205516.49542","1206283.21414","1207050.16969","1207799.94948","1193983.58017","1207060.0026"
"Mixed","Male","tile","30","M_tile.wav","None","735.116680095","203","1202467.00344","1194750.1375","1195516.68989","1196284.05014","1197050.41517","1197800.1455","1198566.30091","1199333.28706","1203216.29968","1203983.39158","1204749.92294","1205516.49542","1206283.21414","1207050.16969","1207799.94948","1208566.28297","1207809.76725"
"Mixed","Male","tile","30","M_lash.wav","space","711.019795388","203","1202467.00344","1209333.12536","1195516.68989","1196284.05014","1197050.41517","1197800.1455","1198566.30091","1199333.28706","1203216.29968","1203983.39158","1204749.92294","1205516.49542","1206283.21414","1207050.16969","1207799.94948","1208566.28297","1208575.9984"
"Mixed","Male","tile","30","F_depth.wav","None","729.850240052","203","1202467.00344","1209333.12536","1210099.84501","1196284.05014","1197050.41517","1197800.1455","1198566.30091","1199333.28706","1203216.29968","1203983.39158","1204749.92294","1205516.49542","1206283.21414","1207050.16969","1207799.94948","1208566.28297","1209342.89119"
"Mixed","Male","tile","30","F_done.wav","None","727.2142375","203","1202467.00344","1209333.12536","1210099.84501","1210866.40853","1197050.41517","1197800.1455","1198566.30091","1199333.28706","1203216.29968","1203983.39158","1204749.92294","1205516.49542","1206283.21414","1207050.16969","1207799.94948","1208566.28297","1210109.87456"
"Mixed","Male","tile","30","F_jaw.wav","None","725.231206743","203","1202467.00344","1209333.12536","1210099.84501","1210866.40853","1211633.53969","1197800.1455","1198566.30091","1199333.28706","1203216.29968","1203983.39158","1204749.92294","1205516.49542","1206283.21414","1207050.16969","1207799.94948","1208566.28297","1210876.50177"
"Mixed","Male","tile","30","M_tile.wav","None","722.608189448","203","1202467.00344","1209333.12536","1210099.84501","1210866.40853","1211633.53969","1212399.80794","1198566.30091","1199333.28706","1203216.29968","1203983.39158","1204749.92294","1205516.49542","1206283.21414","1207050.16969","1207799.94948","1208566.28297","1211643.6963"
"Mixed","Male","tile","30","M_lash.wav","space","477.744390606","203","1202467.00344","1209333.12536","1210099.84501","1210866.40853","1211633.53969","1212399.80794","1213149.56145","1199333.28706","1203216.29968","1203983.39158","1204749.92294","1205516.49542","1206283.21414","1207050.16969","1207799.94948","1208566.28297","1212409.20307"
"Mixed","Male","tile","30","F_done.wav","None","735.22056191","203","1202467.00344","1209333.12536","1210099.84501","1210866.40853","1211633.53969","1212399.80794","1213149.56145","1213916.32408","1203216.29968","1203983.39158","1204749.92294","1205516.49542","1206283.21414","1207050.16969","1207799.94948","1208566.28297","1213158.83631"
"Mixed","Male","done","38","M_jaw.wav","None","732.18201712","203","1217049.87505","1209333.12536","1210099.84501","1210866.40853","1211633.53969","1212399.80794","1213149.56145","1213916.32408","1203216.29968","1203983.39158","1204749.92294","1205516.49542","1206283.21414","1207050.16969","1207799.94948","1208566.28297","1213926.3663"
"Mixed","Male","done","38","F_romp.wav","None","720.234364911","203","1217049.87505","1209333.12536","1210099.84501","1210866.40853","1211633.53969","1212399.80794","1213149.56145","1213916.32408","1217799.49994","1203983.39158","1204749.92294","1205516.49542","1206283.21414","1207050.16969","1207799.94948","1208566.28297","1217058.91617"
"Mixed","Male","done","38","M_done.wav","None","734.007370076","203","1217049.87505","1209333.12536","1210099.84501","1210866.40853","1211633.53969","1212399.80794","1213149.56145","1213916.32408","1217799.49994","1218566.25422","1204749.92294","1205516.49542","1206283.21414","1207050.16969","1207799.94948","1208566.28297","1217809.4556"
"Mixed","Male","done","38","F_cave.wav","space","590.810844442","203","1217049.87505","1209333.12536","1210099.84501","1210866.40853","1211633.53969","1212399.80794","1213149.56145","1213916.32408","1217799.49994","1218566.25422","1219332.904","1205516.49542","1206283.21414","1207050.16969","1207799.94948","1208566.28297","1218575.98542"
"Mixed","Male","done","38","M_done.wav","None","728.103726055","203","1217049.87505","1209333.12536","1210099.84501","1210866.40853","1211633.53969","1212399.80794","1213149.56145","1213916.32408","1217799.49994","1218566.25422","1219332.904","1220099.58654","1206283.21414","1207050.16969","1207799.94948","1208566.28297","1219343.39328"
"Mixed","Male","done","38","M_bluff.wav","space","465.297116025","203","1217049.87505","1209333.12536","1210099.84501","1210866.40853","1211633.53969","1212399.80794","1213149.56145","1213916.32408","1217799.49994","1218566.25422","1219332.904","1220099.58654","1220866.4917","1207050.16969","1207799.94948","1208566.28297","1220109.48655"
"Mixed","Male","done","38","F_lash.wav","None","722.272737534","203","1217049.87505","1209333.12536","1210099.84501","1210866.40853","1211633.53969","1212399.80794","1213149.56145","1213916.32408","1217799.49994","1218566.25422","1219332.904","1220099.58654","1220866.4917","1221633.71251","1207799.94948","1208566.28297","1220876.61028"
"Mixed","Male","done","38","M_done.wav","None","719.373320229","203","1217049.87505","1209333.12536","1210099.84501","1210866.40853","1211633.53969","1212399.80794","1213149.56145","1213916.32408","1217799.49994","1218566.25422","1219332.904","1220099.58654","1220866.4917","1221633.71251","1222382.76575","1208566.28297","1221643.77236"
"Mixed","Male","done","38","F_park.wav","space","501.882086042","203","1217049.87505","1209333.12536","1210099.84501","1210866.40853","1211633.53969","1212399.80794","1213149.56145","1213916.32408","1217799.49994","1218566.25422","1219332.904","1220099.58654","1220866.4917","1221633.71251","1222382.76575","1223149.51879","1222392.85806"
"Mixed","Male","done","38","F_tile.wav","None","731.503384071","203","1217049.87505","1223916.21154","1210099.84501","1210866.40853","1211633.53969","1212399.80794","1213149.56145","1213916.32408","1217799.49994","1218566.25422","1219332.904","1220099.58654","1220866.4917","1221633.71251","1222382.76575","1223149.51879","1223159.40735"
"Mixed","Male","done","38","M_done.wav","None","729.452335392","203","1217049.87505","1223916.21154","1224682.84586","1210866.40853","1211633.53969","1212399.80794","1213149.56145","1213916.32408","1217799.49994","1218566.25422","1219332.904","1220099.58654","1220866.4917","1221633.71251","1222382.76575","1223149.51879","1223925.91367"
"Mixed","Male","done","38","F_romp.wav","space","546.087842609","203","1217049.87505","1223916.21154","1224682.84586","1225449.70587","1211633.53969","1212399.80794","1213149.56145","1213916.32408","1217799.49994","1218566.25422","1219332.904","1220099.58654","1220866.4917","1221633.71251","1222382.76575","1223149.51879","1224692.62281"
"Mixed","Male","done","38","M_reek.wav","None","722.105166176","203","1217049.87505","1223916.21154","1224682.84586","1225449.70587","1226216.47591","1212399.80794","1213149.56145","1213916.32408","1217799.49994","1218566.25422","1219332.904","1220099.58654","1220866.4917","1221633.71251","1222382.76575","1223149.51879","1225460.69292"
"Mixed","Male","done","38","F_cad.wav","None","720.55002983","203","1217049.87505","1223916.21154","1224682.84586","1225449.70587","1226216.47591","1226983.14609","1213149.56145","1213916.32408","1217799.49994","1218566.25422","1219332.904","1220099.58654","1220866.4917","1221633.71251","1222382.76575","1223149.51879","1226226.59079"
"Mixed","Male","done","38","F_gnash.wav","None","718.131066184","203","1217049.87505","1223916.21154","1224682.84586","1225449.70587","1226216.47591","1226983.14609","1227732.70823","1213916.32408","1217799.49994","1218566.25422","1219332.904","1220099.58654","1220866.4917","1221633.71251","1222382.76575","1223149.51879","1226993.42422"
"Mixed","Male","done","38","M_gnash.wav","None","733.229801815","203","1217049.87505","1223916.21154","1224682.84586","1225449.70587","1226216.47591","1226983.14609","1227732.70823","1228499.40871","1217799.49994","1218566.25422","1219332.904","1220099.58654","1220866.4917","1221633.71251","1222382.76575","1223149.51879","1227742.70346"
"Mixed","Female","tile","32","M_gnash.wav","None","730.839282041","203","1231633.17146","1223916.21154","1224682.84586","1225449.70587","1226216.47591","1226983.14609","1227732.70823","1228499.40871","1217799.49994","1218566.25422","1219332.904","1220099.58654","1220866.4917","1221633.71251","1222382.76575","1223149.51879","1228509.63674"
"Mixed","Female","tile","32","F_gnash.wav","None","719.699806126","203","1231633.17146","1223916.21154","1224682.84586","1225449.70587","1226216.47591","1226983.14609","1227732.70823","1228499.40871","1232382.60158","1218566.25422","1219332.904","1220099.58654","1220866.4917","1221633.71251","1222382.76575","1223149.51879","1231643.17968"
"Mixed","Female","tile","32","M_park.wav","None","734.995175328","203","1231633.17146","1223916.21154","1224682.84586","1225449.70587","1226216.47591","1226983.14609","1227732.70823","1228499.40871","1232382.60158","1233149.32648","1219332.904","1220099.58654","1220866.4917","1221633.71251","1222382.76575","1223149.51879","1232392.04741"
"Mixed","Female","tile","32","F_tile.wav","None","732.29702923","203","1231633.17146","1223916.21154","1224682.84586","1225449.70587","1226216.47591","1226983.14609","1227732.70823","1228499.40871","1232382.60158","1233149.32648","1233915.98894","1220099.58654","1220866.4917","1221633.71251","1222382.76575","1223149.51879","1233159.109"
"Mixed","Female","tile","32","F_cling.wav","space","568.241888948","203","1231633.17146","1223916.21154","1224682.84586","1225449.70587","1226216.47591","1226983.14609","1227732.70823","1228499.40871","1232382.60158","1233149.32648","1233915.98894","1234682.67798","1220866.4917","1221633.71251","1222382.76575","1223149.51879","1233926.24356"
"Mixed","Female","tile","32","M_cave.wav","None","726.635157887","203","1231633.17146","1223916.21154","1224682.84586","1225449.70587","1226216.47591","1226983.14609","1227732.70823","1228499.40871","1232382.60158","1233149.32648","1233915.98894","1234682.67798","1235449.28138","1221633.71251","1222382.76575","1223149.51879","1234692.5922"
"Mixed","Female","tile","32","F_cad.wav","None","725.234607642","203","1231633.17146","1223916.21154","1224682.84586","1225449.70587","1226216.47591","1226983.14609","1227732.70823","1228499.40871","1232382.60158","1233149.32648","1233915.98894","1234682.67798","1235449.28138","1236216.41284","1222382.76575","1223149.51879","1235458.73926"
"Mixed","Female","tile","32","M_knife.wav","None","722.072703065","203","1231633.17146","1223916.21154","1224682.84586","1225449.70587","1226216.47591","1226983.14609","1227732.70823","1228499.40871","1232382.60158","1233149.32648","1233915.98894","1234682.67798","1235449.28138","1236216.41284","1236983.04654","1223149.51879","1236226.58584"
"Mixed","Female","tile","32","F_tile.wav","None","719.510901836","203","1231633.17146","1223916.21154","1224682.84586","1225449.70587","1226216.47591","1226983.14609","1227732.70823","1228499.40871","1232382.60158","1233149.32648","1233915.98894","1234682.67798","1235449.28138","1236216.41284","1236983.04654","1237732.63959","1236993.51233"
"Mixed","Female","tile","32","M_reek.wav","space","464.078977413","203","1231633.17146","1238499.76209","1224682.84586","1225449.70587","1226216.47591","1226983.14609","1227732.70823","1228499.40871","1232382.60158","1233149.32648","1233915.98894","1234682.67798","1235449.28138","1236216.41284","1236983.04654","1237732.63959","1237742.30122"
"Mixed","Female","tile","32","F_tile.wav","None","730.624716554","203","1231633.17146","1238499.76209","1239265.91039","1225449.70587","1226216.47591","1226983.14609","1227732.70823","1228499.40871","1232382.60158","1233149.32648","1233915.98894","1234682.67798","1235449.28138","1236216.41284","1236983.04654","1237732.63959","1238510.37752"
"Mixed","Female","tile","32","F_cling.wav","space","506.886038755","203","1231633.17146","1238499.76209","1239265.91039","1240032.47824","1226216.47591","1226983.14609","1227732.70823","1228499.40871","1232382.60158","1233149.32648","1233915.98894","1234682.67798","1235449.28138","1236216.41284","1236983.04654","1237732.63959","1239275.44001"
"Mixed","Female","tile","32","M_park.wav","None","726.469441608","203","1231633.17146","1238499.76209","1239265.91039","1240032.47824","1240799.09771","1226983.14609","1227732.70823","1228499.40871","1232382.60158","1233149.32648","1233915.98894","1234682.67798","1235449.28138","1236216.41284","1236983.04654","1237732.63959","1240042.29569"
"Mixed","Female","tile","32","F_tile.wav","None","724.725400971","203","1231633.17146","1238499.76209","1239265.91039","1240032.47824","1240799.09771","1241566.1658","1227732.70823","1228499.40871","1232382.60158","1233149.32648","1233915.98894","1234682.67798","1235449.28138","1236216.41284","1236983.04654","1237732.63959","1240808.51881"
"Mixed","Female","tile","32","M_lash.wav","space","493.81361797","203","1231633.17146","1238499.76209","1239265.91039","1240032.47824","1240799.09771","1241566.1658","1242332.86999","1228499.40871","1232382.60158","1233149.32648","1233915.98894","1234682.67798","1235449.28138","1236216.41284","1236983.04654","1237732.63959","1241576.50854"
"Mixed","Female","tile","32","M_done.wav","None","718.590186967","203","1231633.17146","1238499.76209","1239265.91039","1240032.47824","1240799.09771","1241566.1658","1242332.86999","1243082.27197","1232382.60158","1233149.32648","1233915.98894","1234682.67798","1235449.28138","1236216.41284","1236983.04654","1237732.63959","1242343.02259"
"Mixed","Female","done","45","F_gnash.wav","None","734.177105594","203","1246216.11418","1238499.76209","1239265.91039","1240032.47824","1240799.09771","1241566.1658","1242332.86999","1243082.27197","1232382.60158","1233149.32648","1233915.98894","1234682.67798","1235449.28138","1236216.41284","1236983.04654","1237732.63959","1243092.27493"
"Mixed","Female","done","45","F_greet.wav","None","719.485240581","203","1246216.11418","1238499.76209","1239265.91039","1240032.47824","1240799.09771","1241566.1658","1242332.86999","1243082.27197","1246965.42496","1233149.32648","1233915.98894","1234682.67798","1235449.28138","1236216.41284","1236983.04654","1237732.63959","1246226.15455"
"Mixed","Female","done","45","F_done.wav","None","735.141723009","203","1246216.11418","1238499.76209","1239265.91039","1240032.47824","1240799.09771","1241566.1658","1242332.86999","1243082.27197","1246965.42496","1247732.39566","1233915.98894","1234682.67798","1235449.28138","1236216.41284","1236983.04654","1237732.63959","1246975.0869"
"Mixed","Female","done","45","M_cave.wav","space","613.309926935","203","1246216.11418","1238499.76209","1239265.91039","1240032.47824","1240799.09771","1241566.1658","1242332.86999","1243082.27197","1246965.42496","1247732.39566","1248498.98298","1234682.67798","1235449.28138","1236216.41284","1236983.04654","1237732.63959","1247736.8601"
"Mixed","Female","done","45","M_jaw.wav","None","728.489572997","203","1246216.11418","1238499.76209","1239265.91039","1240032.47824","1240799.09771","1241566.1658","1242332.86999","1243082.27197","1246965.42496","1247732.39566","1248498.98298","1249265.3075","1235449.28138","1236216.41284","1236983.04654","1237732.63959","1248509.11919"
"Mixed","Female","done","45","F_done.wav","None","728.022413736","203","1246216.11418","1238499.76209","1239265.91039","1240032.47824","1240799.09771","1241566.1658","1242332.86999","1243082.27197","1246965.42496","1247732.39566","1248498.98298","1249265.3075","1250032.31808","1236216.41284","1236983.04654","1237732.63959","1249274.25278"
"Mixed","Female","done","45","M_ball.wav","space","532.231670222","203","1246216.11418","1238499.76209","1239265.91039","1240032.47824","1240799.09771","1241566.1658","1242332.86999","1243082.27197","1246965.42496","1247732.39566","1248498.98298","1249265.3075","1250032.31808","1250798.94869","1236983.04654","1237732.63959","1250041.88696"
"Mixed","Female","done","45","F_done.wav","None","721.711280697","203","1246216.11418","1238499.76209","1239265.91039","1240032.47824","1240799.09771","1241566.1658","1242332.86999","1243082.27197","1246965.42496","1247732.39566","1248498.98298","1249265.3075","1250032.31808","1250798.94869","1251548.5909","1237732.63959","1250808.1209"
"Mixed","Female","done","45","M_depth.wav","space","544.090280775","203","1246216.11418","1238499.76209","1239265.91039","1240032.47824","1240799.09771","1241566.1658","1242332.86999","1243082.27197","1246965.42496","1247732.39566","1248498.98298","1249265.3075","1250032.31808","1250798.94869","1251548.5909","1252315.48801","1251557.98201"
"Mixed","Female","done","45","M_dime.wav","None","731.724442216","203","1246216.11418","1253082.33226","1239265.91039","1240032.47824","1240799.09771","1241566.1658","1242332.86999","1243082.27197","1246965.42496","1247732.39566","1248498.98298","1249265.3075","1250032.31808","1250798.94869","1251548.5909","1252315.48801","1252325.5627"
"Mixed","Female","done","45","M_park.wav","None","729.10513496","203","1246216.11418","1253082.33226","1253848.89918","1240032.47824","1240799.09771","1241566.1658","1242332.86999","1243082.27197","1246965.42496","1247732.39566","1248498.98298","1249265.3075","1250032.31808","1250798.94869","1251548.5909","1252315.48801","1253092.79372"
"Mixed","Female","done","45","F_gnash.wav","None","728.038490692","203","1246216.11418","1253082.33226","1253848.89918","1254615.33037","1240799.09771","1241566.1658","1242332.86999","1243082.27197","1246965.42496","1247732.39566","1248498.98298","1249265.3075","1250032.31808","1250798.94869","1251548.5909","1252315.48801","1253858.41859"
"Mixed","Female","done","45","M_reek.wav","None","726.154704229","203","1246216.11418","1253082.33226","1253848.89918","1254615.33037","1255382.17307","1241566.1658","1242332.86999","1243082.27197","1246965.42496","1247732.39566","1248498.98298","1249265.3075","1250032.31808","1250798.94869","1251548.5909","1252315.48801","1254625.10176"
"Mixed","Female","done","45","M_tile.wav","None","724.358104286","203","1246216.11418","1253082.33226","1253848.89918","1254615.33037","1255382.17307","1256148.6157","1242332.86999","1243082.27197","1246965.42496","1247732.39566","1248498.98298","1249265.3075","1250032.31808","1250798.94869","1251548.5909","1252315.48801","1255391.85912"
"Mixed","Female","done","45","F_done.wav","None","722.492868139","203","1246216.11418","1253082.33226","1253848.89918","1254615.33037","1255382.17307","1256148.6157","1256915.78674","1243082.27197","1246965.42496","1247732.39566","1248498.98298","1249265.3075","1250032.31808","1250798.94869","1251548.5909","1252315.48801","1256158.33051"
"Mixed","Female","done","45","F_greet.wav","space","400.229653169","203","1246216.11418","1253082.33226","1253848.89918","1254615.33037","1255382.17307","1256148.6157","1256915.78674","1257665.28858","1246965.42496","1247732.39566","1248498.98298","1249265.3075","1250032.31808","1250798.94869","1251548.5909","1252315.48801","1256925.76063"
"Mixed","Female","done","43","M_greet.wav","None","733.439111442","203","1260799.10544","1253082.33226","1253848.89918","1254615.33037","1255382.17307","1256148.6157","1256915.78674","1257665.28858","1246965.42496","1247732.39566","1248498.98298","1249265.3075","1250032.31808","1250798.94869","1251548.5909","1252315.48801","1257675.1014"
"Mixed","Female","done","43","F_done.wav","None","724.386857299","203","1260799.10544","1253082.33226","1253848.89918","1254615.33037","1255382.17307","1256148.6157","1256915.78674","1257665.28858","1261548.26905","1247732.39566","1248498.98298","1249265.3075","1250032.31808","1250798.94869","1251548.5909","1252315.48801","1260804.05591"
"Mixed","Female","done","43","F_jaw.wav","space","455.876637774","203","1260799.10544","1253082.33226","1253848.89918","1254615.33037","1255382.17307","1256148.6157","1256915.78674","1257665.28858","1261548.26905","1262315.32106","1248498.98298","1249265.3075","1250032.31808","1250798.94869","1251548.5909","1252315.48801","1261558.01849"
"Mixed","Female","done","43","F_priest.wav","None","731.15649278","203","1260799.10544","1253082.33226","1253848.89918","1254615.33037","1255382.17307","1256148.6157","1256915.78674","1257665.28858","1261548.26905","1262315.32106","1263082.03113","1249265.3075","1250032.31808","1250798.94869","1251548.5909","1252315.48801","1262325.08658"
"Mixed","Female","done","43","M_knife.wav","None","727.346563188","203","1260799.10544","1253082.33226","1253848.89918","1254615.33037","1255382.17307","1256148.6157","1256915.78674","1257665.28858","1261548.26905","1262315.32106","1263082.03113","1263848.29784","1250032.31808","1250798.94869","1251548.5909","1252315.48801","1263093.49492"
"Mixed","Female","done","43","F_ball.wav","None","728.049620928","203","1260799.10544","1253082.33226","1253848.89918","1254615.33037","1255382.17307","1256148.6157","1256915.78674","1257665.28858","1261548.26905","1262315.32106","1263082.03113","1263848.29784","1264615.16527","1250798.94869","1251548.5909","1252315.48801","1263857.45397"
"Mixed","Female","done","43","F_done.wav","None","725.286239409","203","1260799.10544","1253082.33226","1253848.89918","1254615.33037","1255382.17307","1256148.6157","1256915.78674","1257665.28858","1261548.26905","1262315.32106","1263082.03113","1263848.29784","1264615.16527","1265382.26149","1251548.5909","1252315.48801","1264625.00406"
"Mixed","Female","done","43","M_jolt.wav","space","605.805698258","203","1260799.10544","1253082.33226","1253848.89918","1254615.33037","1255382.17307","1256148.6157","1256915.78674","1257665.28858","1261548.26905","1262315.32106","1263082.03113","1263848.29784","1264615.16527","1265382.26149","1266148.94249","1252315.48801","1265391.99145"
"Mixed","Female","done","43","F_done.wav","None","719.230482646","203","1260799.10544","1253082.33226","1253848.89918","1254615.33037","1255382.17307","1256148.6157","1256915.78674","1257665.28858","1261548.26905","1262315.32106","1263082.03113","1263848.29784","1264615.16527","1265382.26149","1266148.94249","1266898.19515","1266158.81869"
"Mixed","Female","done","43","M_knife.wav","space","466.37396299","203","1260799.10544","1267665.10215","1253848.89918","1254615.33037","1255382.17307","1256148.6157","1256915.78674","1257665.28858","1261548.26905","1262315.32106","1263082.03113","1263848.29784","1264615.16527","1265382.26149","1266148.94249","1266898.19515","1266907.42425"
"Mixed","Female","done","43","M_cling.wav","None","730.835881201","203","1260799.10544","1267665.10215","1268431.84035","1254615.33037","1255382.17307","1256148.6157","1256915.78674","1257665.28858","1261548.26905","1262315.32106","1263082.03113","1263848.29784","1264615.16527","1265382.26149","1266148.94249","1266898.19515","1267675.08996"
"Mixed","Female","done","43","F_lash.wav","None","730.005753692","203","1260799.10544","1267665.10215","1268431.84035","1269198.5937","1255382.17307","1256148.6157","1256915.78674","1257665.28858","1261548.26905","1262315.32106","1263082.03113","1263848.29784","1264615.16527","1265382.26149","1266148.94249","1266898.19515","1268440.93743"
"Mixed","Female","done","43","M_ball.wav","None","727.13787196","203","1260799.10544","1267665.10215","1268431.84035","1269198.5937","1269965.15165","1256148.6157","1256915.78674","1257665.28858","1261548.26905","1262315.32106","1263082.03113","1263848.29784","1264615.16527","1265382.26149","1266148.94249","1266898.19515","1269208.50854"
"Mixed","Female","done","43","F_done.wav","None","725.36631499","203","1260799.10544","1267665.10215","1268431.84035","1269198.5937","1269965.15165","1270732.01754","1256915.78674","1257665.28858","1261548.26905","1262315.32106","1263082.03113","1263848.29784","1264615.16527","1265382.26149","1266148.94249","1266898.19515","1269975.00652"
"Mixed","Female","done","43","M_gnash.wav","space","359.234650328","203","1260799.10544","1267665.10215","1268431.84035","1269198.5937","1269965.15165","1270732.01754","1271499.02132","1257665.28858","1261548.26905","1262315.32106","1263082.03113","1263848.29784","1264615.16527","1265382.26149","1266148.94249","1266898.19515","1270742.44375"
"Mixed","Female","done","43","M_jolt.wav","None","719.554185984","203","1260799.10544","1267665.10215","1268431.84035","1269198.5937","1269965.15165","1270732.01754","1271499.02132","1272248.42021","1261548.26905","1262315.32106","1263082.03113","1263848.29784","1264615.16527","1265382.26149","1266148.94249","1266898.19515","1271509.288"
"Mixed","Male","cave","13","M_jaw.wav","None","735.260136018","203","1275382.09454","1267665.10215","1268431.84035","1269198.5937","1269965.15165","1270732.01754","1271499.02132","1272248.42021","1261548.26905","1262315.32106","1263082.03113","1263848.29784","1264615.16527","1265382.26149","1266148.94249","1266898.19515","1272258.259"
"Mixed","Male","cave","13","M_cave.wav","None","717.708118551","203","1275382.09454","1267665.10215","1268431.84035","1269198.5937","1269965.15165","1270732.01754","1271499.02132","1272248.42021","1276131.41644","1262315.32106","1263082.03113","1263848.29784","1264615.16527","1265382.26149","1266148.94249","1266898.19515","1275394.13896"
"Mixed","Male","cave","13","F_tile.wav","None","733.572673867","203","1275382.09454","1267665.10215","1268431.84035","1269198.5937","1269965.15165","1270732.01754","1271499.02132","1272248.42021","1276131.41644","1276898.09683","1263082.03113","1263848.29784","1264615.16527","1265382.26149","1266148.94249","1266898.19515","1276142.81779"
"Mixed","Male","cave","13","M_cad.wav","space","0.0247337738983","203","1275382.09454","1267665.10215","1268431.84035","1269198.5937","1269965.15165","1270732.01754","1271499.02132","1272248.42021","1276131.41644","1276898.09683","1277664.99518","1263848.29784","1264615.16527","1265382.26149","1266148.94249","1266898.19515","1276907.30336"
"Mixed","Male","cave","13","F_gnash.wav","None","729.488817684","203","1275382.09454","1267665.10215","1268431.84035","1269198.5937","1269965.15165","1270732.01754","1271499.02132","1272248.42021","1276131.41644","1276898.09683","1277664.99518","1278431.80634","1264615.16527","1265382.26149","1266148.94249","1266898.19515","1277674.74183"
"Mixed","Male","cave","13","M_park.wav","None","725.547489943","203","1275382.09454","1267665.10215","1268431.84035","1269198.5937","1269965.15165","1270732.01754","1271499.02132","1272248.42021","1276131.41644","1276898.09683","1277664.99518","1278431.80634","1279198.44561","1265382.26149","1266148.94249","1266898.19515","1278443.43338"
"Mixed","Male","cave","13","F_done.wav","None","720.423269202","203","1275382.09454","1267665.10215","1268431.84035","1269198.5937","1269965.15165","1270732.01754","1271499.02132","1272248.42021","1276131.41644","1276898.09683","1277664.99518","1278431.80634","1279198.44561","1279965.28583","1266148.94249","1266898.19515","1279213.41202"
"Mixed","Male","cave","13","F_cad.wav","None","723.34989364","203","1275382.09454","1267665.10215","1268431.84035","1269198.5937","1269965.15165","1270732.01754","1271499.02132","1272248.42021","1276131.41644","1276898.09683","1277664.99518","1278431.80634","1279198.44561","1279965.28583","1280731.91087","1266898.19515","1279975.32125"
"Mixed","Male","cave","13","M_cave.wav","None","721.721483395","203","1275382.09454","1267665.10215","1268431.84035","1269198.5937","1269965.15165","1270732.01754","1271499.02132","1272248.42021","1276131.41644","1276898.09683","1277664.99518","1278431.80634","1279198.44561","1279965.28583","1280731.91087","1281498.65804","1280742.14695"
"Mixed","Male","cave","13","F_ball.wav","space","488.723096962","203","1275382.09454","1282247.5604","1268431.84035","1269198.5937","1269965.15165","1270732.01754","1271499.02132","1272248.42021","1276131.41644","1276898.09683","1277664.99518","1278431.80634","1279198.44561","1279965.28583","1280731.91087","1281498.65804","1281508.77261"
"Mixed","Male","cave","13","M_cave.wav","None","736.667488061","203","1275382.09454","1282247.5604","1283014.79575","1269198.5937","1269965.15165","1270732.01754","1271499.02132","1272248.42021","1276131.41644","1276898.09683","1277664.99518","1278431.80634","1279198.44561","1279965.28583","1280731.91087","1281498.65804","1282256.6513"
"Mixed","Male","cave","13","F_knife.wav","space","477.187262266","203","1275382.09454","1282247.5604","1283014.79575","1283781.56424","1269965.15165","1270732.01754","1271499.02132","1272248.42021","1276131.41644","1276898.09683","1277664.99518","1278431.80634","1279198.44561","1279965.28583","1280731.91087","1281498.65804","1283024.27404"
"Mixed","Male","cave","13","F_greet.wav","None","729.716677626","203","1275382.09454","1282247.5604","1283014.79575","1283781.56424","1284547.99018","1270732.01754","1271499.02132","1272248.42021","1276131.41644","1276898.09683","1277664.99518","1278431.80634","1279198.44561","1279965.28583","1280731.91087","1281498.65804","1283791.41818"
"Mixed","Male","cave","13","M_cave.wav","None","728.752678609","203","1275382.09454","1282247.5604","1283014.79575","1283781.56424","1284547.99018","1285314.56359","1271499.02132","1272248.42021","1276131.41644","1276898.09683","1277664.99518","1278431.80634","1279198.44561","1279965.28583","1280731.91087","1281498.65804","1284557.14322"
"Mixed","Male","cave","13","M_dime.wav","space","545.036966156","203","1275382.09454","1282247.5604","1283014.79575","1283781.56424","1284547.99018","1285314.56359","1286081.74978","1272248.42021","1276131.41644","1276898.09683","1277664.99518","1278431.80634","1279198.44561","1279965.28583","1280731.91087","1281498.65804","1285324.30746"
"Mixed","Male","cave","13","F_ball.wav","None","721.822891908","203","1275382.09454","1282247.5604","1283014.79575","1283781.56424","1284547.99018","1285314.56359","1286081.74978","1286848.58166","1276131.41644","1276898.09683","1277664.99518","1278431.80634","1279198.44561","1279965.28583","1280731.91087","1281498.65804","1286091.75552"
"Mixed","Male","ball","5","M_tile.wav","None","719.300664729","203","1289965.04499","1282247.5604","1283014.79575","1283781.56424","1284547.99018","1285314.56359","1286081.74978","1286848.58166","1276131.41644","1276898.09683","1277664.99518","1278431.80634","1279198.44561","1279965.28583","1280731.91087","1281498.65804","1286858.99087"
"Mixed","Male","ball","5","M_ball.wav","None","719.416913518","203","1289965.04499","1282247.5604","1283014.79575","1283781.56424","1284547.99018","1285314.56359","1286081.74978","1286848.58166","1290714.69214","1276898.09683","1277664.99518","1278431.80634","1279198.44561","1279965.28583","1280731.91087","1281498.65804","1289975.12555"
"Mixed","Male","ball","5","F_depth.wav","space","544.861974719","203","1289965.04499","1282247.5604","1283014.79575","1283781.56424","1284547.99018","1285314.56359","1286081.74978","1286848.58166","1290714.69214","1291481.44302","1277664.99518","1278431.80634","1279198.44561","1279965.28583","1280731.91087","1281498.65804","1290724.41716"
"Mixed","Male","ball","5","F_cling.wav","None","731.850584503","203","1289965.04499","1282247.5604","1283014.79575","1283781.56424","1284547.99018","1285314.56359","1286081.74978","1286848.58166","1290714.69214","1291481.44302","1292248.08939","1278431.80634","1279198.44561","1279965.28583","1280731.91087","1281498.65804","1291491.11053"
"Mixed","Male","ball","5","M_park.wav","None","729.686378734","203","1289965.04499","1282247.5604","1283014.79575","1283781.56424","1284547.99018","1285314.56359","1286081.74978","1286848.58166","1290714.69214","1291481.44302","1292248.08939","1293014.6325","1279198.44561","1279965.28583","1280731.91087","1281498.65804","1292258.15079"
"Mixed","Male","ball","5","M_ball.wav","None","729.270851298","203","1289965.04499","1282247.5604","1283014.79575","1283781.56424","1284547.99018","1285314.56359","1286081.74978","1286848.58166","1290714.69214","1291481.44302","1292248.08939","1293014.6325","1293781.33638","1279965.28583","1280731.91087","1281498.65804","1293024.12657"
"Mixed","Male","ball","5","F_cad.wav","space","486.367204518","203","1289965.04499","1282247.5604","1283014.79575","1283781.56424","1284547.99018","1285314.56359","1286081.74978","1286848.58166","1290714.69214","1291481.44302","1292248.08939","1293014.6325","1293781.33638","1294547.96606","1280731.91087","1281498.65804","1293790.89383"
