"Condition","Talker","Target","Trial","current_stimulus","response_response","response_time_response","subject_nr","time_Audio1","time_Audio10","time_Audio11","time_Audio12","time_Audio13","time_Audio14","time_Audio15","time_Audio16","time_Audio2","time_Audio3","time_Audio4","time_Audio5","time_Audio6","time_Audio7","time_Audio8","time_Audio9","time_response","title"
"Blocked","Female","ball","5","F_priest.wav","NA","NA","442","43328.1254977","NA","NA","NA","NA","NA","NA","NA","NA","NA","NA","NA","NA","NA","NA","NA","NA","Mapping"
"Blocked","Female","ball","5","F_greet.wav","None","719.802375301","442","43328.1254977","NA","NA","NA","NA","NA","NA","NA","44094.8536805","NA","NA","NA","NA","NA","NA","NA","43339.8254754","Mapping"
"Blocked","Female","ball","5","F_park.wav","None","727.966729552","442","43328.1254977","NA","NA","NA","NA","NA","NA","NA","44094.8536805","44861.9499382","NA","NA","NA","NA","NA","NA","44098.6380925","Mapping"
"Blocked","Female","ball","5","F_dime.wav","None","728.033433785","442","43328.1254977","NA","NA","NA","NA","NA","NA","NA","44094.8536805","44861.9499382","45629.1053885","NA","NA","NA","NA","NA","44865.525524","Mapping"
"Blocked","Female","ball","5","F_bluff.wav","None","728.016607463","442","43328.1254977","NA","NA","NA","NA","NA","NA","NA","44094.8536805","44861.9499382","45629.1053885","46396.4357119","NA","NA","NA","NA","45632.4132561","Mapping"
"Blocked","Female","ball","5","F_dime.wav","None","727.470955113","442","43328.1254977","NA","NA","NA","NA","NA","NA","NA","44094.8536805","44861.9499382","45629.1053885","46396.4357119","47163.8811151","NA","NA","NA","46399.9211569","Mapping"
"Blocked","Female","ball","5","F_ball.wav","None","727.510016062","442","43328.1254977","NA","NA","NA","NA","NA","NA","NA","44094.8536805","44861.9499382","45629.1053885","46396.4357119","47163.8811151","47930.8995514","NA","NA","47166.941396","Mapping"
"Blocked","Female","ball","5","F_reek.wav","space","393.901853473","442","43328.1254977","NA","NA","NA","NA","NA","NA","NA","44094.8536805","44861.9499382","45629.1053885","46396.4357119","47163.8811151","47930.8995514","48698.6328042","NA","47933.984771","Mapping"
"Blocked","Female","ball","5","F_priest.wav","None","724.823819706","442","43328.1254977","NA","NA","NA","NA","NA","NA","NA","44094.8536805","44861.9499382","45629.1053885","46396.4357119","47163.8811151","47930.8995514","48698.6328042","49465.9487051","48702.591188","Mapping"
"Blocked","Female","ball","5","F_ball.wav","None","725.006805616","442","43328.1254977","50215.7207991","NA","NA","NA","NA","NA","NA","44094.8536805","44861.9499382","45629.1053885","46396.4357119","47163.8811151","47930.8995514","48698.6328042","49465.9487051","49469.4975491","Mapping"
"Blocked","Female","ball","5","F_romp.wav","space","532.396009075","442","43328.1254977","50215.7207991","50983.046315","NA","NA","NA","NA","NA","44094.8536805","44861.9499382","45629.1053885","46396.4357119","47163.8811151","47930.8995514","48698.6328042","49465.9487051","50218.514263","Mapping"
"Blocked","Female","ball","5","F_ball.wav","None","741.626969655","442","43328.1254977","50215.7207991","50983.046315","51750.1347606","NA","NA","NA","NA","44094.8536805","44861.9499382","45629.1053885","46396.4357119","47163.8811151","47930.8995514","48698.6328042","49465.9487051","50985.971685","Mapping"
"Blocked","Female","ball","5","F_jaw.wav","space","395.106735756","442","43328.1254977","50215.7207991","50983.046315","51750.1347606","52517.444652","NA","NA","NA","44094.8536805","44861.9499382","45629.1053885","46396.4357119","47163.8811151","47930.8995514","48698.6328042","49465.9487051","51752.8738396","Mapping"
"Blocked","Female","ball","5","F_ball.wav","None","740.526951151","442","43328.1254977","50215.7207991","50983.046315","51750.1347606","52517.444652","53284.5895858","NA","NA","44094.8536805","44861.9499382","45629.1053885","46396.4357119","47163.8811151","47930.8995514","48698.6328042","49465.9487051","52520.1377593","Mapping"
"Blocked","Female","ball","5","F_lash.wav","space","233.502878225","442","43328.1254977","50215.7207991","50983.046315","51750.1347606","52517.444652","53284.5895858","54052.1647919","NA","44094.8536805","44861.9499382","45629.1053885","46396.4357119","47163.8811151","47930.8995514","48698.6328042","49465.9487051","53287.4124958","Mapping"
"Blocked","Female","ball","5","F_lash.wav","None","737.720266683","442","43328.1254977","50215.7207991","50983.046315","51750.1347606","52517.444652","53284.5895858","54052.1647919","54819.4278101","44094.8536805","44861.9499382","45629.1053885","46396.4357119","47163.8811151","47930.8995514","48698.6328042","49465.9487051","54056.4900488","Mapping"
"Blocked","Female","tile","13","F_greet.wav","None","738.722031587","442","57972.2029755","50215.7207991","50983.046315","51750.1347606","52517.444652","53284.5895858","54052.1647919","54819.4278101","44094.8536805","44861.9499382","45629.1053885","46396.4357119","47163.8811151","47930.8995514","48698.6328042","49465.9487051","54822.399152","Mapping"
"Blocked","Female","tile","13","F_tile.wav","None","728.045753087","442","57972.2029755","50215.7207991","50983.046315","51750.1347606","52517.444652","53284.5895858","54052.1647919","54819.4278101","58738.6039471","44861.9499382","45629.1053885","46396.4357119","47163.8811151","47930.8995514","48698.6328042","49465.9487051","57975.7352937","Mapping"
"Blocked","Female","tile","13","F_jaw.wav","space","527.989024413","442","57972.2029755","50215.7207991","50983.046315","51750.1347606","52517.444652","53284.5895858","54052.1647919","54819.4278101","58738.6039471","59506.0144959","45629.1053885","46396.4357119","47163.8811151","47930.8995514","48698.6328042","49465.9487051","58741.9274391","Mapping"
"Blocked","Female","tile","13","F_gnash.wav","space","126.88161456","442","57972.2029755","50215.7207991","50983.046315","51750.1347606","52517.444652","53284.5895858","54052.1647919","54819.4278101","58738.6039471","59506.0144959","60273.2008945","46396.4357119","47163.8811151","47930.8995514","48698.6328042","49465.9487051","59509.0372179","Mapping"
"Blocked","Female","tile","13","F_tile.wav","None","727.58723679","442","57972.2029755","50215.7207991","50983.046315","51750.1347606","52517.444652","53284.5895858","54052.1647919","54819.4278101","58738.6039471","59506.0144959","60273.2008945","61040.1829738","47163.8811151","47930.8995514","48698.6328042","49465.9487051","60276.4150156","Mapping"
"Blocked","Female","tile","13","F_romp.wav","space","452.882493031","442","57972.2029755","50215.7207991","50983.046315","51750.1347606","52517.444652","53284.5895858","54052.1647919","54819.4278101","58738.6039471","59506.0144959","60273.2008945","61040.1829738","61807.628978","47930.8995514","48698.6328042","49465.9487051","61043.0620717","Mapping"
"Blocked","Female","tile","13","F_depth.wav","None","727.582429303","442","57972.2029755","50215.7207991","50983.046315","51750.1347606","52517.444652","53284.5895858","54052.1647919","54819.4278101","58738.6039471","59506.0144959","60273.2008945","61040.1829738","61807.628978","62574.845724","48698.6328042","49465.9487051","61810.5795875","Mapping"
"Blocked","Female","tile","13","F_tile.wav","None","727.245302638","442","57972.2029755","50215.7207991","50983.046315","51750.1347606","52517.444652","53284.5895858","54052.1647919","54819.4278101","58738.6039471","59506.0144959","60273.2008945","61040.1829738","61807.628978","62574.845724","63341.9960663","49465.9487051","62577.6343804","Mapping"
"Blocked","Female","tile","13","F_romp.wav","space","353.720381972","442","57972.2029755","50215.7207991","50983.046315","51750.1347606","52517.444652","53284.5895858","54052.1647919","54819.4278101","58738.6039471","59506.0144959","60273.2008945","61040.1829738","61807.628978","62574.845724","63341.9960663","64109.7151971","63345.2098869","Mapping"
"Blocked","Female","tile","13","F_romp.wav","None","725.006505148","442","57972.2029755","64877.1810322","50983.046315","51750.1347606","52517.444652","53284.5895858","54052.1647919","54819.4278101","58738.6039471","59506.0144959","60273.2008945","61040.1829738","61807.628978","62574.845724","63341.9960663","64109.7151971","64113.8899189","Mapping"
"Blocked","Female","tile","13","F_depth.wav","None","725.284138811","442","57972.2029755","64877.1810322","65626.7770511","51750.1347606","52517.444652","53284.5895858","54052.1647919","54819.4278101","58738.6039471","59506.0144959","60273.2008945","61040.1829738","61807.628978","62574.845724","63341.9960663","64109.7151971","64880.6857073","Mapping"
"Blocked","Female","tile","13","F_jolt.wav","None","743.055701605","442","57972.2029755","64877.1810322","65626.7770511","66394.133215","52517.444652","53284.5895858","54052.1647919","54819.4278101","58738.6039471","59506.0144959","60273.2008945","61040.1829738","61807.628978","62574.845724","63341.9960663","64109.7151971","65629.6215949","Mapping"
"Blocked","Female","tile","13","F_tile.wav","None","742.636546842","442","57972.2029755","64877.1810322","65626.7770511","66394.133215","67161.3163084","53284.5895858","54052.1647919","54819.4278101","58738.6039471","59506.0144959","60273.2008945","61040.1829738","61807.628978","62574.845724","63341.9960663","64109.7151971","66396.9624348","Mapping"
"Blocked","Female","tile","13","F_reek.wav","space","508.85663589","442","57972.2029755","64877.1810322","65626.7770511","66394.133215","67161.3163084","67928.497599","54052.1647919","54819.4278101","58738.6039471","59506.0144959","60273.2008945","61040.1829738","61807.628978","62574.845724","63341.9960663","64109.7151971","67164.0604953","Mapping"
"Blocked","Female","tile","13","F_greet.wav","None","741.426556604","442","57972.2029755","64877.1810322","65626.7770511","66394.133215","67161.3163084","67928.497599","68695.7789459","54819.4278101","58738.6039471","59506.0144959","60273.2008945","61040.1829738","61807.628978","62574.845724","63341.9960663","64109.7151971","67931.5341427","Mapping"
"Blocked","Female","tile","13","F_knife.wav","None","741.467420477","442","57972.2029755","64877.1810322","65626.7770511","66394.133215","67161.3163084","67928.497599","68695.7789459","69462.8836168","58738.6039471","59506.0144959","60273.2008945","61040.1829738","61807.628978","62574.845724","63341.9960663","64109.7151971","68698.6424192","Mapping"
"Blocked","Female","ball","2","F_dime.wav","None","741.636885097","442","72599.4310313","64877.1810322","65626.7770511","66394.133215","67161.3163084","67928.497599","68695.7789459","69462.8836168","58738.6039471","59506.0144959","60273.2008945","61040.1829738","61807.628978","62574.845724","63341.9960663","64109.7151971","69465.6440292","Mapping"
"Blocked","Female","ball","2","F_ball.wav","None","728.800231707","442","72599.4310313","64877.1810322","65626.7770511","66394.133215","67161.3163084","67928.497599","68695.7789459","69462.8836168","73365.9035146","59506.0144959","60273.2008945","61040.1829738","61807.628978","62574.845724","63341.9960663","64109.7151971","72603.0087203","Mapping"
"Blocked","Female","ball","2","F_cling.wav","None","730.062804068","442","72599.4310313","64877.1810322","65626.7770511","66394.133215","67161.3163084","67928.497599","68695.7789459","69462.8836168","73365.9035146","74133.2783074","60273.2008945","61040.1829738","61807.628978","62574.845724","63341.9960663","64109.7151971","73368.7793071","Mapping"
"Blocked","Female","ball","2","F_cad.wav","space","114.318087697","442","72599.4310313","64877.1810322","65626.7770511","66394.133215","67161.3163084","67928.497599","68695.7789459","69462.8836168","73365.9035146","74133.2783074","74901.1981518","61040.1829738","61807.628978","62574.845724","63341.9960663","64109.7151971","74136.620729","Mapping"
"Blocked","Female","ball","2","F_jaw.wav","None","728.677640203","442","72599.4310313","64877.1810322","65626.7770511","66394.133215","67161.3163084","67928.497599","68695.7789459","69462.8836168","73365.9035146","74133.2783074","74901.1981518","75668.2463345","61807.628978","62574.845724","63341.9960663","64109.7151971","74904.3560851","Mapping"
"Blocked","Female","ball","2","F_reek.wav","None","728.125377442","442","72599.4310313","64877.1810322","65626.7770511","66394.133215","67161.3163084","67928.497599","68695.7789459","69462.8836168","73365.9035146","74133.2783074","74901.1981518","75668.2463345","76435.0171839","62574.845724","63341.9960663","64109.7151971","75672.0202301","Mapping"
"Blocked","Female","ball","2","F_bluff.wav","None","728.609734215","442","72599.4310313","64877.1810322","65626.7770511","66394.133215","67161.3163084","67928.497599","68695.7789459","69462.8836168","73365.9035146","74133.2783074","74901.1981518","75668.2463345","76435.0171839","77202.0052727","63341.9960663","64109.7151971","76438.3328636","Mapping"
"Blocked","Female","ball","2","F_knife.wav","None","728.473621537","442","72599.4310313","64877.1810322","65626.7770511","66394.133215","67161.3163084","67928.497599","68695.7789459","69462.8836168","73365.9035146","74133.2783074","74901.1981518","75668.2463345","76435.0171839","77202.0052727","77969.4182252","64109.7151971","77205.4531589","Mapping"
"Blocked","Female","ball","2","F_ball.wav","None","728.305058205","442","72599.4310313","64877.1810322","65626.7770511","66394.133215","67161.3163084","67928.497599","68695.7789459","69462.8836168","73365.9035146","74133.2783074","74901.1981518","75668.2463345","76435.0171839","77202.0052727","77969.4182252","78736.4534877","77972.2549567","Mapping"
"Blocked","Female","ball","2","F_park.wav","space","428.528847755","442","72599.4310313","79503.6951726","65626.7770511","66394.133215","67161.3163084","67928.497599","68695.7789459","69462.8836168","73365.9035146","74133.2783074","74901.1981518","75668.2463345","76435.0171839","77202.0052727","77969.4182252","78736.4534877","78739.4179187","Mapping"
"Blocked","Female","ball","2","F_ball.wav","None","727.231480996","442","72599.4310313","79503.6951726","80270.9963506","66394.133215","67161.3163084","67928.497599","68695.7789459","69462.8836168","73365.9035146","74133.2783074","74901.1981518","75668.2463345","76435.0171839","77202.0052727","77969.4182252","78736.4534877","79507.2440166","Mapping"
"Blocked","Female","ball","2","F_jaw.wav","space","439.651924302","442","72599.4310313","79503.6951726","80270.9963506","81038.3158571","67161.3163084","67928.497599","68695.7789459","69462.8836168","73365.9035146","74133.2783074","74901.1981518","75668.2463345","76435.0171839","77202.0052727","77969.4182252","78736.4534877","80274.2651571","Mapping"
"Blocked","Female","ball","2","F_depth.wav","None","727.276250953","442","72599.4310313","79503.6951726","80270.9963506","81038.3158571","81805.4881336","67928.497599","68695.7789459","69462.8836168","73365.9035146","74133.2783074","74901.1981518","75668.2463345","76435.0171839","77202.0052727","77969.4182252","78736.4534877","81041.2355182","Mapping"
"Blocked","Female","ball","2","F_ball.wav","None","727.041584323","442","72599.4310313","79503.6951726","80270.9963506","81038.3158571","81805.4881336","82572.7523537","68695.7789459","69462.8836168","73365.9035146","74133.2783074","74901.1981518","75668.2463345","76435.0171839","77202.0052727","77969.4182252","78736.4534877","81808.5739543","Mapping"
"Blocked","Female","ball","2","F_jaw.wav","space","456.784088048","442","72599.4310313","79503.6951726","80270.9963506","81038.3158571","81805.4881336","82572.7523537","83339.7563675","69462.8836168","73365.9035146","74133.2783074","74901.1981518","75668.2463345","76435.0171839","77202.0052727","77969.4182252","78736.4534877","82576.1167096","Mapping"
"Blocked","Female","ball","2","F_bluff.wav","None","726.035011932","442","72599.4310313","79503.6951726","80270.9963506","81038.3158571","81805.4881336","82572.7523537","83339.7563675","84107.1116298","73365.9035146","74133.2783074","74901.1981518","75668.2463345","76435.0171839","77202.0052727","77969.4182252","78736.4534877","83343.4704696","Mapping"
"Blocked","Female","tile","16","F_cad.wav","None","726.037115091","442","87226.7828803","79503.6951726","80270.9963506","81038.3158571","81805.4881336","82572.7523537","83339.7563675","84107.1116298","73365.9035146","74133.2783074","74901.1981518","75668.2463345","76435.0171839","77202.0052727","77969.4182252","78736.4534877","84110.6427462","Mapping"
"Blocked","Female","tile","16","F_tile.wav","None","727.755199187","442","87226.7828803","79503.6951726","80270.9963506","81038.3158571","81805.4881336","82572.7523537","83339.7563675","84107.1116298","87993.8848469","74133.2783074","74901.1981518","75668.2463345","76435.0171839","77202.0052727","77969.4182252","78736.4534877","87231.0585597","Mapping"
"Blocked","Female","tile","16","F_depth.wav","space","452.010530862","442","87226.7828803","79503.6951726","80270.9963506","81038.3158571","81805.4881336","82572.7523537","83339.7563675","84107.1116298","87993.8848469","88761.174006","74901.1981518","75668.2463345","76435.0171839","77202.0052727","77969.4182252","78736.4534877","87997.9318692","Mapping"
"Blocked","Female","tile","16","F_gnash.wav","None","728.02682349","442","87226.7828803","79503.6951726","80270.9963506","81038.3158571","81805.4881336","82572.7523537","83339.7563675","84107.1116298","87993.8848469","88761.174006","89527.5100763","75668.2463345","76435.0171839","77202.0052727","77969.4182252","78736.4534877","88764.660653","Mapping"
"Blocked","Female","tile","16","F_romp.wav","None","729.099499295","442","87226.7828803","79503.6951726","80270.9963506","81038.3158571","81805.4881336","82572.7523537","83339.7563675","84107.1116298","87993.8848469","88761.174006","89527.5100763","90295.0311978","76435.0171839","77202.0052727","77969.4182252","78736.4534877","89530.7972115","Mapping"
"Blocked","Female","tile","16","F_jaw.wav","None","728.719705832","442","87226.7828803","79503.6951726","80270.9963506","81038.3158571","81805.4881336","82572.7523537","83339.7563675","84107.1116298","87993.8848469","88761.174006","89527.5100763","90295.0311978","91062.010573","77202.0052727","77969.4182252","78736.4534877","90298.4355161","Mapping"
"Blocked","Female","tile","16","F_jolt.wav","None","729.400870041","442","87226.7828803","79503.6951726","80270.9963506","81038.3158571","81805.4881336","82572.7523537","83339.7563675","84107.1116298","87993.8848469","88761.174006","89527.5100763","90295.0311978","91062.010573","91829.5187743","77969.4182252","78736.4534877","91065.1459711","Mapping"
"Blocked","Female","tile","16","F_cling.wav","None","729.531574179","442","87226.7828803","79503.6951726","80270.9963506","81038.3158571","81805.4881336","82572.7523537","83339.7563675","84107.1116298","87993.8848469","88761.174006","89527.5100763","90295.0311978","91062.010573","91829.5187743","92596.458187","78736.4534877","91832.3975715","Mapping"
"Blocked","Female","tile","16","F_tile.wav","None","729.641846498","442","87226.7828803","79503.6951726","80270.9963506","81038.3158571","81805.4881336","82572.7523537","83339.7563675","84107.1116298","87993.8848469","88761.174006","89527.5100763","90295.0311978","91062.010573","91829.5187743","92596.458187","93363.8356841","92599.4151063","Mapping"
"Blocked","Female","tile","16","F_bluff.wav","space","466.163540725","442","87226.7828803","94131.8090121","80270.9963506","81038.3158571","81805.4881336","82572.7523537","83339.7563675","84107.1116298","87993.8848469","88761.174006","89527.5100763","90295.0311978","91062.010573","91829.5187743","92596.458187","93363.8356841","93366.7373171","Mapping"
"Blocked","Female","tile","16","F_tile.wav","None","728.087518248","442","87226.7828803","94131.8090121","94898.7258896","81038.3158571","81805.4881336","82572.7523537","83339.7563675","84107.1116298","87993.8848469","88761.174006","89527.5100763","90295.0311978","91062.010573","91829.5187743","92596.458187","93363.8356841","94135.1487294","Mapping"
"Blocked","Female","tile","16","F_bluff.wav","space","562.783380272","442","87226.7828803","94131.8090121","94898.7258896","95665.4612836","81805.4881336","82572.7523537","83339.7563675","84107.1116298","87993.8848469","88761.174006","89527.5100763","90295.0311978","91062.010573","91829.5187743","92596.458187","93363.8356841","94902.133513","Mapping"
"Blocked","Female","tile","16","F_priest.wav","None","728.289433755","442","87226.7828803","94131.8090121","94898.7258896","95665.4612836","96432.6527902","82572.7523537","83339.7563675","84107.1116298","87993.8848469","88761.174006","89527.5100763","90295.0311978","91062.010573","91829.5187743","92596.458187","93363.8356841","95668.7517239","Mapping"
"Blocked","Female","tile","16","F_tile.wav","None","728.364250623","442","87226.7828803","94131.8090121","94898.7258896","95665.4612836","96432.6527902","97199.9149071","83339.7563675","84107.1116298","87993.8848469","88761.174006","89527.5100763","90295.0311978","91062.010573","91829.5187743","92596.458187","93363.8356841","96435.9333151","Mapping"
"Blocked","Female","tile","16","F_cad.wav","space","485.067272093","442","87226.7828803","94131.8090121","94898.7258896","95665.4612836","96432.6527902","97199.9149071","97967.0090616","84107.1116298","87993.8848469","88761.174006","89527.5100763","90295.0311978","91062.010573","91829.5187743","92596.458187","93363.8356841","97202.8324649","Mapping"
"Blocked","Female","tile","16","F_park.wav","None","727.871781331","442","87226.7828803","94131.8090121","94898.7258896","95665.4612836","96432.6527902","97199.9149071","97967.0090616","98734.3324743","87993.8848469","88761.174006","89527.5100763","90295.0311978","91062.010573","91829.5187743","92596.458187","93363.8356841","97970.0561217","Mapping"
"Blocked","Female","cave","8","F_greet.wav","None","727.913546609","442","101870.561692","94131.8090121","94898.7258896","95665.4612836","96432.6527902","97199.9149071","97967.0090616","98734.3324743","87993.8848469","88761.174006","89527.5100763","90295.0311978","91062.010573","91829.5187743","92596.458187","93363.8356841","98737.2978067","Mapping"
"Blocked","Female","cave","8","F_greet.wav","None","727.988062892","442","101870.561692","94131.8090121","94898.7258896","95665.4612836","96432.6527902","97199.9149071","97967.0090616","98734.3324743","102637.771527","88761.174006","89527.5100763","90295.0311978","91062.010573","91829.5187743","92596.458187","93363.8356841","101874.210291","Mapping"
"Blocked","Female","cave","8","F_bluff.wav","None","727.448119549","442","101870.561692","94131.8090121","94898.7258896","95665.4612836","96432.6527902","97199.9149071","97967.0090616","98734.3324743","102637.771527","103404.923972","89527.5100763","90295.0311978","91062.010573","91829.5187743","92596.458187","93363.8356841","102641.639169","Mapping"
"Blocked","Female","cave","8","F_cave.wav","None","727.880494902","442","101870.561692","94131.8090121","94898.7258896","95665.4612836","96432.6527902","97199.9149071","97967.0090616","98734.3324743","102637.771527","103404.923972","104172.215235","90295.0311978","91062.010573","91829.5187743","92596.458187","93363.8356841","103408.633868","Mapping"
"Blocked","Female","cave","8","F_greet.wav","space","353.18674834","442","101870.561692","94131.8090121","94898.7258896","95665.4612836","96432.6527902","97199.9149071","97967.0090616","98734.3324743","102637.771527","103404.923972","104172.215235","104939.410647","91062.010573","91829.5187743","92596.458187","93363.8356841","104175.75236","Mapping"
"Blocked","Female","cave","8","F_jolt.wav","None","727.899724967","442","101870.561692","94131.8090121","94898.7258896","95665.4612836","96432.6527902","97199.9149071","97967.0090616","98734.3324743","102637.771527","103404.923972","104172.215235","104939.410647","105706.175187","91829.5187743","92596.458187","93363.8356841","104942.839304","Mapping"
"Blocked","Female","cave","8","F_cave.wav","None","728.833884234","442","101870.561692","94131.8090121","94898.7258896","95665.4612836","96432.6527902","97199.9149071","97967.0090616","98734.3324743","102637.771527","103404.923972","104172.215235","104939.410647","105706.175187","106473.350769","92596.458187","93363.8356841","105709.156144","Mapping"
"Blocked","Female","cave","8","F_cad.wav","space","378.70230875","442","101870.561692","94131.8090121","94898.7258896","95665.4612836","96432.6527902","97199.9149071","97967.0090616","98734.3324743","102637.771527","103404.923972","104172.215235","104939.410647","105706.175187","106473.350769","107240.572923","93363.8356841","106476.197416","Mapping"
"Blocked","Female","cave","8","F_cave.wav","None","728.209208348","442","101870.561692","94131.8090121","94898.7258896","95665.4612836","96432.6527902","97199.9149071","97967.0090616","98734.3324743","102637.771527","103404.923972","104172.215235","104939.410647","105706.175187","106473.350769","107240.572923","108007.658664","107243.857354","Mapping"
"Blocked","Female","cave","8","F_depth.wav","space","598.423557356","442","101870.561692","108775.5731","94898.7258896","95665.4612836","96432.6527902","97199.9149071","97967.0090616","98734.3324743","102637.771527","103404.923972","104172.215235","104939.410647","105706.175187","106473.350769","107240.572923","108007.658664","108010.505612","Mapping"
"Blocked","Female","cave","8","F_cave.wav","None","727.01334022","442","101870.561692","108775.5731","109542.020945","95665.4612836","96432.6527902","97199.9149071","97967.0090616","98734.3324743","102637.771527","103404.923972","104172.215235","104939.410647","105706.175187","106473.350769","107240.572923","108007.658664","108779.087691","Mapping"
"Blocked","Female","cave","8","F_dime.wav","space","603.356964304","442","101870.561692","108775.5731","109542.020945","110309.752395","96432.6527902","97199.9149071","97967.0090616","98734.3324743","102637.771527","103404.923972","104172.215235","104939.410647","105706.175187","106473.350769","107240.572923","108007.658664","109545.561977","Mapping"
"Blocked","Female","cave","8","F_reek.wav","None","726.986898924","442","101870.561692","108775.5731","109542.020945","110309.752395","111076.671677","97199.9149071","97967.0090616","98734.3324743","102637.771527","103404.923972","104172.215235","104939.410647","105706.175187","106473.350769","107240.572923","108007.658664","110313.370948","Mapping"
"Blocked","Female","cave","8","F_knife.wav","None","728.349227109","442","101870.561692","108775.5731","109542.020945","110309.752395","111076.671677","111843.750207","97967.0090616","98734.3324743","102637.771527","103404.923972","104172.215235","104939.410647","105706.175187","106473.350769","107240.572923","108007.658664","111079.43299","Mapping"
"Blocked","Female","cave","8","F_gnash.wav","None","728.287630947","442","101870.561692","108775.5731","109542.020945","110309.752395","111076.671677","111843.750207","112611.001206","98734.3324743","102637.771527","103404.923972","104172.215235","104939.410647","105706.175187","106473.350769","107240.572923","108007.658664","111846.828816","Mapping"
"Blocked","Female","cave","8","F_jaw.wav","None","728.020814131","442","101870.561692","108775.5731","109542.020945","110309.752395","111076.671677","111843.750207","112611.001206","113378.347755","102637.771527","103404.923972","104172.215235","104939.410647","105706.175187","106473.350769","107240.572923","108007.658664","112614.1339","Mapping"
"Blocked","Female","cave","10","F_park.wav","None","728.116964339","442","116514.674324","108775.5731","109542.020945","110309.752395","111076.671677","111843.750207","112611.001206","113378.347755","102637.771527","103404.923972","104172.215235","104939.410647","105706.175187","106473.350769","107240.572923","108007.658664","113381.428167","Mapping"
"Blocked","Female","cave","10","F_cad.wav","None","728.684250615","442","116514.674324","108775.5731","109542.020945","110309.752395","111076.671677","111843.750207","112611.001206","113378.347755","117281.203596","103404.923972","104172.215235","104939.410647","105706.175187","106473.350769","107240.572923","108007.658664","116518.434398","Mapping"
"Blocked","Female","cave","10","F_cave.wav","None","730.487968307","442","116514.674324","108775.5731","109542.020945","110309.752395","111076.671677","111843.750207","112611.001206","113378.347755","117281.203596","118048.336211","104172.215235","104939.410647","105706.175187","106473.350769","107240.572923","108007.658664","117284.233229","Mapping"
"Blocked","Female","cave","10","F_jolt.wav","space","412.484082626","442","116514.674324","108775.5731","109542.020945","110309.752395","111076.671677","111843.750207","112611.001206","113378.347755","117281.203596","118048.336211","118816.137971","104939.410647","105706.175187","106473.350769","107240.572923","108007.658664","118051.413017","Mapping"
"Blocked","Female","cave","10","F_cad.wav","None","729.095893563","442","116514.674324","108775.5731","109542.020945","110309.752395","111076.671677","111843.750207","112611.001206","113378.347755","117281.203596","118048.336211","118816.137971","119583.511862","105706.175187","106473.350769","107240.572923","108007.658664","118819.584956","Mapping"
"Blocked","Female","cave","10","F_lash.wav","None","728.775593219","442","116514.674324","108775.5731","109542.020945","110309.752395","111076.671677","111843.750207","112611.001206","113378.347755","117281.203596","118048.336211","118816.137971","119583.511862","120349.76951","106473.350769","107240.572923","108007.658664","119587.385213","Mapping"
"Blocked","Female","cave","10","F_cave.wav","None","732.268249383","442","116514.674324","108775.5731","109542.020945","110309.752395","111076.671677","111843.750207","112611.001206","113378.347755","117281.203596","118048.336211","118816.137971","119583.511862","120349.76951","121117.268397","107240.572923","108007.658664","120352.610749","Mapping"
"Blocked","Female","cave","10","F_priest.wav","space","629.271548009","442","116514.674324","108775.5731","109542.020945","110309.752395","111076.671677","111843.750207","112611.001206","113378.347755","117281.203596","118048.336211","118816.137971","119583.511862","120349.76951","121117.268397","121884.229143","108007.658664","121120.662799","Mapping"
"Blocked","Female","cave","10","F_knife.wav","None","732.017657952","442","116514.674324","108775.5731","109542.020945","110309.752395","111076.671677","111843.750207","112611.001206","113378.347755","117281.203596","118048.336211","118816.137971","119583.511862","120349.76951","121117.268397","121884.229143","122651.436274","121887.019302","Mapping"
"Blocked","Female","cave","10","F_cave.wav","None","732.016756549","442","116514.674324","123418.547555","109542.020945","110309.752395","111076.671677","111843.750207","112611.001206","113378.347755","117281.203596","118048.336211","118816.137971","119583.511862","120349.76951","121117.268397","121884.229143","122651.436274","122654.280517","Mapping"
"Blocked","Female","cave","10","F_cad.wav","space","387.667714502","442","116514.674324","123418.547555","124186.341202","110309.752395","111076.671677","111843.750207","112611.001206","113378.347755","117281.203596","118048.336211","118816.137971","119583.511862","120349.76951","121117.268397","121884.229143","122651.436274","123421.224136","Mapping"
"Blocked","Female","cave","10","F_dime.wav","None","732.938596746","442","116514.674324","123418.547555","124186.341202","124953.387282","111076.671677","111843.750207","112611.001206","113378.347755","117281.203596","118048.336211","118816.137971","119583.511862","120349.76951","121117.268397","121884.229143","122651.436274","124189.410497","Mapping"
"Blocked","Female","cave","10","F_jolt.wav","None","733.017019113","442","116514.674324","123418.547555","124186.341202","124953.387282","125720.244967","111843.750207","112611.001206","113378.347755","117281.203596","118048.336211","118816.137971","119583.511862","120349.76951","121117.268397","121884.229143","122651.436274","124956.608314","Mapping"
"Blocked","Female","cave","10","F_gnash.wav","None","733.828286524","442","116514.674324","123418.547555","124186.341202","124953.387282","125720.244967","126487.470426","112611.001206","113378.347755","117281.203596","118048.336211","118816.137971","119583.511862","120349.76951","121117.268397","121884.229143","122651.436274","125722.821191","Mapping"
"Blocked","Female","cave","10","F_cave.wav","None","733.797939145","442","116514.674324","123418.547555","124186.341202","124953.387282","125720.244967","126487.470426","127254.760787","113378.347755","117281.203596","118048.336211","118816.137971","119583.511862","120349.76951","121117.268397","121884.229143","122651.436274","126490.229637","Mapping"
"Blocked","Female","cave","10","F_dime.wav","space","452.39873731","442","116514.674324","123418.547555","124186.341202","124953.387282","125720.244967","126487.470426","127254.760787","128022.394585","117281.203596","118048.336211","118816.137971","119583.511862","120349.76951","121117.268397","121884.229143","122651.436274","127257.50888","Mapping"
"Blocked","Female","ball","1","F_priest.wav","None","732.299197814","442","131158.622901","123418.547555","124186.341202","124953.387282","125720.244967","126487.470426","127254.760787","128022.394585","117281.203596","118048.336211","118816.137971","119583.511862","120349.76951","121117.268397","121884.229143","122651.436274","128025.595485","Mapping"
"Blocked","Female","ball","1","F_priest.wav","None","727.584232111","442","131158.622901","123418.547555","124186.341202","124953.387282","125720.244967","126487.470426","127254.760787","128022.394585","131925.022069","118048.336211","118816.137971","119583.511862","120349.76951","121117.268397","121884.229143","122651.436274","131162.340308","Mapping"
"Blocked","Female","ball","1","F_ball.wav","None","729.63703901","442","131158.622901","123418.547555","124186.341202","124953.387282","125720.244967","126487.470426","127254.760787","128022.394585","131925.022069","132692.243623","118816.137971","119583.511862","120349.76951","121117.268397","121884.229143","122651.436274","131927.651477","Mapping"
"Blocked","Female","ball","1","F_greet.wav","space","647.73479139","442","131158.622901","123418.547555","124186.341202","124953.387282","125720.244967","126487.470426","127254.760787","128022.394585","131925.022069","132692.243623","133459.490716","119583.511862","120349.76951","121117.268397","121884.229143","122651.436274","132695.186721","Mapping"
"Blocked","Female","ball","1","F_priest.wav","None","728.589302162","442","131158.622901","123418.547555","124186.341202","124953.387282","125720.244967","126487.470426","127254.760787","128022.394585","131925.022069","132692.243623","133459.490716","134226.596589","120349.76951","121117.268397","121884.229143","122651.436274","133462.694622","Mapping"
"Blocked","Female","ball","1","F_ball.wav","None","729.215180036","442","131158.622901","123418.547555","124186.341202","124953.387282","125720.244967","126487.470426","127254.760787","128022.394585","131925.022069","132692.243623","133459.490716","134226.596589","134993.801617","121117.268397","121884.229143","122651.436274","134229.570635","Mapping"
"Blocked","Female","ball","1","F_cling.wav","space","548.16253949","442","131158.622901","123418.547555","124186.341202","124953.387282","125720.244967","126487.470426","127254.760787","128022.394585","131925.022069","132692.243623","133459.490716","134226.596589","134993.801617","135760.905987","121884.229143","122651.436274","134996.739607","Mapping"
"Blocked","Female","ball","1","F_ball.wav","None","728.926729294","442","131158.622901","123418.547555","124186.341202","124953.387282","125720.244967","126487.470426","127254.760787","128022.394585","131925.022069","132692.243623","133459.490716","134226.596589","134993.801617","135760.905987","136528.446639","122651.436274","135763.87162","Mapping"
"Blocked","Female","ball","1","F_cling.wav","space","461.677232175","442","131158.622901","123418.547555","124186.341202","124953.387282","125720.244967","126487.470426","127254.760787","128022.394585","131925.022069","132692.243623","133459.490716","134226.596589","134993.801617","135760.905987","136528.446639","137295.70485","136531.281869","Mapping"
"Blocked","Female","ball","1","F_greet.wav","None","728.778898367","442","131158.622901","138062.703455","124186.341202","124953.387282","125720.244967","126487.470426","127254.760787","128022.394585","131925.022069","132692.243623","133459.490716","134226.596589","134993.801617","135760.905987","136528.446639","137295.70485","137298.379929","Mapping"
"Blocked","Female","ball","1","F_ball.wav","None","728.762372513","442","131158.622901","138062.703455","138830.110398","124953.387282","125720.244967","126487.470426","127254.760787","128022.394585","131925.022069","132692.243623","133459.490716","134226.596589","134993.801617","135760.905987","136528.446639","137295.70485","138065.82383","Mapping"
"Blocked","Female","ball","1","F_depth.wav","space","465.768122929","442","131158.622901","138062.703455","138830.110398","139597.570525","125720.244967","126487.470426","127254.760787","128022.394585","131925.022069","132692.243623","133459.490716","134226.596589","134993.801617","135760.905987","136528.446639","137295.70485","138833.137327","Mapping"
"Blocked","Female","ball","1","F_dime.wav","None","715.922714444","442","131158.622901","138062.703455","138830.110398","139597.570525","140365.003609","126487.470426","127254.760787","128022.394585","131925.022069","132692.243623","133459.490716","134226.596589","134993.801617","135760.905987","136528.446639","137295.70485","139612.927816","Mapping"
"Blocked","Female","ball","1","F_depth.wav","None","727.121208794","442","131158.622901","138062.703455","138830.110398","139597.570525","140365.003609","141132.34535","127254.760787","128022.394585","131925.022069","132692.243623","133459.490716","134226.596589","134993.801617","135760.905987","136528.446639","137295.70485","140369.157598","Mapping"
"Blocked","Female","ball","1","F_knife.wav","None","727.861264837","442","131158.622901","138062.703455","138830.110398","139597.570525","140365.003609","141132.34535","141899.4368","128022.394585","131925.022069","132692.243623","133459.490716","134226.596589","134993.801617","135760.905987","136528.446639","137295.70485","141135.779715","Mapping"
"Blocked","Female","ball","1","F_cling.wav","None","728.044851683","442","131158.622901","138062.703455","138830.110398","139597.570525","140365.003609","141132.34535","141899.4368","142666.053208","131925.022069","132692.243623","133459.490716","134226.596589","134993.801617","135760.905987","136528.446639","137295.70485","141903.058057","Mapping"
"Blocked","Female","ball","6","F_romp.wav","None","729.60158356","442","145802.344623","138062.703455","138830.110398","139597.570525","140365.003609","141132.34535","141899.4368","142666.053208","131925.022069","132692.243623","133459.490716","134226.596589","134993.801617","135760.905987","136528.446639","137295.70485","142668.957245","Mapping"
"Blocked","Female","ball","6","F_reek.wav","None","728.697471204","442","145802.344623","138062.703455","138830.110398","139597.570525","140365.003609","141132.34535","141899.4368","142666.053208","146569.54935","132692.243623","133459.490716","134226.596589","134993.801617","135760.905987","136528.446639","137295.70485","145806.38864","Mapping"
"Blocked","Female","ball","6","F_reek.wav","None","729.550503776","442","145802.344623","138062.703455","138830.110398","139597.570525","140365.003609","141132.34535","141899.4368","142666.053208","146569.54935","147336.830697","133459.490716","134226.596589","134993.801617","135760.905987","136528.446639","137295.70485","146572.957274","Mapping"
"Blocked","Female","ball","6","F_priest.wav","None","729.260550812","442","145802.344623","138062.703455","138830.110398","139597.570525","140365.003609","141132.34535","141899.4368","142666.053208","146569.54935","147336.830697","148103.913734","134226.596589","134993.801617","135760.905987","136528.446639","137295.70485","147340.494621","Mapping"
"Blocked","Female","ball","6","F_ball.wav","None","729.557414539","442","145802.344623","138062.703455","138830.110398","139597.570525","140365.003609","141132.34535","141899.4368","142666.053208","146569.54935","147336.830697","148103.913734","148871.154518","134993.801617","135760.905987","136528.446639","137295.70485","148107.72008","Mapping"
"Blocked","Female","ball","6","F_knife.wav","space","487.150125904","442","145802.344623","138062.703455","138830.110398","139597.570525","140365.003609","141132.34535","141899.4368","142666.053208","146569.54935","147336.830697","148103.913734","148871.154518","149638.379677","135760.905987","136528.446639","137295.70485","148874.753841","Mapping"
"Blocked","Female","ball","6","F_ball.wav","space","0.0345540465787","442","145802.344623","138062.703455","138830.110398","139597.570525","140365.003609","141132.34535","141899.4368","142666.053208","146569.54935","147336.830697","148103.913734","148871.154518","149638.379677","150404.969343","136528.446639","137295.70485","149642.091976","Mapping"
"Blocked","Female","ball","6","F_depth.wav","space","463.764593122","442","145802.344623","138062.703455","138830.110398","139597.570525","140365.003609","141132.34535","141899.4368","142666.053208","146569.54935","147336.830697","148103.913734","148871.154518","149638.379677","150404.969343","151172.35946","137295.70485","150408.12938","Mapping"
"Blocked","Female","ball","6","F_jaw.wav","None","728.921320871","442","145802.344623","138062.703455","138830.110398","139597.570525","140365.003609","141132.34535","141899.4368","142666.053208","146569.54935","147336.830697","148103.913734","148871.154518","149638.379677","150404.969343","151172.35946","151939.494779","151175.364454","Mapping"
"Blocked","Female","ball","6","F_ball.wav","None","729.447142337","442","145802.344623","152706.722642","138830.110398","139597.570525","140365.003609","141132.34535","141899.4368","142666.053208","146569.54935","147336.830697","148103.913734","148871.154518","149638.379677","150404.969343","151172.35946","151939.494779","151942.586308","Mapping"
"Blocked","Female","ball","6","F_jaw.wav","space","544.98567665","442","145802.344623","152706.722642","153474.026825","139597.570525","140365.003609","141132.34535","141899.4368","142666.053208","146569.54935","147336.830697","148103.913734","148871.154518","149638.379677","150404.969343","151172.35946","151939.494779","152709.90912","Mapping"
"Blocked","Female","ball","6","F_ball.wav","None","729.415292619","442","145802.344623","152706.722642","153474.026825","154241.043458","140365.003609","141132.34535","141899.4368","142666.053208","146569.54935","147336.830697","148103.913734","148871.154518","149638.379677","150404.969343","151172.35946","151939.494779","153477.01319","Mapping"
"Blocked","Female","ball","6","F_park.wav","space","502.656449913","442","145802.344623","152706.722642","153474.026825","154241.043458","155008.322101","141132.34535","141899.4368","142666.053208","146569.54935","147336.830697","148103.913734","148871.154518","149638.379677","150404.969343","151172.35946","151939.494779","154244.234143","Mapping"
"Blocked","Female","ball","6","F_greet.wav","None","729.165602592","442","145802.344623","152706.722642","153474.026825","154241.043458","155008.322101","155775.633495","141899.4368","142666.053208","146569.54935","147336.830697","148103.913734","148871.154518","149638.379677","150404.969343","151172.35946","151939.494779","155011.114964","Mapping"
"Blocked","Female","ball","6","F_bluff.wav","None","729.408982676","442","145802.344623","152706.722642","153474.026825","154241.043458","155008.322101","155775.633495","156542.867668","142666.053208","146569.54935","147336.830697","148103.913734","148871.154518","149638.379677","150404.969343","151172.35946","151939.494779","155778.41524","Mapping"
"Blocked","Female","ball","6","F_park.wav","None","729.829339427","442","145802.344623","152706.722642","153474.026825","154241.043458","155008.322101","155775.633495","156542.867668","157310.187174","146569.54935","147336.830697","148103.913734","148871.154518","149638.379677","150404.969343","151172.35946","151939.494779","156545.750672","Mapping"
"Blocked","Female","cave","7","F_jolt.wav","None","729.871104704","442","160446.150777","152706.722642","153474.026825","154241.043458","155008.322101","155775.633495","156542.867668","157310.187174","146569.54935","147336.830697","148103.913734","148871.154518","149638.379677","150404.969343","151172.35946","151939.494779","157313.098723","Mapping"
"Blocked","Female","cave","7","F_priest.wav","None","728.499762365","442","160446.150777","152706.722642","153474.026825","154241.043458","155008.322101","155775.633495","156542.867668","157310.187174","161213.602189","147336.830697","148103.913734","148871.154518","149638.379677","150404.969343","151172.35946","151939.494779","160449.732672","Mapping"
"Blocked","Female","cave","7","F_cave.wav","None","728.372964193","442","160446.150777","152706.722642","153474.026825","154241.043458","155008.322101","155775.633495","156542.867668","157310.187174","161213.602189","161979.732138","148103.913734","148871.154518","149638.379677","150404.969343","151172.35946","151939.494779","161217.490564","Mapping"
"Blocked","Female","cave","7","F_jolt.wav","space","396.40296076","442","160446.150777","152706.722642","153474.026825","154241.043458","155008.322101","155775.633495","156542.867668","157310.187174","161213.602189","161979.732138","162747.878836","148871.154518","149638.379677","150404.969343","151172.35946","151939.494779","161982.472118","Mapping"
"Blocked","Female","cave","7","F_cling.wav","None","728.496757685","442","160446.150777","152706.722642","153474.026825","154241.043458","155008.322101","155775.633495","156542.867668","157310.187174","161213.602189","161979.732138","162747.878836","163515.313423","149638.379677","150404.969343","151172.35946","151939.494779","162751.524131","Mapping"
"Blocked","Female","cave","7","F_bluff.wav","None","728.848907864","442","160446.150777","152706.722642","153474.026825","154241.043458","155008.322101","155775.633495","156542.867668","157310.187174","161213.602189","161979.732138","162747.878836","163515.313423","164281.472817","150404.969343","151172.35946","151939.494779","163519.111656","Mapping"
"Blocked","Female","cave","7","F_reek.wav","None","731.079592486","442","160446.150777","152706.722642","153474.026825","154241.043458","155008.322101","155775.633495","156542.867668","157310.187174","161213.602189","161979.732138","162747.878836","163515.313423","164281.472817","165048.78391","151172.35946","151939.494779","164284.330281","Mapping"
"Blocked","Female","cave","7","F_dime.wav","None","730.958503438","442","160446.150777","152706.722642","153474.026825","154241.043458","155008.322101","155775.633495","156542.867668","157310.187174","161213.602189","161979.732138","162747.878836","163515.313423","164281.472817","165048.78391","165815.98353","151939.494779","165051.845393","Mapping"
"Blocked","Female","cave","7","F_cave.wav","None","731.15050327","442","160446.150777","152706.722642","153474.026825","154241.043458","155008.322101","155775.633495","156542.867668","157310.187174","161213.602189","161979.732138","162747.878836","163515.313423","164281.472817","165048.78391","165815.98353","166583.227618","165818.784505","Mapping"
"Blocked","Female","cave","7","F_bluff.wav","None","731.405902305","442","160446.150777","167350.39058","153474.026825","154241.043458","155008.322101","155775.633495","156542.867668","157310.187174","161213.602189","161979.732138","162747.878836","163515.313423","164281.472817","165048.78391","165815.98353","166583.227618","166586.101007","Mapping"
"Blocked","Female","cave","7","F_cave.wav","space","48.4846426407","442","160446.150777","167350.39058","168117.722707","154241.043458","155008.322101","155775.633495","156542.867668","157310.187174","161213.602189","161979.732138","162747.878836","163515.313423","164281.472817","165048.78391","165815.98353","166583.227618","167353.438542","Mapping"
"Blocked","Female","cave","7","F_priest.wav","space","601.635875646","442","160446.150777","167350.39058","168117.722707","168885.499227","155008.322101","155775.633495","156542.867668","157310.187174","161213.602189","161979.732138","162747.878836","163515.313423","164281.472817","165048.78391","165815.98353","166583.227618","168120.306743","Mapping"
"Blocked","Female","cave","7","F_cave.wav","None","729.463067139","442","160446.150777","167350.39058","168117.722707","168885.499227","169652.41971","155775.633495","156542.867668","157310.187174","161213.602189","161979.732138","162747.878836","163515.313423","164281.472817","165048.78391","165815.98353","166583.227618","168889.364165","Mapping"
"Blocked","Female","cave","7","F_cling.wav","space","585.270209122","442","160446.150777","167350.39058","168117.722707","168885.499227","169652.41971","170419.804118","156542.867668","157310.187174","161213.602189","161979.732138","162747.878836","163515.313423","164281.472817","165048.78391","165815.98353","166583.227618","169655.62692","Mapping"
"Blocked","Female","cave","7","F_romp.wav","None","729.121433455","442","160446.150777","167350.39058","168117.722707","168885.499227","169652.41971","170419.804118","171186.784395","157310.187174","161213.602189","161979.732138","162747.878836","163515.313423","164281.472817","165048.78391","165815.98353","166583.227618","170424.065375","Mapping"
"Blocked","Female","cave","7","F_bluff.wav","None","731.452174601","442","160446.150777","167350.39058","168117.722707","168885.499227","169652.41971","170419.804118","171186.784395","171953.674831","161213.602189","161979.732138","162747.878836","163515.313423","164281.472817","165048.78391","165815.98353","166583.227618","171189.676713","Mapping"
"Blocked","Female","tile","15","F_jolt.wav","None","732.555197668","442","175090.322602","167350.39058","168117.722707","168885.499227","169652.41971","170419.804118","171186.784395","171953.674831","161213.602189","161979.732138","162747.878836","163515.313423","164281.472817","165048.78391","165815.98353","166583.227618","171956.338793","Mapping"
"Blocked","Female","tile","15","F_tile.wav","None","728.265095735","442","175090.322602","167350.39058","168117.722707","168885.499227","169652.41971","170419.804118","171186.784395","171953.674831","175856.908362","161979.732138","162747.878836","163515.313423","164281.472817","165048.78391","165815.98353","166583.227618","175093.600423","Mapping"
"Blocked","Female","tile","15","F_reek.wav","space","581.976163201","442","175090.322602","167350.39058","168117.722707","168885.499227","169652.41971","170419.804118","171186.784395","171953.674831","175856.908362","176624.152752","162747.878836","163515.313423","164281.472817","165048.78391","165815.98353","166583.227618","175859.919366","Mapping"
"Blocked","Female","tile","15","F_dime.wav","None","728.74825052","442","175090.322602","167350.39058","168117.722707","168885.499227","169652.41971","170419.804118","171186.784395","171953.674831","175856.908362","176624.152752","177391.212953","163515.313423","164281.472817","165048.78391","165815.98353","166583.227618","176627.10276","Mapping"
"Blocked","Female","tile","15","F_tile.wav","None","729.451348889","442","175090.322602","167350.39058","168117.722707","168885.499227","169652.41971","170419.804118","171186.784395","171953.674831","175856.908362","176624.152752","177391.212953","178158.390638","164281.472817","165048.78391","165815.98353","166583.227618","177394.189703","Mapping"
"Blocked","Female","tile","15","F_dime.wav","None","729.608193971","442","175090.322602","167350.39058","168117.722707","168885.499227","169652.41971","170419.804118","171186.784395","171953.674831","175856.908362","176624.152752","177391.212953","178158.390638","178925.60498","165048.78391","165815.98353","166583.227618","178161.455125","Mapping"
"Blocked","Female","tile","15","F_jolt.wav","space","31.1436526245","442","175090.322602","167350.39058","168117.722707","168885.499227","169652.41971","170419.804118","171186.784395","171953.674831","175856.908362","176624.152752","177391.212953","178158.390638","178925.60498","179692.94582","165815.98353","166583.227618","178928.774632","Mapping"
"Blocked","Female","tile","15","F_cling.wav","None","729.427611805","442","175090.322602","167350.39058","168117.722707","168885.499227","169652.41971","170419.804118","171186.784395","171953.674831","175856.908362","176624.152752","177391.212953","178158.390638","178925.60498","179692.94582","180460.06251","166583.227618","179696.074908","Mapping"
"Blocked","Female","tile","15","F_gnash.wav","None","729.852175107","442","175090.322602","167350.39058","168117.722707","168885.499227","169652.41971","170419.804118","171186.784395","171953.674831","175856.908362","176624.152752","177391.212953","178158.390638","178925.60498","179692.94582","180460.06251","181227.441509","180463.426866","Mapping"
"Blocked","Female","tile","15","F_bluff.wav","None","730.843123165","442","175090.322602","181994.775138","168117.722707","168885.499227","169652.41971","170419.804118","171186.784395","171953.674831","175856.908362","176624.152752","177391.212953","178158.390638","178925.60498","179692.94582","180460.06251","181227.441509","181230.485865","Mapping"
"Blocked","Female","tile","15","F_tile.wav","None","730.93536729","442","175090.322602","181994.775138","182761.585048","168885.499227","169652.41971","170419.804118","171186.784395","171953.674831","175856.908362","176624.152752","177391.212953","178158.390638","178925.60498","179692.94582","180460.06251","181227.441509","181997.995268","Mapping"
"Blocked","Female","tile","15","F_greet.wav","space","352.443086682","442","175090.322602","181994.775138","182761.585048","183529.705005","169652.41971","170419.804118","171186.784395","171953.674831","175856.908362","176624.152752","177391.212953","178158.390638","178925.60498","179692.94582","180460.06251","181227.441509","182764.433798","Mapping"
"Blocked","Female","tile","15","F_tile.wav","None","729.190240963","442","175090.322602","181994.775138","182761.585048","183529.705005","184296.287761","170419.804118","171186.784395","171953.674831","175856.908362","176624.152752","177391.212953","178158.390638","178925.60498","179692.94582","180460.06251","181227.441509","183533.621624","Mapping"
"Blocked","Female","tile","15","F_greet.wav","space","422.70905606","442","175090.322602","181994.775138","182761.585048","183529.705005","184296.287761","185063.249108","171186.784395","171953.674831","175856.908362","176624.152752","177391.212953","178158.390638","178925.60498","179692.94582","180460.06251","181227.441509","184299.195704","Mapping"
"Blocked","Female","tile","15","F_knife.wav","None","731.114146532","442","175090.322602","181994.775138","182761.585048","183529.705005","184296.287761","185063.249108","185830.39284","171953.674831","175856.908362","176624.152752","177391.212953","178158.390638","178925.60498","179692.94582","180460.06251","181227.441509","185066.06721","Mapping"
"Blocked","Female","tile","15","F_park.wav","None","730.327517726","442","175090.322602","181994.775138","182761.585048","183529.705005","184296.287761","185063.249108","185830.39284","186597.658262","175856.908362","176624.152752","177391.212953","178158.390638","178925.60498","179692.94582","180460.06251","181227.441509","185834.748444","Mapping"
"Blocked","Female","tile","14","F_cling.wav","None","731.983104022","442","189734.03561","181994.775138","182761.585048","183529.705005","184296.287761","185063.249108","185830.39284","186597.658262","175856.908362","176624.152752","177391.212953","178158.390638","178925.60498","179692.94582","180460.06251","181227.441509","186600.525641","Mapping"
"Blocked","Female","tile","14","F_tile.wav","None","728.854917106","442","189734.03561","181994.775138","182761.585048","183529.705005","184296.287761","185063.249108","185830.39284","186597.658262","190500.490366","176624.152752","177391.212953","178158.390638","178925.60498","179692.94582","180460.06251","181227.441509","189737.740699","Mapping"
"Blocked","Female","tile","14","F_lash.wav","space","349.591031088","442","189734.03561","181994.775138","182761.585048","183529.705005","184296.287761","185063.249108","185830.39284","186597.658262","190500.490366","191268.405703","177391.212953","178158.390638","178925.60498","179692.94582","180460.06251","181227.441509","190503.319586","Mapping"
"Blocked","Female","tile","14","F_jolt.wav","None","729.009658913","442","189734.03561","181994.775138","182761.585048","183529.705005","184296.287761","185063.249108","185830.39284","186597.658262","190500.490366","191268.405703","192034.939182","178158.390638","178925.60498","179692.94582","180460.06251","181227.441509","191272.214754","Mapping"
"Blocked","Female","tile","14","F_greet.wav","None","731.504456257","442","189734.03561","181994.775138","182761.585048","183529.705005","184296.287761","185063.249108","185830.39284","186597.658262","190500.490366","191268.405703","192034.939182","192802.513787","178925.60498","179692.94582","180460.06251","181227.441509","192037.526825","Mapping"
"Blocked","Female","tile","14","F_tile.wav","None","730.847029132","442","189734.03561","181994.775138","182761.585048","183529.705005","184296.287761","185063.249108","185830.39284","186597.658262","190500.490366","191268.405703","192034.939182","192802.513787","193569.405425","179692.94582","180460.06251","181227.441509","192805.614932","Mapping"
"Blocked","Female","tile","14","F_lash.wav","space","436.655342928","442","189734.03561","181994.775138","182761.585048","183529.705005","184296.287761","185063.249108","185830.39284","186597.658262","190500.490366","191268.405703","192034.939182","192802.513787","193569.405425","194336.568988","180460.06251","181227.441509","193572.209105","Mapping"
"Blocked","Female","tile","14","F_tile.wav","None","731.379761361","442","189734.03561","181994.775138","182761.585048","183529.705005","184296.287761","185063.249108","185830.39284","186597.658262","190500.490366","191268.405703","192034.939182","192802.513787","193569.405425","194336.568988","195103.780025","181227.441509","194339.441776","Mapping"
"Blocked","Female","tile","14","F_cling.wav","space","488.503139582","442","189734.03561","181994.775138","182761.585048","183529.705005","184296.287761","185063.249108","185830.39284","186597.658262","190500.490366","191268.405703","192034.939182","192802.513787","193569.405425","194336.568988","195103.780025","195871.915907","195106.40763","Mapping"
"Blocked","Female","tile","14","F_jolt.wav","None","729.394259746","442","189734.03561","196638.583395","182761.585048","183529.705005","184296.287761","185063.249108","185830.39284","186597.658262","190500.490366","191268.405703","192034.939182","192802.513787","193569.405425","194336.568988","195103.780025","195871.915907","195875.671174","Mapping"
"Blocked","Female","tile","14","F_greet.wav","None","730.962109054","442","189734.03561","196638.583395","197405.53032","183529.705005","184296.287761","185063.249108","185830.39284","186597.658262","190500.490366","191268.405703","192034.939182","192802.513787","193569.405425","194336.568988","195103.780025","195871.915907","196641.922211","Mapping"
"Blocked","Female","tile","14","F_park.wav","None","731.855103979","442","189734.03561","196638.583395","197405.53032","198172.681563","184296.287761","185063.249108","185830.39284","186597.658262","190500.490366","191268.405703","192034.939182","192802.513787","193569.405425","194336.568988","195103.780025","195871.915907","197408.310863","Mapping"
"Blocked","Female","tile","14","F_depth.wav","None","732.392343227","442","189734.03561","196638.583395","197405.53032","198172.681563","198939.845727","185063.249108","185830.39284","186597.658262","190500.490366","191268.405703","192034.939182","192802.513787","193569.405425","194336.568988","195103.780025","195871.915907","198175.473825","Mapping"
"Blocked","Female","tile","14","F_tile.wav","None","732.48729168","442","189734.03561","196638.583395","197405.53032","198172.681563","198939.845727","199707.027018","185830.39284","186597.658262","190500.490366","191268.405703","192034.939182","192802.513787","193569.405425","194336.568988","195103.780025","195871.915907","198943.22751","Mapping"
"Blocked","Female","tile","14","F_knife.wav","space","564.860224607","442","189734.03561","196638.583395","197405.53032","198172.681563","198939.845727","199707.027018","200474.411125","186597.658262","190500.490366","191268.405703","192034.939182","192802.513787","193569.405425","194336.568988","195103.780025","195871.915907","199710.053345","Mapping"
"Blocked","Female","tile","14","F_bluff.wav","None","733.604737325","442","189734.03561","196638.583395","197405.53032","198172.681563","198939.845727","199707.027018","200474.411125","201241.565974","190500.490366","191268.405703","192034.939182","192802.513787","193569.405425","194336.568988","195103.780025","195871.915907","200476.98735","Mapping"
"Blocked","Female","tile","17","F_greet.wav","None","733.824380441","442","204377.903361","196638.583395","197405.53032","198172.681563","198939.845727","199707.027018","200474.411125","201241.565974","190500.490366","191268.405703","192034.939182","192802.513787","193569.405425","194336.568988","195103.780025","195871.915907","201244.13018","Mapping"
"Blocked","Female","tile","17","F_dime.wav","None","728.289433755","442","204377.903361","196638.583395","197405.53032","198172.681563","198939.845727","199707.027018","200474.411125","201241.565974","205144.587675","191268.405703","192034.939182","192802.513787","193569.405425","194336.568988","195103.780025","195871.915907","204381.674252","Mapping"
"Blocked","Female","tile","17","F_tile.wav","None","729.891536525","442","204377.903361","196638.583395","197405.53032","198172.681563","198939.845727","199707.027018","200474.411125","201241.565974","205144.587675","205912.041792","192034.939182","192802.513787","193569.405425","194336.568988","195103.780025","195871.915907","205147.912369","Mapping"
"Blocked","Female","tile","17","F_romp.wav","space","443.015679135","442","204377.903361","196638.583395","197405.53032","198172.681563","198939.845727","199707.027018","200474.411125","201241.565974","205144.587675","205912.041792","206679.229092","192802.513787","193569.405425","194336.568988","195103.780025","195871.915907","205914.893547","Mapping"
"Blocked","Female","tile","17","F_jolt.wav","None","729.813414626","442","204377.903361","196638.583395","197405.53032","198172.681563","198939.845727","199707.027018","200474.411125","201241.565974","205144.587675","205912.041792","206679.229092","207446.053124","193569.405425","194336.568988","195103.780025","195871.915907","206682.235889","Mapping"
"Blocked","Female","tile","17","F_bluff.wav","None","731.749338913","442","204377.903361","196638.583395","197405.53032","198172.681563","198939.845727","199707.027018","200474.411125","201241.565974","205144.587675","205912.041792","206679.229092","207446.053124","208213.296612","194336.568988","195103.780025","195871.915907","207448.628147","Mapping"
"Blocked","Female","tile","17","F_tile.wav","None","732.204549946","442","204377.903361","196638.583395","197405.53032","198172.681563","198939.845727","199707.027018","200474.411125","201241.565974","205144.587675","205912.041792","206679.229092","207446.053124","208213.296612","208980.497433","195103.780025","195871.915907","208216.001738","Mapping"
"Blocked","Female","tile","17","F_park.wav","space","448.812334682","442","204377.903361","196638.583395","197405.53032","198172.681563","198939.845727","199707.027018","200474.411125","201241.565974","205144.587675","205912.041792","206679.229092","207446.053124","208213.296612","208980.497433","209747.709973","195871.915907","208983.109414","Mapping"
"Blocked","Female","tile","17","F_tile.wav","None","732.452437282","442","204377.903361","196638.583395","197405.53032","198172.681563","198939.845727","199707.027018","200474.411125","201241.565974","205144.587675","205912.041792","206679.229092","207446.053124","208213.296612","208980.497433","209747.709973","210514.942944","209750.421709","Mapping"
"Blocked","Female","tile","17","F_cling.wav","space","650.294790627","442","204377.903361","211282.152178","197405.53032","198172.681563","198939.845727","199707.027018","200474.411125","201241.565974","205144.587675","205912.041792","206679.229092","207446.053124","208213.296612","208980.497433","209747.709973","210514.942944","210517.589779","Mapping"
"Blocked","Female","tile","17","F_park.wav","None","732.25502891","442","204377.903361","211282.152178","212049.770051","198172.681563","198939.845727","199707.027018","200474.411125","201241.565974","205144.587675","205912.041792","206679.229092","207446.053124","208213.296612","208980.497433","209747.709973","210514.942944","211285.312816","Mapping"
"Blocked","Female","tile","17","F_priest.wav","None","732.384831528","442","204377.903361","211282.152178","212049.770051","212817.023755","198939.845727","199707.027018","200474.411125","201241.565974","205144.587675","205912.041792","206679.229092","207446.053124","208213.296612","208980.497433","209747.709973","210514.942944","212053.165355","Mapping"
"Blocked","Female","tile","17","F_priest.wav","None","733.005601331","442","204377.903361","211282.152178","212049.770051","212817.023755","213583.910585","199707.027018","200474.411125","201241.565974","205144.587675","205912.041792","206679.229092","207446.053124","208213.296612","208980.497433","209747.709973","210514.942944","212820.224955","Mapping"
"Blocked","Female","tile","17","F_tile.wav","None","733.746258426","442","204377.903361","211282.152178","212049.770051","212817.023755","213583.910585","214351.029979","200474.411125","201241.565974","205144.587675","205912.041792","206679.229092","207446.053124","208213.296612","208980.497433","209747.709973","210514.942944","213587.06972","Mapping"
"Blocked","Female","tile","17","F_reek.wav","space","425.277768984","442","204377.903361","211282.152178","212049.770051","212817.023755","213583.910585","214351.029979","215118.305016","201241.565974","205144.587675","205912.041792","206679.229092","207446.053124","208213.296612","208980.497433","209747.709973","210514.942944","214353.616119","Mapping"
"Blocked","Female","tile","17","F_lash.wav","None","734.432830941","442","204377.903361","211282.152178","212049.770051","212817.023755","213583.910585","214351.029979","215118.305016","215885.516654","205144.587675","205912.041792","206679.229092","207446.053124","208213.296612","208980.497433","209747.709973","210514.942944","215121.282367","Mapping"
"Blocked","Female","cave","11","F_dime.wav","None","734.952643048","442","219022.162322","211282.152178","212049.770051","212817.023755","213583.910585","214351.029979","215118.305016","215885.516654","205144.587675","205912.041792","206679.229092","207446.053124","208213.296612","208980.497433","209747.709973","210514.942944","215888.643038","Mapping"
"Blocked","Female","cave","11","F_park.wav","None","729.162898264","442","219022.162322","211282.152178","212049.770051","212817.023755","213583.910585","214351.029979","215118.305016","215885.516654","219789.304552","205912.041792","206679.229092","207446.053124","208213.296612","208980.497433","209747.709973","210514.942944","219025.846077","Mapping"
"Blocked","Female","cave","11","F_cave.wav","None","729.622616433","442","219022.162322","211282.152178","212049.770051","212817.023755","213583.910585","214351.029979","215118.305016","215885.516654","219789.304552","220555.489486","206679.229092","207446.053124","208213.296612","208980.497433","209747.709973","210514.942944","219792.978691","Mapping"
"Blocked","Female","cave","11","F_priest.wav","None","732.2682495","442","219022.162322","211282.152178","212049.770051","212817.023755","213583.910585","214351.029979","215118.305016","215885.516654","219789.304552","220555.489486","221322.786757","207446.053124","208213.296612","208980.497433","209747.709973","210514.942944","220558.23187","Mapping"
"Blocked","Female","cave","11","F_jolt.wav","space","0.0303473789245","442","219022.162322","211282.152178","212049.770051","212817.023755","213583.910585","214351.029979","215118.305016","215885.516654","219789.304552","220555.489486","221322.786757","222090.054283","208213.296612","208980.497433","209747.709973","210514.942944","221325.475959","Mapping"
"Blocked","Female","cave","11","F_cave.wav","None","732.502615545","442","219022.162322","211282.152178","212049.770051","212817.023755","213583.910585","214351.029979","215118.305016","215885.516654","219789.304552","220555.489486","221322.786757","222090.054283","222857.656531","208980.497433","209747.709973","210514.942944","222092.738977","Mapping"
"Blocked","Female","cave","11","F_greet.wav","space","516.399919987","442","219022.162322","211282.152178","212049.770051","212817.023755","213583.910585","214351.029979","215118.305016","215885.516654","219789.304552","220555.489486","221322.786757","222090.054283","222857.656531","223624.865765","209747.709973","210514.942944","222860.470126","Mapping"
"Blocked","Female","cave","11","F_cave.wav","None","731.199479778","442","219022.162322","211282.152178","212049.770051","212817.023755","213583.910585","214351.029979","215118.305016","215885.516654","219789.304552","220555.489486","221322.786757","222090.054283","222857.656531","223624.865765","224391.629704","210514.942944","223628.219304","Mapping"
"Blocked","Female","cave","11","F_reek.wav","space","540.325396345","442","219022.162322","211282.152178","212049.770051","212817.023755","213583.910585","214351.029979","215118.305016","215885.516654","219789.304552","220555.489486","221322.786757","222090.054283","222857.656531","223624.865765","224391.629704","225158.934187","224394.568295","Mapping"
"Blocked","Female","cave","11","F_cling.wav","None","731.980399694","442","219022.162322","225926.605543","212049.770051","212817.023755","213583.910585","214351.029979","215118.305016","215885.516654","219789.304552","220555.489486","221322.786757","222090.054283","222857.656531","223624.865765","224391.629704","225158.934187","225161.819595","Mapping"
"Blocked","Female","cave","11","F_cave.wav","None","731.511667487","442","219022.162322","225926.605543","226693.73966","212817.023755","213583.910585","214351.029979","215118.305016","215885.516654","219789.304552","220555.489486","221322.786757","222090.054283","222857.656531","223624.865765","224391.629704","225158.934187","225930.270368","Mapping"
"Blocked","Female","cave","11","F_cad.wav","space","695.974551374","442","219022.162322","225926.605543","226693.73966","227460.551974","213583.910585","214351.029979","215118.305016","215885.516654","219789.304552","220555.489486","221322.786757","222090.054283","222857.656531","223624.865765","224391.629704","225158.934187","226696.932147","Mapping"
"Blocked","Female","cave","11","F_bluff.wav","None","733.218634152","442","219022.162322","225926.605543","226693.73966","227460.551974","228228.128683","214351.029979","215118.305016","215885.516654","219789.304552","220555.489486","221322.786757","222090.054283","222857.656531","223624.865765","224391.629704","225158.934187","227463.242978","Mapping"
"Blocked","Female","cave","11","F_romp.wav","None","733.367967536","442","219022.162322","225926.605543","226693.73966","227460.551974","228228.128683","228995.177466","215118.305016","215885.516654","219789.304552","220555.489486","221322.786757","222090.054283","222857.656531","223624.865765","224391.629704","225158.934187","228231.113846","Mapping"
"Blocked","Female","cave","11","F_cling.wav","None","734.065957833","442","219022.162322","225926.605543","226693.73966","227460.551974","228228.128683","228995.177466","229762.240672","215885.516654","219789.304552","220555.489486","221322.786757","222090.054283","222857.656531","223624.865765","224391.629704","225158.934187","228998.425841","Mapping"
"Blocked","Female","cave","11","F_bluff.wav","None","735.452924622","442","219022.162322","225926.605543","226693.73966","227460.551974","228228.128683","228995.177466","229762.240672","230529.365775","219789.304552","220555.489486","221322.786757","222090.054283","222857.656531","223624.865765","224391.629704","225158.934187","229764.984258","Mapping"
"Blocked","Female","done","24","F_knife.wav","None","735.667459667","442","233665.837471","225926.605543","226693.73966","227460.551974","228228.128683","228995.177466","229762.240672","230529.365775","219789.304552","220555.489486","221322.786757","222090.054283","222857.656531","223624.865765","224391.629704","225158.934187","230532.288441","Mapping"
"Blocked","Female","done","24","F_priest.wav","space","0.0354554504156","442","233665.837471","225926.605543","226693.73966","227460.551974","228228.128683","228995.177466","229762.240672","230529.365775","234432.354424","220555.489486","221322.786757","222090.054283","222857.656531","223624.865765","224391.629704","225158.934187","233669.669057","Mapping"
"Blocked","Female","done","24","F_cling.wav","None","730.079630506","442","233665.837471","225926.605543","226693.73966","227460.551974","228228.128683","228995.177466","229762.240672","230529.365775","234432.354424","235199.465104","221322.786757","222090.054283","222857.656531","223624.865765","224391.629704","225158.934187","234435.268677","Mapping"
"Blocked","Female","done","24","F_done.wav","None","731.375254458","442","233665.837471","225926.605543","226693.73966","227460.551974","228228.128683","228995.177466","229762.240672","230529.365775","234432.354424","235199.465104","235966.747954","222090.054283","222857.656531","223624.865765","224391.629704","225158.934187","235202.068371","Mapping"
"Blocked","Female","done","24","F_jaw.wav","space","414.476795704","442","233665.837471","225926.605543","226693.73966","227460.551974","228228.128683","228995.177466","229762.240672","230529.365775","234432.354424","235199.465104","235966.747954","236734.583366","222857.656531","223624.865765","224391.629704","225158.934187","235969.400197","Mapping"
"Blocked","Female","done","24","F_done.wav","None","729.929095251","442","233665.837471","225926.605543","226693.73966","227460.551974","228228.128683","228995.177466","229762.240672","230529.365775","234432.354424","235199.465104","235966.747954","236734.583366","237501.512563","223624.865765","224391.629704","225158.934187","236738.001806","Mapping"
"Blocked","Female","done","24","F_depth.wav","space","403.45738118","442","233665.837471","225926.605543","226693.73966","227460.551974","228228.128683","228995.177466","229762.240672","230529.365775","234432.354424","235199.465104","235966.747954","236734.583366","237501.512563","238268.613027","224391.629704","225158.934187","237504.446046","Mapping"
"Blocked","Female","done","24","F_done.wav","None","730.920343776","442","233665.837471","225926.605543","226693.73966","227460.551974","228228.128683","228995.177466","229762.240672","230529.365775","234432.354424","235199.465104","235966.747954","236734.583366","237501.512563","238268.613027","239035.632966","225158.934187","238271.307637","Mapping"
"Blocked","Female","done","24","F_reek.wav","space","289.359236951","442","233665.837471","225926.605543","226693.73966","227460.551974","228228.128683","228995.177466","229762.240672","230529.365775","234432.354424","235199.465104","235966.747954","236734.583366","237501.512563","238268.613027","239035.632966","239802.75867","239038.544514","Mapping"
"Blocked","Female","done","24","F_knife.wav","None","731.531498604","442","233665.837471","240569.99735","226693.73966","227460.551974","228228.128683","228995.177466","229762.240672","230529.365775","234432.354424","235199.465104","235966.747954","236734.583366","237501.512563","238268.613027","239035.632966","239802.75867","239805.487232","Mapping"
"Blocked","Female","done","24","F_greet.wav","None","732.099385699","442","233665.837471","240569.99735","241337.181645","227460.551974","228228.128683","228995.177466","229762.240672","230529.365775","234432.354424","235199.465104","235966.747954","236734.583366","237501.512563","238268.613027","239035.632966","239802.75867","240572.795922","Mapping"
"Blocked","Female","done","24","F_done.wav","None","733.198502683","442","233665.837471","240569.99735","241337.181645","242104.460588","228228.128683","228995.177466","229762.240672","230529.365775","234432.354424","235199.465104","235966.747954","236734.583366","237501.512563","238268.613027","239035.632966","239802.75867","241339.910508","Mapping"
"Blocked","Female","done","24","F_park.wav","space","316.345595056","442","233665.837471","240569.99735","241337.181645","242104.460588","242871.615438","228995.177466","229762.240672","230529.365775","234432.354424","235199.465104","235966.747954","236734.583366","237501.512563","238268.613027","239035.632966","239802.75867","242107.565639","Mapping"
"Blocked","Female","done","24","F_lash.wav","None","733.41363878","442","233665.837471","240569.99735","241337.181645","242104.460588","242871.615438","243638.956278","229762.240672","230529.365775","234432.354424","235199.465104","235966.747954","236734.583366","237501.512563","238268.613027","239035.632966","239802.75867","242874.258667","Mapping"
"Blocked","Female","done","24","F_romp.wav","None","733.676849981","442","233665.837471","240569.99735","241337.181645","242104.460588","242871.615438","243638.956278","244406.053737","230529.365775","234432.354424","235199.465104","235966.747954","236734.583366","237501.512563","238268.613027","239035.632966","239802.75867","243642.130436","Mapping"
"Blocked","Female","done","24","F_priest.wav","None","734.972474049","442","233665.837471","240569.99735","241337.181645","242104.460588","242871.615438","243638.956278","244406.053737","245173.375648","234432.354424","235199.465104","235966.747954","236734.583366","237501.512563","238268.613027","239035.632966","239802.75867","244408.899783","Mapping"
"Blocked","Female","cave","12","F_depth.wav","None","735.700210789","442","248309.929672","240569.99735","241337.181645","242104.460588","242871.615438","243638.956278","244406.053737","245173.375648","234432.354424","235199.465104","235966.747954","236734.583366","237501.512563","238268.613027","239035.632966","239802.75867","245176.294107","Mapping"
"Blocked","Female","cave","12","F_cave.wav","None","728.619349189","442","248309.929672","240569.99735","241337.181645","242104.460588","242871.615438","243638.956278","244406.053737","245173.375648","249076.545479","235199.465104","235966.747954","236734.583366","237501.512563","238268.613027","239035.632966","239802.75867","248313.868826","Mapping"
"Blocked","Female","cave","12","F_depth.wav","space","504.260956543","442","248309.929672","240569.99735","241337.181645","242104.460588","242871.615438","243638.956278","244406.053737","245173.375648","249076.545479","249844.099352","235966.747954","236734.583366","237501.512563","238268.613027","239035.632966","239802.75867","249079.611169","Mapping"
"Blocked","Female","cave","12","F_jaw.wav","None","729.400269105","442","248309.929672","240569.99735","241337.181645","242104.460588","242871.615438","243638.956278","244406.053737","245173.375648","249076.545479","249844.099352","250611.036962","236734.583366","237501.512563","238268.613027","239035.632966","239802.75867","249847.869341","Mapping"
"Blocked","Female","cave","12","F_reek.wav","None","731.465996243","442","248309.929672","240569.99735","241337.181645","242104.460588","242871.615438","243638.956278","244406.053737","245173.375648","249076.545479","249844.099352","250611.036962","251377.884732","237501.512563","238268.613027","239035.632966","239802.75867","250613.996585","Mapping"
"Blocked","Female","cave","12","F_knife.wav","None","732.597864349","442","248309.929672","240569.99735","241337.181645","242104.460588","242871.615438","243638.956278","244406.053737","245173.375648","249076.545479","249844.099352","250611.036962","251377.884732","252145.029665","238268.613027","239035.632966","239802.75867","251380.592862","Mapping"
"Blocked","Female","cave","12","F_cad.wav","None","733.295854763","442","248309.929672","240569.99735","241337.181645","242104.460588","242871.615438","243638.956278","244406.053737","245173.375648","249076.545479","249844.099352","250611.036962","251377.884732","252145.029665","252912.310411","239035.632966","239802.75867","252148.151542","Mapping"
"Blocked","Female","cave","12","F_cave.wav","None","734.534990508","442","248309.929672","240569.99735","241337.181645","242104.460588","242871.615438","243638.956278","244406.053737","245173.375648","249076.545479","249844.099352","250611.036962","251377.884732","252145.029665","252912.310411","253679.531664","239802.75867","252915.146842","Mapping"
"Blocked","Female","cave","12","F_depth.wav","space","604.552832432","442","248309.929672","240569.99735","241337.181645","242104.460588","242871.615438","243638.956278","244406.053737","245173.375648","249076.545479","249844.099352","250611.036962","251377.884732","252145.029665","252912.310411","253679.531664","254447.088842","253682.320321","Mapping"
"Blocked","Female","cave","12","F_cave.wav","None","733.689469751","442","248309.929672","255214.277945","241337.181645","242104.460588","242871.615438","243638.956278","244406.053737","245173.375648","249076.545479","249844.099352","250611.036962","251377.884732","252145.029665","252912.310411","253679.531664","254447.088842","254450.777705","Mapping"
"Blocked","Female","cave","12","F_dime.wav","space","613.516134908","442","248309.929672","255214.277945","255981.145245","242104.460588","242871.615438","243638.956278","244406.053737","245173.375648","249076.545479","249844.099352","250611.036962","251377.884732","252145.029665","252912.310411","253679.531664","254447.088842","255217.383296","Mapping"
"Blocked","Female","cave","12","F_cave.wav","None","734.602896729","442","248309.929672","255214.277945","255981.145245","256748.417277","242871.615438","243638.956278","244406.053737","245173.375648","249076.545479","249844.099352","250611.036962","251377.884732","252145.029665","252912.310411","253679.531664","254447.088842","255984.364775","Mapping"
"Blocked","Female","cave","12","F_greet.wav","space","535.198487109","442","248309.929672","255214.277945","255981.145245","256748.417277","257515.601873","243638.956278","244406.053737","245173.375648","249076.545479","249844.099352","250611.036962","251377.884732","252145.029665","252912.310411","253679.531664","254447.088842","256751.687286","Mapping"
"Blocked","Female","cave","12","F_cad.wav","None","735.236887005","442","248309.929672","255214.277945","255981.145245","256748.417277","257515.601873","258282.781361","244406.053737","245173.375648","249076.545479","249844.099352","250611.036962","251377.884732","252145.029665","252912.310411","253679.531664","254447.088842","257518.568107","Mapping"
"Blocked","Female","cave","12","F_jaw.wav","None","736.287628533","442","248309.929672","255214.277945","255981.145245","256748.417277","257515.601873","258282.781361","259050.016135","245173.375648","249076.545479","249844.099352","250611.036962","251377.884732","252145.029665","252912.310411","253679.531664","254447.088842","258285.557999","Mapping"
"Blocked","Female","cave","12","F_knife.wav","None","737.408078974","442","248309.929672","255214.277945","255981.145245","256748.417277","257515.601873","258282.781361","259050.016135","259817.347961","249076.545479","249844.099352","250611.036962","251377.884732","252145.029665","252912.310411","253679.531664","254447.088842","259052.527759","Mapping"
"Blocked","Female","done","20","F_park.wav","None","737.83564684","442","262953.787507","255214.277945","255981.145245","256748.417277","257515.601873","258282.781361","259050.016135","259817.347961","249076.545479","249844.099352","250611.036962","251377.884732","252145.029665","252912.310411","253679.531664","254447.088842","259820.224054","Mapping"
"Blocked","Female","done","20","F_park.wav","None","728.386785835","442","262953.787507","255214.277945","255981.145245","256748.417277","257515.601873","258282.781361","259050.016135","259817.347961","263720.38138","249844.099352","250611.036962","251377.884732","252145.029665","252912.310411","253679.531664","254447.088842","262957.223675","Mapping"
"Blocked","Female","done","20","F_dime.wav","None","730.580813251","442","262953.787507","255214.277945","255981.145245","256748.417277","257515.601873","258282.781361","259050.016135","259817.347961","263720.38138","264487.384192","250611.036962","251377.884732","252145.029665","252912.310411","253679.531664","254447.088842","263723.268891","Mapping"
"Blocked","Female","done","20","F_park.wav","None","731.499648769","442","262953.787507","255214.277945","255981.145245","256748.417277","257515.601873","258282.781361","259050.016135","259817.347961","263720.38138","264487.384192","265254.514402","251377.884732","252145.029665","252912.310411","253679.531664","254447.088842","264490.226031","Mapping"
"Blocked","Female","done","20","F_reek.wav","None","732.464155415","442","262953.787507","255214.277945","255981.145245","256748.417277","257515.601873","258282.781361","259050.016135","259817.347961","263720.38138","264487.384192","265254.514402","266021.773214","252145.029665","252912.310411","253679.531664","254447.088842","265257.267003","Mapping"
"Blocked","Female","done","20","F_done.wav","None","733.410333632","442","262953.787507","255214.277945","255981.145245","256748.417277","257515.601873","258282.781361","259050.016135","259817.347961","263720.38138","264487.384192","265254.514402","266021.773214","266788.950599","252912.310411","253679.531664","254447.088842","266024.417345","Mapping"
"Blocked","Female","done","20","F_dime.wav","space","697.902663611","442","262953.787507","255214.277945","255981.145245","256748.417277","257515.601873","258282.781361","259050.016135","259817.347961","263720.38138","264487.384192","265254.514402","266021.773214","266788.950599","267556.242462","253679.531664","254447.088842","266791.99856","Mapping"
"Blocked","Female","done","20","F_priest.wav","None","733.173563844","442","262953.787507","255214.277945","255981.145245","256748.417277","257515.601873","258282.781361","259050.016135","259817.347961","263720.38138","264487.384192","265254.514402","266021.773214","266788.950599","267556.242462","268323.470626","254447.088842","267559.125766","Mapping"
"Blocked","Female","done","20","F_romp.wav","None","734.50404231","442","262953.787507","255214.277945","255981.145245","256748.417277","257515.601873","258282.781361","259050.016135","259817.347961","263720.38138","264487.384192","265254.514402","266021.773214","266788.950599","267556.242462","268323.470626","269090.586715","268326.075095","Mapping"
"Blocked","Female","done","20","F_done.wav","None","735.574614606","442","262953.787507","269857.887592","255981.145245","256748.417277","257515.601873","258282.781361","259050.016135","259817.347961","263720.38138","264487.384192","265254.514402","266021.773214","266788.950599","267556.242462","268323.470626","269090.586715","269093.199897","Mapping"
"Blocked","Female","done","20","F_priest.wav","space","621.059719473","442","262953.787507","269857.887592","270625.268695","256748.417277","257515.601873","258282.781361","259050.016135","259817.347961","263720.38138","264487.384192","265254.514402","266021.773214","266788.950599","267556.242462","268323.470626","269090.586715","269860.832493","Mapping"
"Blocked","Female","done","20","F_done.wav","None","734.513056232","442","262953.787507","269857.887592","270625.268695","271392.255582","257515.601873","258282.781361","259050.016135","259817.347961","263720.38138","264487.384192","265254.514402","266021.773214","266788.950599","267556.242462","268323.470626","269090.586715","270628.426328","Mapping"
"Blocked","Female","done","20","F_cling.wav","space","496.266667848","442","262953.787507","269857.887592","270625.268695","271392.255582","272159.528215","258282.781361","259050.016135","259817.347961","263720.38138","264487.384192","265254.514402","266021.773214","266788.950599","267556.242462","268323.470626","269090.586715","271395.58298","Mapping"
"Blocked","Female","done","20","F_done.wav","None","734.759741696","442","262953.787507","269857.887592","270625.268695","271392.255582","272159.528215","272926.772003","259050.016135","259817.347961","263720.38138","264487.384192","265254.514402","266021.773214","266788.950599","267556.242462","268323.470626","269090.586715","272162.806336","Mapping"
"Blocked","Female","done","20","F_park.wav","space","344.044065685","442","262953.787507","269857.887592","270625.268695","271392.255582","272159.528215","272926.772003","273694.010984","259817.347961","263720.38138","264487.384192","265254.514402","266021.773214","266788.950599","267556.242462","268323.470626","269090.586715","272929.830481","Mapping"
"Blocked","Female","done","20","F_park.wav","None","735.307196854","442","262953.787507","269857.887592","270625.268695","271392.255582","272159.528215","272926.772003","273694.010984","274461.21511","263720.38138","264487.384192","265254.514402","266021.773214","266788.950599","267556.242462","268323.470626","269090.586715","273697.178833","Mapping"
"Blocked","Female","done","21","F_cling.wav","None","736.317675444","442","277597.731576","269857.887592","270625.268695","271392.255582","272159.528215","272926.772003","273694.010984","274461.21511","263720.38138","264487.384192","265254.514402","266021.773214","266788.950599","267556.242462","268323.470626","269090.586715","274464.418715","Mapping"
"Blocked","Female","done","21","F_priest.wav","None","727.640119381","442","277597.731576","269857.887592","270625.268695","271392.255582","272159.528215","272926.772003","273694.010984","274461.21511","278364.219384","264487.384192","265254.514402","266021.773214","266788.950599","267556.242462","268323.470626","269090.586715","277601.816758","Mapping"
"Blocked","Female","done","21","F_priest.wav","None","730.009020073","442","277597.731576","269857.887592","270625.268695","271392.255582","272159.528215","272926.772003","273694.010984","274461.21511","278364.219384","279131.246834","265254.514402","266021.773214","266788.950599","267556.242462","268323.470626","269090.586715","278367.784453","Mapping"
"Blocked","Female","done","21","F_romp.wav","None","731.523686321","442","277597.731576","269857.887592","270625.268695","271392.255582","272159.528215","272926.772003","273694.010984","274461.21511","278364.219384","279131.246834","279898.421514","266021.773214","266788.950599","267556.242462","268323.470626","269090.586715","279134.363302","Mapping"
"Blocked","Female","done","21","F_done.wav","None","732.407667208","442","277597.731576","269857.887592","270625.268695","271392.255582","272159.528215","272926.772003","273694.010984","274461.21511","278364.219384","279131.246834","279898.421514","280665.706467","266788.950599","267556.242462","268323.470626","269090.586715","279901.708349","Mapping"
"Blocked","Female","done","21","F_jaw.wav","space","481.923460844","442","277597.731576","269857.887592","270625.268695","271392.255582","272159.528215","272926.772003","273694.010984","274461.21511","278364.219384","279131.246834","279898.421514","280665.706467","281433.226987","267556.242462","268323.470626","269090.586715","280668.906766","Mapping"
"Blocked","Female","done","21","F_done.wav","None","731.984005426","442","277597.731576","269857.887592","270625.268695","271392.255582","272159.528215","272926.772003","273694.010984","274461.21511","278364.219384","279131.246834","279898.421514","280665.706467","281433.226987","282200.504128","268323.470626","269090.586715","281436.866273","Mapping"
"Blocked","Female","done","21","F_priest.wav","space","410.6881771","442","277597.731576","269857.887592","270625.268695","271392.255582","272159.528215","272926.772003","273694.010984","274461.21511","278364.219384","279131.246834","279898.421514","280665.706467","281433.226987","282200.504128","282967.849775","269090.586715","282204.210418","Mapping"
"Blocked","Female","done","21","F_jolt.wav","None","732.022465556","442","277597.731576","269857.887592","270625.268695","271392.255582","272159.528215","272926.772003","273694.010984","274461.21511","278364.219384","279131.246834","279898.421514","280665.706467","281433.226987","282200.504128","282967.849775","283735.016643","282971.459614","Mapping"
"Blocked","Female","done","21","F_jolt.wav","None","732.916662353","442","277597.731576","284502.102985","270625.268695","271392.255582","272159.528215","272926.772003","273694.010984","274461.21511","278364.219384","279131.246834","279898.421514","280665.706467","281433.226987","282200.504128","282967.849775","283735.016643","283738.707008","Mapping"
"Blocked","Female","done","21","F_priest.wav","None","734.721582034","442","277597.731576","284502.102985","285269.273159","271392.255582","272159.528215","272926.772003","273694.010984","274461.21511","278364.219384","279131.246834","279898.421514","280665.706467","281433.226987","282200.504128","282967.849775","283735.016643","284505.116994","Mapping"
"Blocked","Female","done","21","F_jaw.wav","None","735.0238543","442","277597.731576","284502.102985","285269.273159","286036.231501","272159.528215","272926.772003","273694.010984","274461.21511","278364.219384","279131.246834","279898.421514","280665.706467","281433.226987","282200.504128","282967.849775","283735.016643","285272.789552","Mapping"
"Blocked","Female","done","21","F_done.wav","None","737.409280729","442","277597.731576","284502.102985","285269.273159","286036.231501","286803.389655","272926.772003","273694.010984","274461.21511","278364.219384","279131.246834","279898.421514","280665.706467","281433.226987","282200.504128","282967.849775","283735.016643","286038.761754","Mapping"
"Blocked","Female","done","21","F_romp.wav","space","490.569167188","442","277597.731576","284502.102985","285269.273159","286036.231501","286803.389655","287570.604599","273694.010984","274461.21511","278364.219384","279131.246834","279898.421514","280665.706467","281433.226987","282200.504128","282967.849775","283735.016643","286806.283777","Mapping"
"Blocked","Female","done","21","F_done.wav","None","737.780360389","442","277597.731576","284502.102985","285269.273159","286036.231501","286803.389655","287570.604599","288337.845382","274461.21511","278364.219384","279131.246834","279898.421514","280665.706467","281433.226987","282200.504128","282967.849775","283735.016643","287573.288391","Mapping"
"Blocked","Female","done","21","F_reek.wav","space","458.497965476","442","277597.731576","284502.102985","285269.273159","286036.231501","286803.389655","287570.604599","288337.845382","289105.562109","278364.219384","279131.246834","279898.421514","280665.706467","281433.226987","282200.504128","282967.849775","283735.016643","288340.361813","Mapping"
"Blocked","Female","ball","3","F_romp.wav","None","736.880154232","442","292241.613449","284502.102985","285269.273159","286036.231501","286803.389655","287570.604599","288337.845382","289105.562109","278364.219384","279131.246834","279898.421514","280665.706467","281433.226987","282200.504128","282967.849775","283735.016643","289108.632005","Mapping"
"Blocked","Female","ball","3","F_ball.wav","None","728.21131174","442","292241.613449","284502.102985","285269.273159","286036.231501","286803.389655","287570.604599","288337.845382","289105.562109","293008.02734","279131.246834","279898.421514","280665.706467","281433.226987","282200.504128","282967.849775","283735.016643","292245.987081","Mapping"
"Blocked","Female","ball","3","F_romp.wav","space","454.514943296","442","292241.613449","284502.102985","285269.273159","286036.231501","286803.389655","287570.604599","288337.845382","289105.562109","293008.02734","293775.211636","279898.421514","280665.706467","281433.226987","282200.504128","282967.849775","283735.016643","293011.373368","Mapping"
"Blocked","Female","ball","3","F_ball.wav","None","730.700099724","442","292241.613449","284502.102985","285269.273159","286036.231501","286803.389655","287570.604599","288337.845382","289105.562109","293008.02734","293775.211636","294542.324119","280665.706467","281433.226987","282200.504128","282967.849775","283735.016643","293778.630977","Mapping"
"Blocked","Female","ball","3","F_greet.wav","space","386.390719563","442","292241.613449","284502.102985","285269.273159","286036.231501","286803.389655","287570.604599","288337.845382","289105.562109","293008.02734","293775.211636","294542.324119","295309.636414","281433.226987","282200.504128","282967.849775","283735.016643","294545.460418","Mapping"
"Blocked","Female","ball","3","F_jaw.wav","None","731.356324861","442","292241.613449","284502.102985","285269.273159","286036.231501","286803.389655","287570.604599","288337.845382","289105.562109","293008.02734","293775.211636","294542.324119","295309.636414","296076.851658","282200.504128","282967.849775","283735.016643","295312.800357","Mapping"
"Blocked","Female","ball","3","F_jaw.wav","None","731.958766002","442","292241.613449","284502.102985","285269.273159","286036.231501","286803.389655","287570.604599","288337.845382","289105.562109","293008.02734","293775.211636","294542.324119","295309.636414","296076.851658","296844.038958","282967.849775","283735.016643","296080.043244","Mapping"
"Blocked","Female","ball","3","F_park.wav","None","733.054577839","442","292241.613449","284502.102985","285269.273159","286036.231501","286803.389655","287570.604599","288337.845382","289105.562109","293008.02734","293775.211636","294542.324119","295309.636414","296076.851658","296844.038958","297611.277638","283735.016643","296846.982356","Mapping"
"Blocked","Female","ball","3","F_gnash.wav","None","734.11944136","442","292241.613449","284502.102985","285269.273159","286036.231501","286803.389655","287570.604599","288337.845382","289105.562109","293008.02734","293775.211636","294542.324119","295309.636414","296076.851658","296844.038958","297611.277638","298378.444206","297614.246276","Mapping"
"Blocked","Female","ball","3","F_depth.wav","None","735.217957525","442","292241.613449","299145.751092","285269.273159","286036.231501","286803.389655","287570.604599","288337.845382","289105.562109","293008.02734","293775.211636","294542.324119","295309.636414","296076.851658","296844.038958","297611.277638","298378.444206","298381.741857","Mapping"
"Blocked","Female","ball","3","F_ball.wav","None","736.07489618","442","292241.613449","299145.751092","299912.885209","286036.231501","286803.389655","287570.604599","288337.845382","289105.562109","293008.02734","293775.211636","294542.324119","295309.636414","296076.851658","296844.038958","297611.277638","298378.444206","299148.845627","Mapping"
"Blocked","Female","ball","3","F_cling.wav","space","363.841993967","442","292241.613449","299145.751092","299912.885209","300680.210725","286803.389655","287570.604599","288337.845382","289105.562109","293008.02734","293775.211636","294542.324119","295309.636414","296076.851658","296844.038958","297611.277638","298378.444206","299916.013096","Mapping"
"Blocked","Female","ball","3","F_ball.wav","None","736.484736437","442","292241.613449","299145.751092","299912.885209","300680.210725","301447.323809","287570.604599","288337.845382","289105.562109","293008.02734","293775.211636","294542.324119","295309.636414","296076.851658","296844.038958","297611.277638","298378.444206","300683.423344","Mapping"
