"Condition","Talker","Target","Trial","current_stimulus","response_response","response_time_response","subject_nr","time_Audio1","time_Audio10","time_Audio11","time_Audio12","time_Audio13","time_Audio14","time_Audio15","time_Audio16","time_Audio2","time_Audio3","time_Audio4","time_Audio5","time_Audio6","time_Audio7","time_Audio8","time_Audio9","time_response"
"Mixed","Male","cave","16","F_greet.wav","NA","NA","443","96910.8545413","NA","NA","NA","NA","NA","NA","NA","NA","NA","NA","NA","NA","NA","NA","NA","NA"
"Mixed","Male","cave","16","F_depth.wav","None","739.767158474","443","96910.8545413","NA","NA","NA","NA","NA","NA","NA","97677.4624715","NA","NA","NA","NA","NA","NA","NA","96917.9823908"
"Mixed","Male","cave","16","M_cave.wav","None","738.018509265","443","96910.8545413","NA","NA","NA","NA","NA","NA","NA","97677.4624715","98444.1761858","NA","NA","NA","NA","NA","NA","97682.9708334"
"Mixed","Male","cave","16","F_depth.wav","space","534.970354201","443","96910.8545413","NA","NA","NA","NA","NA","NA","NA","97677.4624715","98444.1761858","99210.7914216","NA","NA","NA","NA","NA","98449.4992797"
"Mixed","Male","cave","16","M_gnash.wav","None","731.559553135","443","96910.8545413","NA","NA","NA","NA","NA","NA","NA","97677.4624715","98444.1761858","99210.7914216","99977.7193336","NA","NA","NA","NA","99215.9540863"
"Mixed","Male","cave","16","F_depth.wav","None","727.435148901","443","96910.8545413","NA","NA","NA","NA","NA","NA","NA","97677.4624715","98444.1761858","99210.7914216","99977.7193336","100727.417616","NA","NA","NA","99983.388417"
"Mixed","Male","cave","16","M_bluff.wav","None","741.414699291","443","96910.8545413","NA","NA","NA","NA","NA","NA","NA","97677.4624715","98444.1761858","99210.7914216","99977.7193336","100727.417616","101494.064704","NA","NA","100732.819901"
"Mixed","Male","cave","16","M_cave.wav","None","738.187412881","443","96910.8545413","NA","NA","NA","NA","NA","NA","NA","97677.4624715","98444.1761858","99210.7914216","99977.7193336","100727.417616","101494.064704","102260.715006","NA","101499.389259"
"Mixed","Male","cave","16","F_romp.wav","space","502.453485756","443","96910.8545413","NA","NA","NA","NA","NA","NA","NA","97677.4624715","98444.1761858","99210.7914216","99977.7193336","100727.417616","101494.064704","102260.715006","103027.337839","102265.822733"
"Mixed","Male","cave","16","F_knife.wav","None","731.861709433","443","96910.8545413","103794.209645","NA","NA","NA","NA","NA","NA","97677.4624715","98444.1761858","99210.7914216","99977.7193336","100727.417616","101494.064704","102260.715006","103027.337839","103032.399396"
"Mixed","Male","cave","16","M_cave.wav","None","727.450344382","443","96910.8545413","103794.209645","104543.989457","NA","NA","NA","NA","NA","97677.4624715","98444.1761858","99210.7914216","99977.7193336","100727.417616","101494.064704","102260.715006","103027.337839","103800.119811"
"Mixed","Male","cave","16","F_lash.wav","space","442.946228452","443","96910.8545413","103794.209645","104543.989457","105310.656123","NA","NA","NA","NA","97677.4624715","98444.1761858","99210.7914216","99977.7193336","100727.417616","101494.064704","102260.715006","103027.337839","104549.220793"
"Mixed","Male","cave","16","M_park.wav","None","738.093317787","443","96910.8545413","103794.209645","104543.989457","105310.656123","106077.305257","NA","NA","NA","97677.4624715","98444.1761858","99210.7914216","99977.7193336","100727.417616","101494.064704","102260.715006","103027.337839","105316.094937"
"Mixed","Male","cave","16","F_reek.wav","None","735.419497555","443","96910.8545413","103794.209645","104543.989457","105310.656123","106077.305257","106843.954682","NA","NA","97677.4624715","98444.1761858","99210.7914216","99977.7193336","100727.417616","101494.064704","102260.715006","103027.337839","106082.220703"
"Mixed","Male","cave","16","M_cave.wav","None","731.955220086","443","96910.8545413","103794.209645","104543.989457","105310.656123","106077.305257","106843.954682","107610.713691","NA","97677.4624715","98444.1761858","99210.7914216","99977.7193336","100727.417616","101494.064704","102260.715006","103027.337839","106848.92828"
"Mixed","Male","cave","16","M_priest.wav","space","504.073850037","443","96910.8545413","103794.209645","104543.989457","105310.656123","106077.305257","106843.954682","107610.713691","108360.571233","97677.4624715","98444.1761858","99210.7914216","99977.7193336","100727.417616","101494.064704","102260.715006","103027.337839","107615.92691"
"Mixed","Female","done","45","F_dime.wav","None","741.85069271","443","111493.827128","103794.209645","104543.989457","105310.656123","106077.305257","106843.954682","107610.713691","108360.571233","97677.4624715","98444.1761858","99210.7914216","99977.7193336","100727.417616","101494.064704","102260.715006","103027.337839","108365.766334"
"Mixed","Female","done","45","M_dime.wav","space","612.781445148","443","111493.827128","103794.209645","104543.989457","105310.656123","106077.305257","106843.954682","107610.713691","108360.571233","112260.479476","98444.1761858","99210.7914216","99977.7193336","100727.417616","101494.064704","102260.715006","103027.337839","111499.014631"
"Mixed","Female","done","45","M_cad.wav","None","737.401923398","443","111493.827128","103794.209645","104543.989457","105310.656123","106077.305257","106843.954682","107610.713691","108360.571233","112260.479476","113027.172442","99210.7914216","99977.7193336","100727.417616","101494.064704","102260.715006","103027.337839","112265.792927"
"Mixed","Female","done","45","F_done.wav","None","734.255874369","443","111493.827128","103794.209645","104543.989457","105310.656123","106077.305257","106843.954682","107610.713691","108360.571233","112260.479476","113027.172442","113793.853428","99977.7193336","100727.417616","101494.064704","102260.715006","103027.337839","113032.236921"
"Mixed","Female","done","45","M_bluff.wav","None","731.156872886","443","111493.827128","103794.209645","104543.989457","105310.656123","106077.305257","106843.954682","107610.713691","108360.571233","112260.479476","113027.172442","113793.853428","114560.895598","100727.417616","101494.064704","102260.715006","103027.337839","113798.795466"
"Mixed","Female","done","45","F_done.wav","space","73.1931257987","443","111493.827128","103794.209645","104543.989457","105310.656123","106077.305257","106843.954682","107610.713691","108360.571233","112260.479476","113027.172442","113793.853428","114560.895598","115310.414749","101494.064704","102260.715006","103027.337839","114566.420032"
"Mixed","Female","done","45","M_jaw.wav","space","619.818414001","443","111493.827128","103794.209645","104543.989457","105310.656123","106077.305257","106843.954682","107610.713691","108360.571233","112260.479476","113027.172442","113793.853428","114560.895598","115310.414749","116077.053655","102260.715006","103027.337839","115315.743103"
"Mixed","Female","done","45","M_bluff.wav","None","737.673980952","443","111493.827128","103794.209645","104543.989457","105310.656123","106077.305257","106843.954682","107610.713691","108360.571233","112260.479476","113027.172442","113793.853428","114560.895598","115310.414749","116077.053655","116843.662169","103027.337839","116082.22567"
"Mixed","Female","done","45","F_done.wav","None","734.627871435","443","111493.827128","103794.209645","104543.989457","105310.656123","106077.305257","106843.954682","107610.713691","108360.571233","112260.479476","113027.172442","113793.853428","114560.895598","115310.414749","116077.053655","116843.662169","117610.352214","116848.594856"
"Mixed","Female","done","45","F_gnash.wav","space","543.953221296","443","111493.827128","118377.175219","104543.989457","105310.656123","106077.305257","106843.954682","107610.713691","108360.571233","112260.479476","113027.172442","113793.853428","114560.895598","115310.414749","116077.053655","116843.662169","117610.352214","117615.491209"
"Mixed","Female","done","45","F_depth.wav","None","727.718018627","443","111493.827128","118377.175219","119127.008507","105310.656123","106077.305257","106843.954682","107610.713691","108360.571233","112260.479476","113027.172442","113793.853428","114560.895598","115310.414749","116077.053655","116843.662169","117610.352214","118382.210475"
"Mixed","Female","done","45","M_park.wav","None","740.942470493","443","111493.827128","118377.175219","119127.008507","119893.586923","106077.305257","106843.954682","107610.713691","108360.571233","112260.479476","113027.172442","113793.853428","114560.895598","115310.414749","116077.053655","116843.662169","117610.352214","119132.466899"
"Mixed","Female","done","45","M_dime.wav","None","738.105006619","443","111493.827128","118377.175219","119127.008507","119893.586923","120660.264986","106843.954682","107610.713691","108360.571233","112260.479476","113027.172442","113793.853428","114560.895598","115310.414749","116077.053655","116843.662169","117610.352214","119898.730301"
"Mixed","Female","done","45","F_cad.wav","None","734.998699617","443","111493.827128","118377.175219","119127.008507","119893.586923","120660.264986","121426.929607","107610.713691","108360.571233","112260.479476","113027.172442","113793.853428","114560.895598","115310.414749","116077.053655","116843.662169","117610.352214","120665.364823"
"Mixed","Female","done","45","F_done.wav","None","731.761185481","443","111493.827128","118377.175219","119127.008507","119893.586923","120660.264986","121426.929607","122193.865993","108360.571233","112260.479476","113027.172442","113793.853428","114560.895598","115310.414749","116077.053655","116843.662169","117610.352214","121431.993793"
"Mixed","Female","done","45","M_jaw.wav","space","543.592913062","443","111493.827128","118377.175219","119127.008507","119893.586923","120660.264986","121426.929607","122193.865993","122943.490344","112260.479476","113027.172442","113793.853428","114560.895598","115310.414749","116077.053655","116843.662169","117610.352214","122199.584462"
"Mixed","Male","done","42","M_cling.wav","None","741.782313044","443","126060.155987","118377.175219","119127.008507","119893.586923","120660.264986","121426.929607","122193.865993","122943.490344","112260.479476","113027.172442","113793.853428","114560.895598","115310.414749","116077.053655","116843.662169","117610.352214","122948.697134"
"Mixed","Male","done","42","F_dime.wav","None","740.858310905","443","126060.155987","118377.175219","119127.008507","119893.586923","120660.264986","121426.929607","122193.865993","122943.490344","126826.738787","113027.172442","113793.853428","114560.895598","115310.414749","116077.053655","116843.662169","117610.352214","126065.246766"
"Mixed","Male","done","42","M_done.wav","space","519.013345724","443","126060.155987","118377.175219","119127.008507","119893.586923","120660.264986","121426.929607","122193.865993","122943.490344","126826.738787","127593.460975","113793.853428","114560.895598","115310.414749","116077.053655","116843.662169","117610.352214","126831.909634"
"Mixed","Male","done","42","F_dime.wav","None","734.125543896","443","126060.155987","118377.175219","119127.008507","119893.586923","120660.264986","121426.929607","122193.865993","122943.490344","126826.738787","127593.460975","128360.021566","114560.895598","115310.414749","116077.053655","116843.662169","117610.352214","127598.575424"
"Mixed","Male","done","42","F_jaw.wav","space","29.1233084063","443","126060.155987","118377.175219","119127.008507","119893.586923","120660.264986","121426.929607","122193.865993","122943.490344","126826.738787","127593.460975","128360.021566","129127.098511","115310.414749","116077.053655","116843.662169","117610.352214","128361.716739"
"Mixed","Male","done","42","F_depth.wav","None","726.585078623","443","126060.155987","118377.175219","119127.008507","119893.586923","120660.264986","121426.929607","122193.865993","122943.490344","126826.738787","127593.460975","128360.021566","129127.098511","129876.736303","116077.053655","116843.662169","117610.352214","129132.925978"
"Mixed","Male","done","42","M_done.wav","None","741.184429307","443","126060.155987","118377.175219","119127.008507","119893.586923","120660.264986","121426.929607","122193.865993","122943.490344","126826.738787","127593.460975","128360.021566","129127.098511","129876.736303","130643.350954","116843.662169","117610.352214","129881.910949"
"Mixed","Male","done","42","M_dime.wav","None","738.045978019","443","126060.155987","118377.175219","119127.008507","119893.586923","120660.264986","121426.929607","122193.865993","122943.490344","126826.738787","127593.460975","128360.021566","129127.098511","129876.736303","130643.350954","131409.993659","117610.352214","130648.426537"
"Mixed","Male","done","42","M_done.wav","space","7.64858696677","443","126060.155987","118377.175219","119127.008507","119893.586923","120660.264986","121426.929607","122193.865993","122943.490344","126826.738787","127593.460975","128360.021566","129127.098511","129876.736303","130643.350954","131409.993659","132176.621168","131415.051416"
"Mixed","Male","done","42","M_cad.wav","None","731.50899894","443","126060.155987","132943.701911","119127.008507","119893.586923","120660.264986","121426.929607","122193.865993","122943.490344","126826.738787","127593.460975","128360.021566","129127.098511","129876.736303","130643.350954","131409.993659","132176.621168","132181.646197"
"Mixed","Male","done","42","M_gnash.wav","space","65.087797736","443","126060.155987","132943.701911","133693.280383","119893.586923","120660.264986","121426.929607","122193.865993","122943.490344","126826.738787","127593.460975","128360.021566","129127.098511","129876.736303","130643.350954","131409.993659","132176.621168","132949.494312"
"Mixed","Male","done","42","M_done.wav","None","741.352456262","443","126060.155987","132943.701911","133693.280383","134459.920458","120660.264986","121426.929607","122193.865993","122943.490344","126826.738787","127593.460975","128360.021566","129127.098511","129876.736303","130643.350954","131409.993659","132176.621168","133698.71306"
"Mixed","Male","done","42","F_lash.wav","None","738.632172925","443","126060.155987","132943.701911","133693.280383","134459.920458","135226.647029","121426.929607","122193.865993","122943.490344","126826.738787","127593.460975","128360.021566","129127.098511","129876.736303","130643.350954","131409.993659","132176.621168","134465.107961"
"Mixed","Male","done","42","F_dime.wav","space","78.844968104","443","126060.155987","132943.701911","133693.280383","134459.920458","135226.647029","135993.21551","122193.865993","122943.490344","126826.738787","127593.460975","128360.021566","129127.098511","129876.736303","130643.350954","131409.993659","132176.621168","135231.603386"
"Mixed","Male","done","42","F_knife.wav","None","732.192211148","443","126060.155987","132943.701911","133693.280383","134459.920458","135226.647029","135993.21551","136759.822271","122943.490344","126826.738787","127593.460975","128360.021566","129127.098511","129876.736303","130643.350954","131409.993659","132176.621168","135998.329958"
"Mixed","Male","done","42","F_bluff.wav","None","729.075384197","443","126060.155987","132943.701911","133693.280383","134459.920458","135226.647029","135993.21551","136759.822271","137509.879693","126826.738787","127593.460975","128360.021566","129127.098511","129876.736303","130643.350954","131409.993659","132176.621168","136764.977923"
"Mixed","Male","ball","2","F_depth.wav","None","742.274120635","443","140626.479002","132943.701911","133693.280383","134459.920458","135226.647029","135993.21551","136759.822271","137509.879693","126826.738787","127593.460975","128360.021566","129127.098511","129876.736303","130643.350954","131409.993659","132176.621168","137515.341007"
"Mixed","Male","ball","2","M_cad.wav","None","741.855368243","443","140626.479002","132943.701911","133693.280383","134459.920458","135226.647029","135993.21551","136759.822271","137509.879693","141393.06677","127593.460975","128360.021566","129127.098511","129876.736303","130643.350954","131409.993659","132176.621168","140631.530915"
"Mixed","Male","ball","2","M_ball.wav","None","738.806628737","443","140626.479002","132943.701911","133693.280383","134459.920458","135226.647029","135993.21551","136759.822271","137509.879693","141393.06677","142159.733436","128360.021566","129127.098511","129876.736303","130643.350954","131409.993659","132176.621168","141398.133001"
"Mixed","Male","ball","2","F_bluff.wav","space","729.139964992","443","140626.479002","132943.701911","133693.280383","134459.920458","135226.647029","135993.21551","136759.822271","137509.879693","141393.06677","142159.733436","142926.384031","129127.098511","129876.736303","130643.350954","131409.993659","132176.621168","142164.875061"
"Mixed","Male","ball","2","M_ball.wav","None","732.018339777","443","140626.479002","132943.701911","133693.280383","134459.920458","135226.647029","135993.21551","136759.822271","137509.879693","141393.06677","142159.733436","142926.384031","143693.020599","129876.736303","130643.350954","131409.993659","132176.621168","142931.767907"
"Mixed","Male","ball","2","F_greet.wav","space","723.496012647","443","140626.479002","132943.701911","133693.280383","134459.920458","135226.647029","135993.21551","136759.822271","137509.879693","141393.06677","142159.733436","142926.384031","143693.020599","144443.004088","130643.350954","131409.993659","132176.621168","143698.417917"
"Mixed","Male","ball","2","F_depth.wav","None","742.707484066","443","140626.479002","132943.701911","133693.280383","134459.920458","135226.647029","135993.21551","136759.822271","137509.879693","141393.06677","142159.733436","142926.384031","143693.020599","144443.004088","145209.654975","131409.993659","132176.621168","144448.006031"
"Mixed","Male","ball","2","M_gnash.wav","None","739.758391851","443","140626.479002","132943.701911","133693.280383","134459.920458","135226.647029","135993.21551","136759.822271","137509.879693","141393.06677","142159.733436","142926.384031","143693.020599","144443.004088","145209.654975","145976.308784","132176.621168","145214.604026"
"Mixed","Male","ball","2","F_knife.wav","None","736.817774037","443","140626.479002","132943.701911","133693.280383","134459.920458","135226.647029","135993.21551","136759.822271","137509.879693","141393.06677","142159.733436","142926.384031","143693.020599","144443.004088","145209.654975","145976.308784","146742.997075","145981.15585"
"Mixed","Male","ball","2","M_ball.wav","None","733.703284854","443","140626.479002","147509.594193","133693.280383","134459.920458","135226.647029","135993.21551","136759.822271","137509.879693","141393.06677","142159.733436","142926.384031","143693.020599","144443.004088","145209.654975","145976.308784","146742.997075","146747.866934"
"Mixed","Male","ball","2","M_cling.wav","space","482.723030213","443","140626.479002","147509.594193","148259.581774","134459.920458","135226.647029","135993.21551","136759.822271","137509.879693","141393.06677","142159.733436","142926.384031","143693.020599","144443.004088","145209.654975","145976.308784","146742.997075","147515.000278"
"Mixed","Male","ball","2","M_jaw.wav","None","743.716230235","443","140626.479002","147509.594193","148259.581774","149026.226231","135226.647029","135993.21551","136759.822271","137509.879693","141393.06677","142159.733436","142926.384031","143693.020599","144443.004088","145209.654975","145976.308784","146742.997075","148264.656772"
"Mixed","Male","ball","2","F_gnash.wav","None","740.799574526","443","140626.479002","147509.594193","148259.581774","149026.226231","149792.840883","135993.21551","136759.822271","137509.879693","141393.06677","142159.733436","142926.384031","143693.020599","144443.004088","145209.654975","145976.308784","146742.997075","149031.275222"
"Mixed","Male","ball","2","M_ball.wav","None","738.009742641","443","140626.479002","147509.594193","148259.581774","149026.226231","149792.840883","150559.532973","136759.822271","137509.879693","141393.06677","142159.733436","142926.384031","143693.020599","144443.004088","145209.654975","145976.308784","146742.997075","149797.871172"
"Mixed","Male","ball","2","F_reek.wav","space","457.00643178","443","140626.479002","147509.594193","148259.581774","149026.226231","149792.840883","150559.532973","151326.22477","137509.879693","141393.06677","142159.733436","142926.384031","143693.020599","144443.004088","145209.654975","145976.308784","146742.997075","150564.623459"
"Mixed","Male","ball","2","F_jolt.wav","None","731.423670468","443","140626.479002","147509.594193","148259.581774","149026.226231","149792.840883","150559.532973","151326.22477","152093.059464","141393.06677","142159.733436","142926.384031","143693.020599","144443.004088","145209.654975","145976.308784","146742.997075","151331.391526"
"Mixed","Male","cave","18","M_park.wav","None","727.662496675","443","155192.743281","147509.594193","148259.581774","149026.226231","149792.840883","150559.532973","151326.22477","152093.059464","141393.06677","142159.733436","142926.384031","143693.020599","144443.004088","145209.654975","145976.308784","146742.997075","152098.752509"
"Mixed","Male","cave","18","M_cave.wav","None","741.71773225","443","155192.743281","147509.594193","148259.581774","149026.226231","149792.840883","150559.532973","151326.22477","152093.059464","155959.466931","142159.733436","142926.384031","143693.020599","144443.004088","145209.654975","145976.308784","146742.997075","155197.811559"
"Mixed","Male","cave","18","F_depth.wav","space","616.933902579","443","155192.743281","147509.594193","148259.581774","149026.226231","149792.840883","150559.532973","151326.22477","152093.059464","155959.466931","156726.038334","142926.384031","143693.020599","144443.004088","145209.654975","145976.308784","146742.997075","155964.288866"
"Mixed","Male","cave","18","M_cave.wav","None","735.438784128","443","155192.743281","147509.594193","148259.581774","149026.226231","149792.840883","150559.532973","151326.22477","152093.059464","155959.466931","156726.038334","157492.699156","143693.020599","144443.004088","145209.654975","145976.308784","146742.997075","156731.084987"
"Mixed","Male","cave","18","F_dime.wav","space","651.404267009","443","155192.743281","147509.594193","148259.581774","149026.226231","149792.840883","150559.532973","151326.22477","152093.059464","155959.466931","156726.038334","157492.699156","158259.341276","144443.004088","145209.654975","145976.308784","146742.997075","157497.72097"
"Mixed","Male","cave","18","M_lash.wav","None","728.75861686","443","155192.743281","147509.594193","148259.581774","149026.226231","149792.840883","150559.532973","151326.22477","152093.059464","155959.466931","156726.038334","157492.699156","158259.341276","159009.320967","145209.654975","145976.308784","146742.997075","158264.591607"
"Mixed","Male","cave","18","M_cave.wav","None","742.042681768","443","155192.743281","147509.594193","148259.581774","149026.226231","149792.840883","150559.532973","151326.22477","152093.059464","155959.466931","156726.038334","157492.699156","158259.341276","159009.320967","159775.955489","145976.308784","146742.997075","159014.758319"
"Mixed","Male","cave","18","F_cad.wav","space","567.88464292","443","155192.743281","147509.594193","148259.581774","149026.226231","149792.840883","150559.532973","151326.22477","152093.059464","155959.466931","156726.038334","157492.699156","158259.341276","159009.320967","159775.955489","160542.582998","146742.997075","159781.10588"
"Mixed","Male","cave","18","F_cling.wav","None","735.729543814","443","155192.743281","147509.594193","148259.581774","149026.226231","149792.840883","150559.532973","151326.22477","152093.059464","155959.466931","156726.038334","157492.699156","158259.341276","159009.320967","159775.955489","160542.582998","161309.275672","160547.826316"
"Mixed","Male","cave","18","M_park.wav","None","732.74041735","443","155192.743281","162075.905811","148259.581774","149026.226231","149792.840883","150559.532973","151326.22477","152093.059464","155959.466931","156726.038334","157492.699156","158259.341276","159009.320967","159775.955489","160542.582998","161309.275672","161314.465806"
"Mixed","Male","cave","18","F_knife.wav","None","729.897985722","443","155192.743281","162075.905811","162825.886086","149026.226231","149792.840883","150559.532973","151326.22477","152093.059464","155959.466931","156726.038334","157492.699156","158259.341276","159009.320967","159775.955489","160542.582998","161309.275672","162081.016169"
"Mixed","Male","cave","18","F_cad.wav","None","743.36351974","443","155192.743281","162075.905811","162825.886086","163592.536097","149792.840883","150559.532973","151326.22477","152093.059464","155959.466931","156726.038334","157492.699156","158259.341276","159009.320967","159775.955489","160542.582998","161309.275672","162831.174991"
"Mixed","Male","cave","18","M_lash.wav","None","744.263559775","443","155192.743281","162075.905811","162825.886086","163592.536097","164359.186983","150559.532973","151326.22477","152093.059464","155959.466931","156726.038334","157492.699156","158259.341276","159009.320967","159775.955489","160542.582998","161309.275672","163594.238867"
"Mixed","Male","cave","18","F_park.wav","None","738.003313784","443","155192.743281","162075.905811","162825.886086","163592.536097","164359.186983","165125.849559","151326.22477","152093.059464","155959.466931","156726.038334","157492.699156","158259.341276","159009.320967","159775.955489","160542.582998","161309.275672","164364.340589"
"Mixed","Male","cave","18","M_cave.wav","None","735.160297714","443","155192.743281","162075.905811","162825.886086","163592.536097","164359.186983","165125.849559","165892.478237","152093.059464","155959.466931","156726.038334","157492.699156","158259.341276","159009.320967","159775.955489","160542.582998","161309.275672","165130.845658"
"Mixed","Male","cave","18","F_gnash.wav","space","627.04649525","443","155192.743281","162075.905811","162825.886086","163592.536097","164359.186983","165125.849559","165892.478237","166659.115097","155959.466931","156726.038334","157492.699156","158259.341276","159009.320967","159775.955489","160542.582998","161309.275672","165897.656681"
"Mixed","Female","cave","19","F_park.wav","None","728.957619219","443","169742.442732","162075.905811","162825.886086","163592.536097","164359.186983","165125.849559","165892.478237","166659.115097","155959.466931","156726.038334","157492.699156","158259.341276","159009.320967","159775.955489","160542.582998","161309.275672","166664.090448"
"Mixed","Female","cave","19","M_dime.wav","None","741.023415651","443","169742.442732","162075.905811","162825.886086","163592.536097","164359.186983","165125.849559","165892.478237","166659.115097","170508.993971","156726.038334","157492.699156","158259.341276","159009.320967","159775.955489","160542.582998","161309.275672","169747.928593"
"Mixed","Female","cave","19","F_cave.wav","None","738.450119373","443","169742.442732","162075.905811","162825.886086","163592.536097","164359.186983","165125.849559","165892.478237","166659.115097","170508.993971","171275.678464","157492.699156","158259.341276","159009.320967","159775.955489","160542.582998","161309.275672","170514.169202"
"Mixed","Female","cave","19","M_cad.wav","space","667.509431426","443","169742.442732","162075.905811","162825.886086","163592.536097","164359.186983","165125.849559","165892.478237","166659.115097","170508.993971","171275.678464","172042.343669","158259.341276","159009.320967","159775.955489","160542.582998","161309.275672","171280.848726"
"Mixed","Female","cave","19","F_cave.wav","None","732.323418281","443","169742.442732","162075.905811","162825.886086","163592.536097","164359.186983","165125.849559","165892.478237","166659.115097","170508.993971","171275.678464","172042.343669","172808.9741","159009.320967","159775.955489","160542.582998","161309.275672","172047.380971"
"Mixed","Female","cave","19","F_greet.wav","None","729.555210735","443","169742.442732","162075.905811","162825.886086","163592.536097","164359.186983","165125.849559","165892.478237","166659.115097","170508.993971","171275.678464","172042.343669","172808.9741","173558.956713","159775.955489","160542.582998","161309.275672","172814.027182"
"Mixed","Female","cave","19","M_lash.wav","space","64.3987411131","443","169742.442732","162075.905811","162825.886086","163592.536097","164359.186983","165125.849559","165892.478237","166659.115097","170508.993971","171275.678464","172042.343669","172808.9741","173558.956713","174325.618704","160542.582998","161309.275672","173563.873328"
"Mixed","Female","cave","19","M_romp.wav","None","739.85073362","443","169742.442732","162075.905811","162825.886086","163592.536097","164359.186983","165125.849559","165892.478237","166659.115097","170508.993971","171275.678464","172042.343669","172808.9741","173558.956713","174325.618704","175092.227804","161309.275672","174330.709775"
"Mixed","Female","cave","19","M_reek.wav","None","737.128404738","443","169742.442732","162075.905811","162825.886086","163592.536097","164359.186983","165125.849559","165892.478237","166659.115097","170508.993971","171275.678464","172042.343669","172808.9741","173558.956713","174325.618704","175092.227804","175858.867002","175097.444821"
"Mixed","Female","cave","19","F_knife.wav","None","734.302337474","443","169742.442732","176625.555585","162825.886086","163592.536097","164359.186983","165125.849559","165892.478237","166659.115097","170508.993971","171275.678464","172042.343669","172808.9741","173558.956713","174325.618704","175092.227804","175858.867002","175864.02879"
"Mixed","Female","cave","19","F_cave.wav","None","731.551663175","443","169742.442732","176625.555585","177392.248259","163592.536097","164359.186983","165125.849559","165892.478237","166659.115097","170508.993971","171275.678464","172042.343669","172808.9741","173558.956713","174325.618704","175092.227804","175858.867002","176630.613927"
"Mixed","Female","cave","19","F_knife.wav","None","729.629142595","443","169742.442732","176625.555585","177392.248259","178142.163661","164359.186983","165125.849559","165892.478237","166659.115097","170508.993971","171275.678464","172042.343669","172808.9741","173558.956713","174325.618704","175092.227804","175858.867002","177397.132437"
"Mixed","Female","cave","19","M_bluff.wav","space","208.835003375","443","169742.442732","176625.555585","177392.248259","178142.163661","178908.842893","165125.849559","165892.478237","166659.115097","170508.993971","171275.678464","172042.343669","172808.9741","173558.956713","174325.618704","175092.227804","175858.867002","178147.145149"
"Mixed","Female","cave","19","F_cave.wav","None","739.691181068","443","169742.442732","176625.555585","177392.248259","178142.163661","178908.842893","179675.428615","165892.478237","166659.115097","170508.993971","171275.678464","172042.343669","172808.9741","173558.956713","174325.618704","175092.227804","175858.867002","178914.051437"
"Mixed","Female","cave","19","M_jolt.wav","space","667.391958668","443","169742.442732","176625.555585","177392.248259","178142.163661","178908.842893","179675.428615","180442.12012","166659.115097","170508.993971","171275.678464","172042.343669","172808.9741","173558.956713","174325.618704","175092.227804","175858.867002","179680.479943"
"Mixed","Female","cave","19","M_cling.wav","None","733.829816456","443","169742.442732","176625.555585","177392.248259","178142.163661","178908.842893","179675.428615","180442.12012","181208.809872","170508.993971","171275.678464","172042.343669","172808.9741","173558.956713","174325.618704","175092.227804","175858.867002","180447.071509"
"Mixed","Female","cave","22","M_priest.wav","None","730.499376108","443","184325.783517","176625.555585","177392.248259","178142.163661","178908.842893","179675.428615","180442.12012","181208.809872","170508.993971","171275.678464","172042.343669","172808.9741","173558.956713","174325.618704","175092.227804","175858.867002","181214.111634"
"Mixed","Female","cave","22","F_cave.wav","None","723.16054318","443","184325.783517","176625.555585","177392.248259","178142.163661","178908.842893","179675.428615","180442.12012","181208.809872","185075.357021","171275.678464","172042.343669","172808.9741","173558.956713","174325.618704","175092.227804","175858.867002","184331.662415"
"Mixed","Female","cave","22","M_depth.wav","space","595.199689077","443","184325.783517","176625.555585","177392.248259","178142.163661","178908.842893","179675.428615","180442.12012","181208.809872","185075.357021","185841.990082","172042.343669","172808.9741","173558.956713","174325.618704","175092.227804","175858.867002","185080.362178"
"Mixed","Female","cave","22","M_romp.wav","None","735.029675021","443","184325.783517","176625.555585","177392.248259","178142.163661","178908.842893","179675.428615","180442.12012","181208.809872","185075.357021","185841.990082","186608.617007","172808.9741","173558.956713","174325.618704","175092.227804","175858.867002","185846.791562"
"Mixed","Female","cave","22","M_lash.wav","None","732.125877027","443","184325.783517","176625.555585","177392.248259","178142.163661","178908.842893","179675.428615","180442.12012","181208.809872","185075.357021","185841.990082","186608.617007","187375.28718","173558.956713","174325.618704","175092.227804","175858.867002","186613.570441"
"Mixed","Female","cave","22","M_priest.wav","None","728.973983583","443","184325.783517","176625.555585","177392.248259","178142.163661","178908.842893","179675.428615","180442.12012","181208.809872","185075.357021","185841.990082","186608.617007","187375.28718","188125.26278","174325.618704","175092.227804","175858.867002","187380.643587"
"Mixed","Female","cave","22","F_priest.wav","None","742.744303887","443","184325.783517","176625.555585","177392.248259","178142.163661","178908.842893","179675.428615","180442.12012","181208.809872","185075.357021","185841.990082","186608.617007","187375.28718","188125.26278","188891.916588","175092.227804","175858.867002","188130.446484"
"Mixed","Female","cave","22","F_cave.wav","None","740.13915554","443","184325.783517","176625.555585","177392.248259","178142.163661","178908.842893","179675.428615","180442.12012","181208.809872","185075.357021","185841.990082","186608.617007","187375.28718","188125.26278","188891.916588","189658.559585","175858.867002","188896.952429"
"Mixed","Female","cave","22","F_greet.wav","None","737.445172074","443","184325.783517","176625.555585","177392.248259","178142.163661","178908.842893","179675.428615","180442.12012","181208.809872","185075.357021","185841.990082","186608.617007","187375.28718","188125.26278","188891.916588","189658.559585","190425.234726","189663.553054"
"Mixed","Female","cave","22","F_cave.wav","space","0.0213321172632","443","184325.783517","191191.853761","177392.248259","178142.163661","178908.842893","179675.428615","180442.12012","181208.809872","185075.357021","185841.990082","186608.617007","187375.28718","188125.26278","188891.916588","189658.559585","190425.234726","190430.315277"
"Mixed","Female","cave","22","F_bluff.wav","None","730.774648093","443","184325.783517","191191.853761","191958.949992","178142.163661","178908.842893","179675.428615","180442.12012","181208.809872","185075.357021","185841.990082","186608.617007","187375.28718","188125.26278","188891.916588","189658.559585","190425.234726","191197.306309"
"Mixed","Female","cave","22","F_cave.wav","space","0.0204554553493","443","184325.783517","191191.853761","191958.949992","192708.528172","178908.842893","179675.428615","180442.12012","181208.809872","185075.357021","185841.990082","186608.617007","187375.28718","188125.26278","188891.916588","189658.559585","190425.234726","191964.372733"
"Mixed","Female","cave","22","M_dime.wav","space","521.525275637","443","184325.783517","191191.853761","191958.949992","192708.528172","193475.116815","179675.428615","180442.12012","181208.809872","185075.357021","185841.990082","186608.617007","187375.28718","188125.26278","188891.916588","189658.559585","190425.234726","192713.626255"
"Mixed","Female","cave","22","M_romp.wav","None","738.374141967","443","184325.783517","191191.853761","191958.949992","192708.528172","193475.116815","194241.780852","180442.12012","181208.809872","185075.357021","185841.990082","186608.617007","187375.28718","188125.26278","188891.916588","189658.559585","190425.234726","193480.150611"
"Mixed","Female","cave","22","M_knife.wav","None","736.498961155","443","184325.783517","191191.853761","191958.949992","192708.528172","193475.116815","194241.780852","195008.375632","181208.809872","185075.357021","185841.990082","186608.617007","187375.28718","188125.26278","188891.916588","189658.559585","190425.234726","194246.952283"
"Mixed","Female","cave","22","F_bluff.wav","None","734.615598161","443","184325.783517","191191.853761","191958.949992","192708.528172","193475.116815","194241.780852","195008.375632","195775.157434","185075.357021","185841.990082","186608.617007","187375.28718","188125.26278","188891.916588","189658.559585","190425.234726","195013.592942"
"Mixed","Female","tile","32","M_gnash.wav","None","732.28952067","443","198875.012785","191191.853761","191958.949992","192708.528172","193475.116815","194241.780852","195008.375632","195775.157434","185075.357021","185841.990082","186608.617007","187375.28718","188125.26278","188891.916588","189658.559585","190425.234726","195780.401628"
"Mixed","Female","tile","32","F_cling.wav","None","742.278211726","443","198875.012785","191191.853761","191958.949992","192708.528172","193475.116815","194241.780852","195008.375632","195775.157434","199641.675068","185841.990082","186608.617007","187375.28718","188125.26278","188891.916588","189658.559585","190425.234726","198880.000701"
"Mixed","Female","tile","32","F_tile.wav","None","739.534550726","443","198875.012785","191191.853761","191958.949992","192708.528172","193475.116815","194241.780852","195008.375632","195775.157434","199641.675068","200408.271894","186608.617007","187375.28718","188125.26278","188891.916588","189658.559585","190425.234726","199646.820492"
"Mixed","Female","tile","32","M_lash.wav","space","581.198806571","443","198875.012785","191191.853761","191958.949992","192708.528172","193475.116815","194241.780852","195008.375632","195775.157434","199641.675068","200408.271894","201174.898526","187375.28718","188125.26278","188891.916588","189658.559585","190425.234726","200413.504984"
"Mixed","Female","tile","32","F_tile.wav","None","733.63139854","443","198875.012785","191191.853761","191958.949992","192708.528172","193475.116815","194241.780852","195008.375632","195775.157434","199641.675068","200408.271894","201174.898526","201941.631235","188125.26278","188891.916588","189658.559585","190425.234726","201180.010929"
"Mixed","Female","tile","32","F_romp.wav","space","535.88354417","443","198875.012785","191191.853761","191958.949992","192708.528172","193475.116815","194241.780852","195008.375632","195775.157434","199641.675068","200408.271894","201174.898526","201941.631235","202708.377386","188891.916588","189658.559585","190425.234726","201946.744807"
"Mixed","Female","tile","32","F_gnash.wav","None","727.469630955","443","198875.012785","191191.853761","191958.949992","192708.528172","193475.116815","194241.780852","195008.375632","195775.157434","199641.675068","200408.271894","201174.898526","201941.631235","202708.377386","203458.220317","189658.559585","190425.234726","202713.64525"
"Mixed","Female","tile","32","F_tile.wav","None","741.933975635","443","198875.012785","191191.853761","191958.949992","192708.528172","193475.116815","194241.780852","195008.375632","195775.157434","199641.675068","200408.271894","201174.898526","201941.631235","202708.377386","203458.220317","204224.908608","190425.234726","203463.198298"
"Mixed","Female","tile","32","M_reek.wav","space","540.477547215","443","198875.012785","191191.853761","191958.949992","192708.528172","193475.116815","194241.780852","195008.375632","195775.157434","199641.675068","200408.271894","201174.898526","201941.631235","202708.377386","203458.220317","204224.908608","204991.469198","204230.050817"
"Mixed","Female","tile","32","F_cad.wav","space","13.9073718537","443","198875.012785","205758.164795","191958.949992","192708.528172","193475.116815","194241.780852","195008.375632","195775.157434","199641.675068","200408.271894","201174.898526","201941.631235","202708.377386","203458.220317","204224.908608","204991.469198","204996.555594"
"Mixed","Female","tile","32","M_greet.wav","space","623.192103026","443","198875.012785","205758.164795","206524.814221","192708.528172","193475.116815","194241.780852","195008.375632","195775.157434","199641.675068","200408.271894","201174.898526","201941.631235","202708.377386","203458.220317","204224.908608","204991.469198","205763.22226"
"Mixed","Female","tile","32","M_lash.wav","None","729.082981939","443","198875.012785","205758.164795","206524.814221","207274.794204","193475.116815","194241.780852","195008.375632","195775.157434","199641.675068","200408.271894","201174.898526","201941.631235","202708.377386","203458.220317","204224.908608","204991.469198","206530.116275"
"Mixed","Female","tile","32","M_cad.wav","None","743.776427717","443","198875.012785","205758.164795","206524.814221","207274.794204","208041.490092","194241.780852","195008.375632","195775.157434","199641.675068","200408.271894","201174.898526","201941.631235","202708.377386","203458.220317","204224.908608","204991.469198","207279.798485"
"Mixed","Female","tile","32","F_tile.wav","None","741.041533341","443","198875.012785","205758.164795","206524.814221","207274.794204","208041.490092","208808.044254","195008.375632","195775.157434","199641.675068","200408.271894","201174.898526","201941.631235","202708.377386","203458.220317","204224.908608","204991.469198","208046.603956"
"Mixed","Female","tile","32","M_romp.wav","space","460.974497892","443","198875.012785","205758.164795","206524.814221","207274.794204","208041.490092","208808.044254","209574.739558","195775.157434","199641.675068","200408.271894","201174.898526","201941.631235","202708.377386","203458.220317","204224.908608","204991.469198","208813.276759"
"Mixed","Female","tile","32","M_depth.wav","None","735.690678449","443","198875.012785","205758.164795","206524.814221","207274.794204","208041.490092","208808.044254","209574.739558","210341.366483","199641.675068","200408.271894","201174.898526","201941.631235","202708.377386","203458.220317","204224.908608","204991.469198","209579.892287"
"Mixed","Female","done","43","F_jolt.wav","None","733.744780206","443","213441.291967","205758.164795","206524.814221","207274.794204","208041.490092","208808.044254","209574.739558","210341.366483","199641.675068","200408.271894","201174.898526","201941.631235","202708.377386","203458.220317","204224.908608","204991.469198","210346.203614"
"Mixed","Female","done","43","F_done.wav","None","741.456194643","443","213441.291967","205758.164795","206524.814221","207274.794204","208041.490092","208808.044254","209574.739558","210341.366483","214207.997206","200408.271894","201174.898526","201941.631235","202708.377386","203458.220317","204224.908608","204991.469198","213446.594897"
"Mixed","Female","done","43","M_bluff.wav","space","668.917058973","443","213441.291967","205758.164795","206524.814221","207274.794204","208041.490092","208808.044254","209574.739558","210341.366483","214207.997206","214974.60426","201174.898526","201941.631235","202708.377386","203458.220317","204224.908608","204991.469198","214212.997981"
"Mixed","Female","done","43","M_park.wav","None","735.603596654","443","213441.291967","205758.164795","206524.814221","207274.794204","208041.490092","208808.044254","209574.739558","210341.366483","214207.997206","214974.60426","215741.251348","201941.631235","202708.377386","203458.220317","204224.908608","204991.469198","214979.653543"
"Mixed","Female","done","43","F_done.wav","None","732.861104536","443","213441.291967","205758.164795","206524.814221","207274.794204","208041.490092","208808.044254","209574.739558","210341.366483","214207.997206","214974.60426","215741.251348","216507.892007","202708.377386","203458.220317","204224.908608","204991.469198","215746.418396"
"Mixed","Female","done","43","M_dime.wav","None","730.306218165","443","213441.291967","205758.164795","206524.814221","207274.794204","208041.490092","208808.044254","209574.739558","210341.366483","214207.997206","214974.60426","215741.251348","216507.892007","217274.709167","203458.220317","204224.908608","204991.469198","216512.939829"
"Mixed","Female","done","43","M_gnash.wav","space","225.034262888","443","213441.291967","205758.164795","206524.814221","207274.794204","208041.490092","208808.044254","209574.739558","210341.366483","214207.997206","214974.60426","215741.251348","216507.892007","217274.709167","218024.530474","204224.908608","204991.469198","217280.725409"
"Mixed","Female","done","43","F_done.wav","None","740.881396348","443","213441.291967","205758.164795","206524.814221","207274.794204","208041.490092","208808.044254","209574.739558","210341.366483","214207.997206","214974.60426","215741.251348","216507.892007","217274.709167","218024.530474","218791.136651","204991.469198","218029.716517"
"Mixed","Female","done","43","F_reek.wav","space","509.354279719","443","213441.291967","205758.164795","206524.814221","207274.794204","208041.490092","208808.044254","209574.739558","210341.366483","214207.997206","214974.60426","215741.251348","216507.892007","217274.709167","218024.530474","218791.136651","219557.848904","218796.28149"
"Mixed","Female","done","43","M_cling.wav","None","734.916877796","443","213441.291967","220324.487518","206524.814221","207274.794204","208041.490092","208808.044254","209574.739558","210341.366483","214207.997206","214974.60426","215741.251348","216507.892007","217274.709167","218024.530474","218791.136651","219557.848904","219562.956924"
"Mixed","Female","done","43","M_dime.wav","None","732.294780645","443","213441.291967","220324.487518","221091.105384","207274.794204","208041.490092","208808.044254","209574.739558","210341.366483","214207.997206","214974.60426","215741.251348","216507.892007","217274.709167","218024.530474","218791.136651","219557.848904","220329.645215"
"Mixed","Female","done","43","F_done.wav","None","729.576542853","443","213441.291967","220324.487518","221091.105384","221858.125345","208041.490092","208808.044254","209574.739558","210341.366483","214207.997206","214974.60426","215741.251348","216507.892007","217274.709167","218024.530474","218791.136651","219557.848904","221096.526371"
"Mixed","Female","done","43","F_romp.wav","space","482.300186729","443","213441.291967","220324.487518","221091.105384","221858.125345","222607.786515","208808.044254","209574.739558","210341.366483","214207.997206","214974.60426","215741.251348","216507.892007","217274.709167","218024.530474","218791.136651","219557.848904","221863.188363"
"Mixed","Female","done","43","F_jaw.wav","None","741.089749771","443","213441.291967","220324.487518","221091.105384","221858.125345","222607.786515","223374.401751","209574.739558","210341.366483","214207.997206","214974.60426","215741.251348","216507.892007","217274.709167","218024.530474","218791.136651","219557.848904","222612.649946"
"Mixed","Female","done","43","M_gnash.wav","None","738.400441838","443","213441.291967","220324.487518","221091.105384","221858.125345","222607.786515","223374.401751","224141.047378","210341.366483","214207.997206","214974.60426","215741.251348","216507.892007","217274.709167","218024.530474","218791.136651","219557.848904","223379.506848"
"Mixed","Female","done","43","M_jolt.wav","None","736.003354695","443","213441.291967","220324.487518","221091.105384","221858.125345","222607.786515","223374.401751","224141.047378","224907.688913","214207.997206","214974.60426","215741.251348","216507.892007","217274.709167","218024.530474","218791.136651","219557.848904","224146.12413"
"Mixed","Male","cave","14","F_cad.wav","None","733.299727943","443","228007.616735","220324.487518","221091.105384","221858.125345","222607.786515","223374.401751","224141.047378","224907.688913","214207.997206","214974.60426","215741.251348","216507.892007","217274.709167","218024.530474","218791.136651","219557.848904","224912.962622"
"Mixed","Male","cave","14","F_cling.wav","None","741.570160751","443","228007.616735","220324.487518","221091.105384","221858.125345","222607.786515","223374.401751","224141.047378","224907.688913","228774.311163","214974.60426","215741.251348","216507.892007","217274.709167","218024.530474","218791.136651","219557.848904","228012.753684"
"Mixed","Male","cave","14","M_park.wav","None","739.110538358","443","228007.616735","220324.487518","221091.105384","221858.125345","222607.786515","223374.401751","224141.047378","224907.688913","228774.311163","229540.914417","215741.251348","216507.892007","217274.709167","218024.530474","218791.136651","219557.848904","228779.252324"
"Mixed","Male","cave","14","M_cave.wav","None","736.306972096","443","228007.616735","220324.487518","221091.105384","221858.125345","222607.786515","223374.401751","224141.047378","224907.688913","228774.311163","229540.914417","230307.562966","216507.892007","217274.709167","218024.530474","218791.136651","219557.848904","229546.073868"
"Mixed","Male","cave","14","F_reek.wav","space","632.298579514","443","228007.616735","220324.487518","221091.105384","221858.125345","222607.786515","223374.401751","224141.047378","224907.688913","228774.311163","229540.914417","230307.562966","231074.206547","217274.709167","218024.530474","218791.136651","219557.848904","230312.696409"
"Mixed","Male","cave","14","F_lash.wav","None","730.272320555","443","228007.616735","220324.487518","221091.105384","221858.125345","222607.786515","223374.401751","224141.047378","224907.688913","228774.311163","229540.914417","230307.562966","231074.206547","231841.294304","218024.530474","218791.136651","219557.848904","231079.324795"
"Mixed","Male","cave","14","M_bluff.wav","None","726.544459932","443","228007.616735","220324.487518","221091.105384","221858.125345","222607.786515","223374.401751","224141.047378","224907.688913","228774.311163","229540.914417","230307.562966","231074.206547","231841.294304","232590.853781","218791.136651","219557.848904","231847.113589"
"Mixed","Male","cave","14","M_cave.wav","None","742.131809109","443","228007.616735","220324.487518","221091.105384","221858.125345","222607.786515","223374.401751","224141.047378","224907.688913","228774.311163","229540.914417","230307.562966","231074.206547","231841.294304","232590.853781","233357.486843","219557.848904","232595.877934"
"Mixed","Male","cave","14","F_lash.wav","space","414.464636901","443","228007.616735","220324.487518","221091.105384","221858.125345","222607.786515","223374.401751","224141.047378","224907.688913","228774.311163","229540.914417","230307.562966","231074.206547","231841.294304","232590.853781","233357.486843","234124.147957","233362.34326"
"Mixed","Male","cave","14","F_cad.wav","None","736.388209475","443","228007.616735","234890.776927","221091.105384","221858.125345","222607.786515","223374.401751","224141.047378","224907.688913","228774.311163","229540.914417","230307.562966","231074.206547","231841.294304","232590.853781","233357.486843","234124.147957","234128.925183"
"Mixed","Male","cave","14","M_cave.wav","None","733.546070069","443","228007.616735","234890.776927","235657.430152","221858.125345","222607.786515","223374.401751","224141.047378","224907.688913","228774.311163","229540.914417","230307.562966","231074.206547","231841.294304","232590.853781","233357.486843","234124.147957","234895.885531"
"Mixed","Male","cave","14","F_jaw.wav","space","586.009929662","443","228007.616735","234890.776927","235657.430152","236424.199096","222607.786515","223374.401751","224141.047378","224907.688913","228774.311163","229540.914417","230307.562966","231074.206547","231841.294304","232590.853781","233357.486843","234124.147957","235662.645709"
"Mixed","Male","cave","14","F_bluff.wav","None","727.694348742","443","228007.616735","234890.776927","235657.430152","236424.199096","237174.057807","223374.401751","224141.047378","224907.688913","228774.311163","229540.914417","230307.562966","231074.206547","231841.294304","232590.853781","233357.486843","234124.147957","236429.370819"
"Mixed","Male","cave","14","M_cave.wav","None","742.242560789","443","228007.616735","234890.776927","235657.430152","236424.199096","237174.057807","237940.780872","224141.047378","224907.688913","228774.311163","229540.914417","230307.562966","231074.206547","231841.294304","232590.853781","233357.486843","234124.147957","237179.113811"
"Mixed","Male","cave","14","M_knife.wav","space","502.851782693","443","228007.616735","234890.776927","235657.430152","236424.199096","237174.057807","237940.780872","238707.353444","224907.688913","228774.311163","229540.914417","230307.562966","231074.206547","231841.294304","232590.853781","233357.486843","234124.147957","237945.674402"
"Mixed","Male","cave","14","M_jolt.wav","None","736.703515709","443","228007.616735","234890.776927","235657.430152","236424.199096","237174.057807","237940.780872","238707.353444","239474.018357","228774.311163","229540.914417","230307.562966","231074.206547","231841.294304","232590.853781","233357.486843","234124.147957","238712.304833"
"Mixed","Female","cave","23","F_jaw.wav","None","734.28217424","443","242557.299529","234890.776927","235657.430152","236424.199096","237174.057807","237940.780872","238707.353444","239474.018357","228774.311163","229540.914417","230307.562966","231074.206547","231841.294304","232590.853781","233357.486843","234124.147957","239479.067933"
"Mixed","Female","cave","23","F_cave.wav","None","741.07455429","443","242557.299529","234890.776927","235657.430152","236424.199096","237174.057807","237940.780872","238707.353444","239474.018357","243323.906583","229540.914417","230307.562966","231074.206547","231841.294304","232590.853781","233357.486843","234124.147957","242562.430926"
"Mixed","Female","cave","23","M_jaw.wav","space","687.16274068","443","242557.299529","234890.776927","235657.430152","236424.199096","237174.057807","237940.780872","238707.353444","239474.018357","243323.906583","244090.579386","230307.562966","231074.206547","231841.294304","232590.853781","233357.486843","234124.147957","243329.084735"
"Mixed","Female","cave","23","M_priest.wav","None","735.343227929","443","242557.299529","234890.776927","235657.430152","236424.199096","237174.057807","237940.780872","238707.353444","239474.018357","243323.906583","244090.579386","244857.172121","231074.206547","231841.294304","232590.853781","233357.486843","234124.147957","244095.430544"
"Mixed","Female","cave","23","M_bluff.wav","None","732.885358862","443","242557.299529","234890.776927","235657.430152","236424.199096","237174.057807","237940.780872","238707.353444","239474.018357","243323.906583","244090.579386","244857.172121","245623.822423","231841.294304","232590.853781","233357.486843","234124.147957","244862.249165"
"Mixed","Female","cave","23","F_reek.wav","None","733.844719716","443","242557.299529","234890.776927","235657.430152","236424.199096","237174.057807","237940.780872","238707.353444","239474.018357","243323.906583","244090.579386","244857.172121","245623.822423","246390.768453","232590.853781","233357.486843","234124.147957","245625.459736"
"Mixed","Female","cave","23","F_jaw.wav","None","727.059060744","443","242557.299529","234890.776927","235657.430152","236424.199096","237174.057807","237940.780872","238707.353444","239474.018357","243323.906583","244090.579386","244857.172121","245623.822423","246390.768453","247140.435175","233357.486843","234124.147957","246396.38932"
"Mixed","Female","cave","23","F_cave.wav","None","742.073072731","443","242557.299529","234890.776927","235657.430152","236424.199096","237174.057807","237940.780872","238707.353444","239474.018357","243323.906583","244090.579386","244857.172121","245623.822423","246390.768453","247140.435175","247907.163793","234124.147957","247145.606607"
"Mixed","Female","cave","23","M_priest.wav","space","639.572539428","443","242557.299529","234890.776927","235657.430152","236424.199096","237174.057807","237940.780872","238707.353444","239474.018357","243323.906583","244090.579386","244857.172121","245623.822423","246390.768453","247140.435175","247907.163793","248673.774645","247912.401266"
"Mixed","Female","cave","23","F_cave.wav","None","736.488148986","443","242557.299529","249440.467904","235657.430152","236424.199096","237174.057807","237940.780872","238707.353444","239474.018357","243323.906583","244090.579386","244857.172121","245623.822423","246390.768453","247140.435175","247907.163793","248673.774645","248678.73071"
"Mixed","Female","cave","23","M_reek.wav","space","674.521561511","443","242557.299529","249440.467904","250207.110316","236424.199096","237174.057807","237940.780872","238707.353444","239474.018357","243323.906583","244090.579386","244857.172121","245623.822423","246390.768453","247140.435175","247907.163793","248673.774645","249445.419585"
"Mixed","Female","cave","23","M_cling.wav","None","730.28897714","443","242557.299529","249440.467904","250207.110316","250973.948517","237174.057807","237940.780872","238707.353444","239474.018357","243323.906583","244090.579386","244857.172121","245623.822423","246390.768453","247140.435175","247907.163793","248673.774645","250212.263922"
"Mixed","Female","cave","23","F_depth.wav","None","726.978115586","443","242557.299529","249440.467904","250207.110316","250973.948517","251723.729789","237940.780872","238707.353444","239474.018357","243323.906583","244090.579386","244857.172121","245623.822423","246390.768453","247140.435175","247907.163793","248673.774645","250979.929399"
"Mixed","Female","cave","23","F_cave.wav","None","742.473707434","443","242557.299529","249440.467904","250207.110316","250973.948517","251723.729789","252490.340057","238707.353444","239474.018357","243323.906583","244090.579386","244857.172121","245623.822423","246390.768453","247140.435175","247907.163793","248673.774645","251728.780826"
"Mixed","Female","cave","23","M_lash.wav","space","600.154584798","443","242557.299529","249440.467904","250207.110316","250973.948517","251723.729789","252490.340057","253256.997373","239474.018357","243323.906583","244090.579386","244857.172121","245623.822423","246390.768453","247140.435175","247907.163793","248673.774645","252495.620487"
"Mixed","Female","cave","23","M_greet.wav","None","736.780954217","443","242557.299529","249440.467904","250207.110316","250973.948517","251723.729789","252490.340057","253256.997373","254023.671053","243323.906583","244090.579386","244857.172121","245623.822423","246390.768453","247140.435175","247907.163793","248673.774645","253262.053085"
"Mixed","Female","tile","36","M_bluff.wav","None","734.695666658","443","257123.565853","249440.467904","250207.110316","250973.948517","251723.729789","252490.340057","253256.997373","254023.671053","243323.906583","244090.579386","244857.172121","245623.822423","246390.768453","247140.435175","247907.163793","248673.774645","254028.667444"
"Mixed","Female","tile","36","M_cad.wav","None","741.268296674","443","257123.565853","249440.467904","250207.110316","250973.948517","251723.729789","252490.340057","253256.997373","254023.671053","257890.213234","244090.579386","244857.172121","245623.822423","246390.768453","247140.435175","247907.163793","248673.774645","257128.542666"
"Mixed","Female","tile","36","M_jaw.wav","None","738.832636386","443","257123.565853","249440.467904","250207.110316","250973.948517","251723.729789","252490.340057","253256.997373","254023.671053","257890.213234","258656.862951","244857.172121","245623.822423","246390.768453","247140.435175","247907.163793","248673.774645","257895.39197"
"Mixed","Female","tile","36","F_tile.wav","None","736.708191241","443","257123.565853","249440.467904","250207.110316","250973.948517","251723.729789","252490.340057","253256.997373","254023.671053","257890.213234","258656.862951","259423.544521","245623.822423","246390.768453","247140.435175","247907.163793","248673.774645","258661.915157"
"Mixed","Female","tile","36","M_knife.wav","space","610.69294316","443","257123.565853","249440.467904","250207.110316","250973.948517","251723.729789","252490.340057","253256.997373","254023.671053","257890.213234","258656.862951","259423.544521","260190.124983","246390.768453","247140.435175","247907.163793","248673.774645","259428.620689"
"Mixed","Female","tile","36","F_greet.wav","None","730.817312328","443","257123.565853","249440.467904","250207.110316","250973.948517","251723.729789","252490.340057","253256.997373","254023.671053","257890.213234","258656.862951","259423.544521","260190.124983","260956.842204","247140.435175","247907.163793","248673.774645","260195.353689"
"Mixed","Female","tile","36","F_cad.wav","None","732.341535971","443","257123.565853","249440.467904","250207.110316","250973.948517","251723.729789","252490.340057","253256.997373","254023.671053","257890.213234","258656.862951","259423.544521","260190.124983","260956.842204","261706.748255","247907.163793","248673.774645","260958.557832"
"Mixed","Female","tile","36","M_dime.wav","None","743.403553989","443","257123.565853","249440.467904","250207.110316","250973.948517","251723.729789","252490.340057","253256.997373","254023.671053","257890.213234","258656.862951","259423.544521","260190.124983","260956.842204","261706.748255","262473.408785","248673.774645","261711.893094"
"Mixed","Female","tile","36","F_tile.wav","None","741.001206872","443","257123.565853","249440.467904","250207.110316","250973.948517","251723.729789","252490.340057","253256.997373","254023.671053","257890.213234","258656.862951","259423.544521","260190.124983","260956.842204","261706.748255","262473.408785","263240.12396","262478.626387"
"Mixed","Female","tile","36","M_knife.wav","None","738.941342521","443","257123.565853","264006.698869","250207.110316","250973.948517","251723.729789","252490.340057","253256.997373","254023.671053","257890.213234","258656.862951","259423.544521","260190.124983","260956.842204","261706.748255","262473.408785","263240.12396","263245.082655"
"Mixed","Female","tile","36","F_tile.wav","space","3.05662946723","443","257123.565853","264006.698869","264773.380732","250973.948517","251723.729789","252490.340057","253256.997373","254023.671053","257890.213234","258656.862951","259423.544521","260190.124983","260956.842204","261706.748255","262473.408785","263240.12396","264012.008813"
"Mixed","Female","tile","36","M_jolt.wav","space","556.482772124","443","257123.565853","264006.698869","264773.380732","265540.029865","251723.729789","252490.340057","253256.997373","254023.671053","257890.213234","258656.862951","259423.544521","260190.124983","260956.842204","261706.748255","262473.408785","263240.12396","264778.556546"
"Mixed","Female","tile","36","F_depth.wav","None","730.040297247","443","257123.565853","264006.698869","264773.380732","265540.029865","266307.08577","252490.340057","253256.997373","254023.671053","257890.213234","258656.862951","259423.544521","260190.124983","260956.842204","261706.748255","262473.408785","263240.12396","265545.054309"
"Mixed","Female","tile","36","F_tile.wav","None","726.869409451","443","257123.565853","264006.698869","264773.380732","265540.029865","266307.08577","267056.692879","253256.997373","254023.671053","257890.213234","258656.862951","259423.544521","260190.124983","260956.842204","261706.748255","262473.408785","263240.12396","266312.609912"
"Mixed","Female","tile","36","F_jaw.wav","None","741.82117841","443","257123.565853","264006.698869","264773.380732","265540.029865","266307.08577","267056.692879","267823.256976","254023.671053","257890.213234","258656.862951","259423.544521","260190.124983","260956.842204","261706.748255","262473.408785","263240.12396","267062.089905"
"Mixed","Female","tile","36","M_cling.wav","space","10.4138723054","443","257123.565853","264006.698869","264773.380732","265540.029865","266307.08577","267056.692879","267823.256976","268589.977996","257890.213234","258656.862951","259423.544521","260190.124983","260956.842204","261706.748255","262473.408785","263240.12396","267828.409121"
"Mixed","Female","done","47","M_bluff.wav","None","736.63718159","443","271706.558603","264006.698869","264773.380732","265540.029865","266307.08577","267056.692879","267823.256976","268589.977996","257890.213234","258656.862951","259423.544521","260190.124983","260956.842204","261706.748255","262473.408785","263240.12396","268595.079879"
"Mixed","Female","done","47","F_done.wav","None","741.310668689","443","271706.558603","264006.698869","264773.380732","265540.029865","266307.08577","267056.692879","267823.256976","268589.977996","272473.217088","258656.862951","259423.544521","260190.124983","260956.842204","261706.748255","262473.408785","263240.12396","271711.669837"
"Mixed","Female","done","47","M_cling.wav","space","720.255576303","443","271706.558603","264006.698869","264773.380732","265540.029865","266307.08577","267056.692879","267823.256976","268589.977996","272473.217088","273239.855701","259423.544521","260190.124983","260956.842204","261706.748255","262473.408785","263240.12396","272478.366018"
"Mixed","Female","done","47","M_knife.wav","None","735.849354338","443","271706.558603","264006.698869","264773.380732","265540.029865","266307.08577","267056.692879","267823.256976","268589.977996","272473.217088","273239.855701","274006.480288","260190.124983","260956.842204","261706.748255","262473.408785","263240.12396","273244.731113"
"Mixed","Female","done","47","M_jaw.wav","None","733.209139497","443","271706.558603","264006.698869","264773.380732","265540.029865","266307.08577","267056.692879","267823.256976","268589.977996","272473.217088","273239.855701","274006.480288","274773.134389","260956.842204","261706.748255","262473.408785","263240.12396","274011.689708"
"Mixed","Female","done","47","F_done.wav","None","730.983293738","443","271706.558603","264006.698869","264773.380732","265540.029865","266307.08577","267056.692879","267823.256976","268589.977996","272473.217088","273239.855701","274006.480288","274773.134389","275539.896905","261706.748255","262473.408785","263240.12396","274778.332997"
"Mixed","Female","done","47","M_park.wav","space","324.863313725","443","271706.558603","264006.698869","264773.380732","265540.029865","266307.08577","267056.692879","267823.256976","268589.977996","272473.217088","273239.855701","274006.480288","274773.134389","275539.896905","276289.775779","262473.408785","263240.12396","275545.560728"
"Mixed","Female","done","47","M_bluff.wav","None","742.016381898","443","271706.558603","264006.698869","264773.380732","265540.029865","266307.08577","267056.692879","267823.256976","268589.977996","272473.217088","273239.855701","274006.480288","274773.134389","275539.896905","276289.775779","277056.366468","263240.12396","276295.02874"
"Mixed","Female","done","47","F_bluff.wav","None","739.729754213","443","271706.558603","264006.698869","264773.380732","265540.029865","266307.08577","267056.692879","267823.256976","268589.977996","272473.217088","273239.855701","274006.480288","274773.134389","275539.896905","276289.775779","277056.366468","277823.032843","277061.791255"
"Mixed","Female","done","47","F_knife.wav","None","737.51764283","443","271706.558603","278589.706815","264773.380732","265540.029865","266307.08577","267056.692879","267823.256976","268589.977996","272473.217088","273239.855701","274006.480288","274773.134389","275539.896905","276289.775779","277056.366468","277823.032843","277828.360904"
"Mixed","Female","done","47","F_bluff.wav","None","735.555088002","443","271706.558603","278589.706815","279356.429588","265540.029865","266307.08577","267056.692879","267823.256976","268589.977996","272473.217088","273239.855701","274006.480288","274773.134389","275539.896905","276289.775779","277056.366468","277823.032843","278594.859252"
"Mixed","Female","done","47","F_done.wav","None","733.621755253","443","271706.558603","278589.706815","279356.429588","280123.000114","266307.08577","267056.692879","267823.256976","268589.977996","272473.217088","273239.855701","274006.480288","274773.134389","275539.896905","276289.775779","277056.366468","277823.032843","279361.383607"
"Mixed","Female","done","47","M_cad.wav","space","478.219615613","443","271706.558603","278589.706815","279356.429588","280123.000114","280889.946144","267056.692879","267823.256976","268589.977996","272473.217088","273239.855701","274006.480288","274773.134389","275539.896905","276289.775779","277056.366468","277823.032843","280127.938645"
"Mixed","Female","done","47","F_done.wav","None","726.714824653","443","271706.558603","278589.706815","279356.429588","280123.000114","280889.946144","281639.688843","267823.256976","268589.977996","272473.217088","273239.855701","274006.480288","274773.134389","275539.896905","276289.775779","277056.366468","277823.032843","280895.790852"
"Mixed","Female","done","47","F_cad.wav","space","609.257262417","443","271706.558603","278589.706815","279356.429588","280123.000114","280889.946144","281639.688843","282406.265214","268589.977996","272473.217088","273239.855701","274006.480288","274773.134389","275539.896905","276289.775779","277056.366468","277823.032843","281644.815273"
"Mixed","Female","done","47","M_park.wav","None","738.802537646","443","271706.558603","278589.706815","279356.429588","280123.000114","280889.946144","281639.688843","282406.265214","283172.897983","272473.217088","273239.855701","274006.480288","274773.134389","275539.896905","276289.775779","277056.366468","277823.032843","282411.406839"
"Mixed","Male","tile","30","M_jolt.wav","None","736.642733784","443","286272.851227","278589.706815","279356.429588","280123.000114","280889.946144","281639.688843","282406.265214","283172.897983","272473.217088","273239.855701","274006.480288","274773.134389","275539.896905","276289.775779","277056.366468","277823.032843","283178.072044"
"Mixed","Male","tile","30","F_park.wav","None","741.28173883","443","286272.851227","278589.706815","279356.429588","280123.000114","280889.946144","281639.688843","282406.265214","283172.897983","287039.464126","273239.855701","274006.480288","274773.134389","275539.896905","276289.775779","277056.366468","277823.032843","286277.922135"
"Mixed","Male","tile","30","M_tile.wav","None","739.11141502","443","286272.851227","278589.706815","279356.429588","280123.000114","280889.946144","281639.688843","282406.265214","283172.897983","287039.464126","287806.157384","274006.480288","274773.134389","275539.896905","276289.775779","277056.366468","277823.032843","287044.645785"
"Mixed","Male","tile","30","F_gnash.wav","space","578.17432139","443","286272.851227","278589.706815","279356.429588","280123.000114","280889.946144","281639.688843","282406.265214","283172.897983","287039.464126","287806.157384","288572.818499","274773.134389","275539.896905","276289.775779","277056.366468","277823.032843","287811.513791"
"Mixed","Male","tile","30","M_romp.wav","None","733.704161517","443","286272.851227","278589.706815","279356.429588","280123.000114","280889.946144","281639.688843","282406.265214","283172.897983","287039.464126","287806.157384","288572.818499","289339.46471","275539.896905","276289.775779","277056.366468","277823.032843","288577.961"
"Mixed","Male","tile","30","M_romp.wav","None","735.652689747","443","286272.851227","278589.706815","279356.429588","280123.000114","280889.946144","281639.688843","282406.265214","283172.897983","287039.464126","287806.157384","288572.818499","289339.46471","290106.089589","276289.775779","277056.366468","277823.032843","289340.944224"
"Mixed","Male","tile","30","M_tile.wav","None","730.024517325","443","286272.851227","278589.706815","279356.429588","280123.000114","280889.946144","281639.688843","282406.265214","283172.897983","287039.464126","287806.157384","288572.818499","289339.46471","290106.089589","290873.252739","277056.366468","277823.032843","290111.140625"
"Mixed","Male","tile","30","F_bluff.wav","space","694.847563024","443","286272.851227","278589.706815","279356.429588","280123.000114","280889.946144","281639.688843","282406.265214","283172.897983","287039.464126","287806.157384","288572.818499","289339.46471","290106.089589","290873.252739","291622.707017","277823.032843","290878.69652"
"Mixed","Male","tile","30","F_jaw.wav","None","742.425783224","443","286272.851227","278589.706815","279356.429588","280123.000114","280889.946144","281639.688843","282406.265214","283172.897983","287039.464126","287806.157384","288572.818499","289339.46471","290106.089589","290873.252739","291622.707017","292389.380696","291626.574266"
"Mixed","Male","tile","30","M_tile.wav","None","739.262200948","443","286272.851227","293156.015219","279356.429588","280123.000114","280889.946144","281639.688843","282406.265214","283172.897983","287039.464126","287806.157384","288572.818499","289339.46471","290106.089589","290873.252739","291622.707017","292389.380696","292394.40894"
"Mixed","Male","tile","30","M_reek.wav","space","668.245535597","443","286272.851227","293156.015219","293922.607077","280123.000114","280889.946144","281639.688843","282406.265214","283172.897983","287039.464126","287806.157384","288572.818499","289339.46471","290106.089589","290873.252739","291622.707017","292389.380696","293161.155675"
"Mixed","Male","tile","30","M_tile.wav","None","733.944367005","443","286272.851227","293156.015219","293922.607077","294689.343584","280889.946144","281639.688843","282406.265214","283172.897983","287039.464126","287806.157384","288572.818499","289339.46471","290106.089589","290873.252739","291622.707017","292389.380696","293927.529828"
"Mixed","Male","tile","30","F_priest.wav","space","710.82239697","443","286272.851227","293156.015219","293922.607077","294689.343584","295456.180908","281639.688843","282406.265214","283172.897983","287039.464126","287806.157384","288572.818499","289339.46471","290106.089589","290873.252739","291622.707017","292389.380696","294694.45774"
"Mixed","Male","tile","30","F_jolt.wav","None","727.151110293","443","286272.851227","293156.015219","293922.607077","294689.343584","295456.180908","296205.89234","282406.265214","283172.897983","287039.464126","287806.157384","288572.818499","289339.46471","290106.089589","290873.252739","291622.707017","292389.380696","295462.1577"
"Mixed","Male","tile","30","F_jolt.wav","None","742.88982984","443","286272.851227","293156.015219","293922.607077","294689.343584","295456.180908","296205.89234","296972.589398","283172.897983","287039.464126","287806.157384","288572.818499","289339.46471","290106.089589","290873.252739","291622.707017","292389.380696","296211.079551"
"Mixed","Male","tile","30","F_jaw.wav","None","740.945684922","443","286272.851227","293156.015219","293922.607077","294689.343584","295456.180908","296205.89234","296972.589398","297739.246421","287039.464126","287806.157384","288572.818499","289339.46471","290106.089589","290873.252739","291622.707017","292389.380696","296977.715827"
"Mixed","Female","tile","34","M_reek.wav","None","739.20375679","443","300839.141222","293156.015219","293922.607077","294689.343584","295456.180908","296205.89234","296972.589398","297739.246421","287039.464126","287806.157384","288572.818499","289339.46471","290106.089589","290873.252739","291622.707017","292389.380696","297744.203947"
"Mixed","Female","tile","34","M_priest.wav","None","741.290797675","443","300839.141222","293156.015219","293922.607077","294689.343584","295456.180908","296205.89234","296972.589398","297739.246421","301605.845585","287806.157384","288572.818499","289339.46471","290106.089589","290873.252739","291622.707017","292389.380696","300844.104299"
"Mixed","Female","tile","34","F_depth.wav","None","738.955076899","443","300839.141222","293156.015219","293922.607077","294689.343584","295456.180908","296205.89234","296972.589398","297739.246421","301605.845585","302372.455561","288572.818499","289339.46471","290106.089589","290873.252739","291622.707017","292389.380696","301611.108773"
"Mixed","Female","tile","34","F_tile.wav","None","736.788844179","443","300839.141222","293156.015219","293922.607077","294689.343584","295456.180908","296205.89234","296972.589398","297739.246421","301605.845585","302372.455561","303139.081608","289339.46471","290106.089589","290873.252739","291622.707017","292389.380696","302377.905478"
"Mixed","Female","tile","34","F_park.wav","space","572.852980798","443","300839.141222","293156.015219","293922.607077","294689.343584","295456.180908","296205.89234","296972.589398","297739.246421","301605.845585","302372.455561","303139.081608","303905.784511","290106.089589","290873.252739","291622.707017","292389.380696","303143.997054"
"Mixed","Female","tile","34","F_cad.wav","None","731.583223021","443","300839.141222","293156.015219","293922.607077","294689.343584","295456.180908","296205.89234","296972.589398","297739.246421","301605.845585","302372.455561","303139.081608","303905.784511","304672.35942","290873.252739","291622.707017","292389.380696","303910.910063"
"Mixed","Female","tile","34","M_lash.wav","None","729.639370323","443","300839.141222","293156.015219","293922.607077","294689.343584","295456.180908","296205.89234","296972.589398","297739.246421","301605.845585","302372.455561","303139.081608","303905.784511","304672.35942","305439.265415","291622.707017","292389.380696","304677.506012"
"Mixed","Female","tile","34","M_knife.wav","None","726.606995181","443","300839.141222","293156.015219","293922.607077","294689.343584","295456.180908","296205.89234","296972.589398","297739.246421","301605.845585","302372.455561","303139.081608","303905.784511","304672.35942","305439.265415","306189.037629","292389.380696","305445.143144"
"Mixed","Female","tile","34","F_tile.wav","None","742.273243973","443","300839.141222","293156.015219","293922.607077","294689.343584","295456.180908","296205.89234","296972.589398","297739.246421","301605.845585","302372.455561","303139.081608","303905.784511","304672.35942","305439.265415","306189.037629","306955.676243","306194.178377"
"Mixed","Female","tile","34","M_lash.wav","space","571.97748731","443","300839.141222","307722.323331","293922.607077","294689.343584","295456.180908","296205.89234","296972.589398","297739.246421","301605.845585","302372.455561","303139.081608","303905.784511","304672.35942","305439.265415","306189.037629","306955.676243","306960.696596"
"Mixed","Female","tile","34","F_tile.wav","None","737.240617521","443","300839.141222","307722.323331","308488.923079","294689.343584","295456.180908","296205.89234","296972.589398","297739.246421","301605.845585","302372.455561","303139.081608","303905.784511","304672.35942","305439.265415","306189.037629","306955.676243","307727.312416"
"Mixed","Female","tile","34","F_jolt.wav","space","454.499177399","443","300839.141222","307722.323331","308488.923079","309255.644683","295456.180908","296205.89234","296972.589398","297739.246421","301605.845585","302372.455561","303139.081608","303905.784511","304672.35942","305439.265415","306189.037629","306955.676243","308494.062074"
"Mixed","Female","tile","34","F_tile.wav","None","731.578839708","443","300839.141222","307722.323331","308488.923079","309255.644683","310022.266348","296205.89234","296972.589398","297739.246421","301605.845585","302372.455561","303139.081608","303905.784511","304672.35942","305439.265415","306189.037629","306955.676243","309260.973329"
"Mixed","Female","tile","34","M_depth.wav","space","497.032790095","443","300839.141222","307722.323331","308488.923079","309255.644683","310022.266348","310772.239609","296972.589398","297739.246421","301605.845585","302372.455561","303139.081608","303905.784511","304672.35942","305439.265415","306189.037629","306955.676243","310027.450929"
"Mixed","Female","tile","34","M_park.wav","None","743.00087374","443","300839.141222","307722.323331","308488.923079","309255.644683","310022.266348","310772.239609","311538.953031","297739.246421","301605.845585","302372.455561","303139.081608","303905.784511","304672.35942","305439.265415","306189.037629","306955.676243","310777.427113"
"Mixed","Female","tile","34","M_knife.wav","None","740.93428831","443","300839.141222","307722.323331","308488.923079","309255.644683","310022.266348","310772.239609","311538.953031","312305.561838","301605.845585","302372.455561","303139.081608","303905.784511","304672.35942","305439.265415","306189.037629","306955.676243","311544.049654"
"Mixed","Female","done","48","M_jaw.wav","None","739.097388422","443","315405.46599","307722.323331","308488.923079","309255.644683","310022.266348","310772.239609","311538.953031","312305.561838","301605.845585","302372.455561","303139.081608","303905.784511","304672.35942","305439.265415","306189.037629","306955.676243","312310.637713"
"Mixed","Female","done","48","F_done.wav","None","740.791684565","443","315405.46599","307722.323331","308488.923079","309255.644683","310022.266348","310772.239609","311538.953031","312305.561838","316172.137332","302372.455561","303139.081608","303905.784511","304672.35942","305439.265415","306189.037629","306955.676243","315410.59125"
"Mixed","Female","done","48","M_dime.wav","space","570.940395725","443","315405.46599","307722.323331","308488.923079","309255.644683","310022.266348","310772.239609","311538.953031","312305.561838","316172.137332","316938.740002","303139.081608","303905.784511","304672.35942","305439.265415","306189.037629","306955.676243","316177.144243"
"Mixed","Female","done","48","M_cad.wav","None","735.26608164","443","315405.46599","307722.323331","308488.923079","309255.644683","310022.266348","310772.239609","311538.953031","312305.561838","316172.137332","316938.740002","317705.420696","303905.784511","304672.35942","305439.265415","306189.037629","306955.676243","316943.829904"
"Mixed","Female","done","48","M_priest.wav","None","733.278980267","443","315405.46599","307722.323331","308488.923079","309255.644683","310022.266348","310772.239609","311538.953031","312305.561838","316172.137332","316938.740002","317705.420696","318472.021028","304672.35942","305439.265415","306189.037629","306955.676243","317710.450108"
"Mixed","Female","done","48","F_done.wav","None","731.087324339","443","315405.46599","307722.323331","308488.923079","309255.644683","310022.266348","310772.239609","311538.953031","312305.561838","316172.137332","316938.740002","317705.420696","318472.021028","319238.720424","305439.265415","306189.037629","306955.676243","318477.268729"
"Mixed","Female","done","48","F_priest.wav","space","423.993956874","443","315405.46599","307722.323331","308488.923079","309255.644683","310022.266348","310772.239609","311538.953031","312305.561838","316172.137332","316938.740002","317705.420696","318472.021028","319238.720424","319988.731966","306189.037629","306955.676243","319243.988288"
"Mixed","Female","done","48","F_dime.wav","None","742.248989646","443","315405.46599","307722.323331","308488.923079","309255.644683","310022.266348","310772.239609","311538.953031","312305.561838","316172.137332","316938.740002","317705.420696","318472.021028","319238.720424","319988.731966","320755.3548","306955.676243","319994.002753"
"Mixed","Female","done","48","F_reek.wav","None","740.303091404","443","315405.46599","307722.323331","308488.923079","309255.644683","310022.266348","310772.239609","311538.953031","312305.561838","316172.137332","316938.740002","317705.420696","318472.021028","319238.720424","319988.731966","320755.3548","321522.035201","320760.615943"
"Mixed","Female","done","48","F_cling.wav","None","738.594768663","443","315405.46599","322288.651313","308488.923079","309255.644683","310022.266348","310772.239609","311538.953031","312305.561838","316172.137332","316938.740002","317705.420696","318472.021028","319238.720424","319988.731966","320755.3548","321522.035201","321526.946848"
"Mixed","Female","done","48","F_done.wav","None","736.561204184","443","315405.46599","322288.651313","323055.31535","309255.644683","310022.266348","310772.239609","311538.953031","312305.561838","316172.137332","316938.740002","317705.420696","318472.021028","319238.720424","319988.731966","320755.3548","321522.035201","322293.693583"
"Mixed","Female","done","48","M_jolt.wav","space","479.17283983","443","315405.46599","322288.651313","323055.31535","323821.90487","310022.266348","310772.239609","311538.953031","312305.561838","316172.137332","316938.740002","317705.420696","318472.021028","319238.720424","319988.731966","320755.3548","321522.035201","323060.544641"
"Mixed","Female","done","48","F_done.wav","None","731.267916787","443","315405.46599","322288.651313","323055.31535","323821.90487","324588.599883","310772.239609","311538.953031","312305.561838","316172.137332","316938.740002","317705.420696","318472.021028","319238.720424","319988.731966","320755.3548","321522.035201","323826.997694"
"Mixed","Female","done","48","M_depth.wav","space","642.236716374","443","315405.46599","322288.651313","323055.31535","323821.90487","324588.599883","325338.59623","311538.953031","312305.561838","316172.137332","316938.740002","317705.420696","318472.021028","319238.720424","319988.731966","320755.3548","321522.035201","324593.392011"
"Mixed","Female","done","48","M_greet.wav","None","742.451790875","443","315405.46599","322288.651313","323055.31535","323821.90487","324588.599883","325338.59623","326105.202115","312305.561838","316172.137332","316938.740002","317705.420696","318472.021028","319238.720424","319988.731966","320755.3548","321522.035201","325343.901498"
"Mixed","Female","done","48","M_romp.wav","None","740.702849445","443","315405.46599","322288.651313","323055.31535","323821.90487","324588.599883","325338.59623","326105.202115","326871.847741","316172.137332","316938.740002","317705.420696","318472.021028","319238.720424","319988.731966","320755.3548","321522.035201","326110.38728"
"Mixed","Female","ball","9","F_greet.wav","None","738.870040647","443","329988.511047","322288.651313","323055.31535","323821.90487","324588.599883","325338.59623","326105.202115","326871.847741","316172.137332","316938.740002","317705.420696","318472.021028","319238.720424","319988.731966","320755.3548","321522.035201","326876.987613"
"Mixed","Female","ball","9","F_jaw.wav","None","741.153746124","443","329988.511047","322288.651313","323055.31535","323821.90487","324588.599883","325338.59623","326105.202115","326871.847741","330755.100568","316938.740002","317705.420696","318472.021028","319238.720424","319988.731966","320755.3548","321522.035201","329993.388212"
"Mixed","Female","ball","9","F_ball.wav","None","739.063490812","443","329988.511047","322288.651313","323055.31535","323821.90487","324588.599883","325338.59623","326105.202115","326871.847741","330755.100568","331521.772494","317705.420696","318472.021028","319238.720424","319988.731966","320755.3548","321522.035201","330760.236056"
"Mixed","Female","ball","9","M_lash.wav","space","516.436835015","443","329988.511047","322288.651313","323055.31535","323821.90487","324588.599883","325338.59623","326105.202115","326871.847741","330755.100568","331521.772494","332288.376334","318472.021028","319238.720424","319988.731966","320755.3548","321522.035201","331526.812719"
"Mixed","Female","ball","9","M_park.wav","None","733.652730657","443","329988.511047","322288.651313","323055.31535","323821.90487","324588.599883","325338.59623","326105.202115","326871.847741","330755.100568","331521.772494","332288.376334","333055.046507","319238.720424","319988.731966","320755.3548","321522.035201","332293.714623"
"Mixed","Female","ball","9","F_ball.wav","None","731.999637645","443","329988.511047","322288.651313","323055.31535","323821.90487","324588.599883","325338.59623","326105.202115","326871.847741","330755.100568","331521.772494","332288.376334","333055.046507","333821.629598","319988.731966","320755.3548","321522.035201","333060.196022"
"Mixed","Female","ball","9","M_dime.wav","space","480.287662146","443","329988.511047","322288.651313","323055.31535","323821.90487","324588.599883","325338.59623","326105.202115","326871.847741","330755.100568","331521.772494","332288.376334","333055.046507","333821.629598","334571.685559","320755.3548","321522.035201","333826.782912"
"Mixed","Female","ball","9","F_ball.wav","None","743.26328801","443","329988.511047","322288.651313","323055.31535","323821.90487","324588.599883","325338.59623","326105.202115","326871.847741","330755.100568","331521.772494","332288.376334","333055.046507","333821.629598","334571.685559","335338.311022","321522.035201","334576.942026"
"Mixed","Female","ball","9","M_gnash.wav","space","470.872016061","443","329988.511047","322288.651313","323055.31535","323821.90487","324588.599883","325338.59623","326105.202115","326871.847741","330755.100568","331521.772494","332288.376334","333055.046507","333821.629598","334571.685559","335338.311022","336104.989962","335340.140617"
"Mixed","Female","ball","9","M_lash.wav","None","738.443398293","443","329988.511047","336871.602276","323055.31535","323821.90487","324588.599883","325338.59623","326105.202115","326871.847741","330755.100568","331521.772494","332288.376334","333055.046507","333821.629598","334571.685559","335338.311022","336104.989962","336110.025219"
"Mixed","Female","ball","9","M_priest.wav","None","736.828001765","443","329988.511047","336871.602276","337638.272157","323821.90487","324588.599883","325338.59623","326105.202115","326871.847741","330755.100568","331521.772494","332288.376334","333055.046507","333821.629598","334571.685559","335338.311022","336104.989962","336876.456063"
"Mixed","Female","ball","9","F_park.wav","None","734.699465528","443","329988.511047","336871.602276","337638.272157","338404.864015","324588.599883","325338.59623","326105.202115","326871.847741","330755.100568","331521.772494","332288.376334","333055.046507","333821.629598","334571.685559","335338.311022","336104.989962","337643.311504"
"Mixed","Female","ball","9","M_jolt.wav","None","733.075594596","443","329988.511047","336871.602276","337638.272157","338404.864015","339171.541786","325338.59623","326105.202115","326871.847741","330755.100568","331521.772494","332288.376334","333055.046507","333821.629598","334571.685559","335338.311022","336104.989962","338409.872679"
"Mixed","Female","ball","9","F_ball.wav","None","730.826371173","443","329988.511047","336871.602276","337638.272157","338404.864015","339171.541786","339938.238844","326105.202115","326871.847741","330755.100568","331521.772494","332288.376334","333055.046507","333821.629598","334571.685559","335338.311022","336104.989962","339176.814034"
"Mixed","Female","ball","9","M_depth.wav","space","563.376260568","443","329988.511047","336871.602276","337638.272157","338404.864015","339171.541786","339938.238844","340688.145771","326871.847741","330755.100568","331521.772494","332288.376334","333055.046507","333821.629598","334571.685559","335338.311022","336104.989962","339943.418749"
"Mixed","Female","ball","9","F_romp.wav","None","742.551438165","443","329988.511047","336871.602276","337638.272157","338404.864015","339171.541786","339938.238844","340688.145771","341454.932833","330755.100568","331521.772494","332288.376334","333055.046507","333821.629598","334571.685559","335338.311022","336104.989962","340693.14713"
"Mixed","Female","ball","12","M_reek.wav","None","740.462936176","443","344554.758669","336871.602276","337638.272157","338404.864015","339171.541786","339938.238844","340688.145771","341454.932833","330755.100568","331521.772494","332288.376334","333055.046507","333821.629598","334571.685559","335338.311022","336104.989962","341459.973057"
"Mixed","Female","ball","12","M_jaw.wav","None","740.865908646","443","344554.758669","336871.602276","337638.272157","338404.864015","339171.541786","339938.238844","340688.145771","341454.932833","345321.439655","331521.772494","332288.376334","333055.046507","333821.629598","334571.685559","335338.311022","336104.989962","344559.887729"
"Mixed","Female","ball","12","F_greet.wav","None","738.977577898","443","344554.758669","336871.602276","337638.272157","338404.864015","339171.541786","339938.238844","340688.145771","341454.932833","345321.439655","346088.007843","332288.376334","333055.046507","333821.629598","334571.685559","335338.311022","336104.989962","345326.573974"
"Mixed","Female","ball","12","F_ball.wav","None","737.034309643","443","344554.758669","336871.602276","337638.272157","338404.864015","339171.541786","339938.238844","340688.145771","341454.932833","345321.439655","346088.007843","346854.691751","333055.046507","333821.629598","334571.685559","335338.311022","336104.989962","346093.385582"
"Mixed","Female","ball","12","M_dime.wav","space","566.553285","443","344554.758669","336871.602276","337638.272157","338404.864015","339171.541786","339938.238844","340688.145771","341454.932833","345321.439655","346088.007843","346854.691751","347621.331241","333821.629598","334571.685559","335338.311022","336104.989962","346859.748632"
"Mixed","Female","ball","12","F_ball.wav","None","732.05252961","443","344554.758669","336871.602276","337638.272157","338404.864015","339171.541786","339938.238844","340688.145771","341454.932833","345321.439655","346088.007843","346854.691751","347621.331241","348387.951445","334571.685559","335338.311022","336104.989962","347626.443059"
"Mixed","Female","ball","12","F_greet.wav","space","649.067961789","443","344554.758669","336871.602276","337638.272157","338404.864015","339171.541786","339938.238844","340688.145771","341454.932833","345321.439655","346088.007843","346854.691751","347621.331241","348387.951445","349137.96065","335338.311022","336104.989962","348393.199146"
"Mixed","Female","ball","12","M_greet.wav","None","743.207181618","443","344554.758669","336871.602276","337638.272157","338404.864015","339171.541786","339938.238844","340688.145771","341454.932833","345321.439655","346088.007843","346854.691751","347621.331241","348387.951445","349137.96065","349904.637252","336104.989962","349143.306537"
"Mixed","Female","ball","12","F_ball.wav","None","741.708381184","443","344554.758669","336871.602276","337638.272157","338404.864015","339171.541786","339938.238844","340688.145771","341454.932833","345321.439655","346088.007843","346854.691751","347621.331241","348387.951445","349137.96065","349904.637252","350671.27382","349909.700269"
"Mixed","Female","ball","12","M_priest.wav","space","669.6666053","443","344554.758669","351437.930843","337638.272157","338404.864015","339171.541786","339938.238844","340688.145771","341454.932833","345321.439655","346088.007843","346854.691751","347621.331241","348387.951445","349137.96065","349904.637252","350671.27382","350676.479441"
"Mixed","Female","ball","12","F_ball.wav","None","736.505974454","443","344554.758669","351437.930843","352204.559229","338404.864015","339171.541786","339938.238844","340688.145771","341454.932833","345321.439655","346088.007843","346854.691751","347621.331241","348387.951445","349137.96065","349904.637252","350671.27382","351443.088248"
"Mixed","Female","ball","12","M_greet.wav","space","568.484572203","443","344554.758669","351437.930843","352204.559229","352971.270021","339171.541786","339938.238844","340688.145771","341454.932833","345321.439655","346088.007843","346854.691751","347621.331241","348387.951445","349137.96065","349904.637252","350671.27382","352209.561172"
"Mixed","Female","ball","12","F_knife.wav","None","731.24658467","443","344554.758669","351437.930843","352204.559229","352971.270021","353737.867139","339938.238844","340688.145771","341454.932833","345321.439655","346088.007843","346854.691751","347621.331241","348387.951445","349137.96065","349904.637252","350671.27382","352976.436192"
"Mixed","Female","ball","12","M_bluff.wav","None","729.755381977","443","344554.758669","351437.930843","352204.559229","352971.270021","353737.867139","354504.763491","340688.145771","341454.932833","345321.439655","346088.007843","346854.691751","347621.331241","348387.951445","349137.96065","349904.637252","350671.27382","353742.931325"
"Mixed","Female","ball","12","M_greet.wav","None","727.110491603","443","344554.758669","351437.930843","352204.559229","352971.270021","353737.867139","354504.763491","355254.50736","341454.932833","345321.439655","346088.007843","346854.691751","347621.331241","348387.951445","349137.96065","349904.637252","350671.27382","354510.510597"
"Mixed","Female","ball","12","F_dime.wav","None","742.731153951","443","344554.758669","351437.930843","352204.559229","352971.270021","353737.867139","354504.763491","355254.50736","356021.086068","345321.439655","346088.007843","346854.691751","347621.331241","348387.951445","349137.96065","349904.637252","350671.27382","355259.724085"
"Mixed","Female","tile","31","M_romp.wav","space","463.738906568","443","359137.770998","351437.930843","352204.559229","352971.270021","353737.867139","354504.763491","355254.50736","356021.086068","345321.439655","346088.007843","346854.691751","347621.331241","348387.951445","349137.96065","349904.637252","350671.27382","356026.189412"
"Mixed","Female","tile","31","F_reek.wav","None","741.379632795","443","359137.770998","351437.930843","352204.559229","352971.270021","353737.867139","354504.763491","355254.50736","356021.086068","359904.341817","346088.007843","346854.691751","347621.331241","348387.951445","349137.96065","349904.637252","350671.27382","359142.789306"
"Mixed","Female","tile","31","F_gnash.wav","None","739.567863896","443","359137.770998","351437.930843","352204.559229","352971.270021","353737.867139","354504.763491","355254.50736","356021.086068","359904.341817","360670.996502","346854.691751","347621.331241","348387.951445","349137.96065","349904.637252","350671.27382","359909.518508"
"Mixed","Female","tile","31","M_park.wav","None","738.019093707","443","359137.770998","351437.930843","352204.559229","352971.270021","353737.867139","354504.763491","355254.50736","356021.086068","359904.341817","360670.996502","361437.738854","347621.331241","348387.951445","349137.96065","349904.637252","350671.27382","360676.074715"
"Mixed","Female","tile","31","M_reek.wav","None","736.058584424","443","359137.770998","351437.930843","352204.559229","352971.270021","353737.867139","354504.763491","355254.50736","356021.086068","359904.341817","360670.996502","361437.738854","362204.311426","348387.951445","349137.96065","349904.637252","350671.27382","361443.06487"
"Mixed","Female","tile","31","M_dime.wav","None","734.547510717","443","359137.770998","351437.930843","352204.559229","352971.270021","353737.867139","354504.763491","355254.50736","356021.086068","359904.341817","360670.996502","361437.738854","362204.311426","362970.927246","349137.96065","349904.637252","350671.27382","362209.515293"
"Mixed","Female","tile","31","F_reek.wav","space","433.435318389","443","359137.770998","351437.930843","352204.559229","352971.270021","353737.867139","354504.763491","355254.50736","356021.086068","359904.341817","360670.996502","361437.738854","362204.311426","362970.927246","363737.64096","349904.637252","350671.27382","362975.984419"
