"Condition","Talker","Target","Trial","current_stimulus","response_response","response_time_response","subject_nr","time_Audio1","time_Audio10","time_Audio11","time_Audio12","time_Audio13","time_Audio14","time_Audio15","time_Audio16","time_Audio2","time_Audio3","time_Audio4","time_Audio5","time_Audio6","time_Audio7","time_Audio8","time_Audio9","time_response"
"Blocked","Male","tile","14","M_priest.wav","NA","NA","129","4830672.80997","NA","NA","NA","NA","NA","NA","NA","NA","NA","NA","NA","NA","NA","NA","NA","NA"
"Blocked","Male","tile","14","M_tile.wav","None","717.685915938","129","4830672.80997","NA","NA","NA","NA","NA","NA","NA","4831439.818","NA","NA","NA","NA","NA","NA","NA","4830686.55039"
"Blocked","Male","tile","14","M_gnash.wav","space","647.478166444","129","4830672.80997","NA","NA","NA","NA","NA","NA","NA","4831439.818","4832188.70375","NA","NA","NA","NA","NA","NA","4831449.79644"
"Blocked","Male","tile","14","M_tile.wav","None","737.289115495","129","4830672.80997","NA","NA","NA","NA","NA","NA","NA","4831439.818","4832188.70375","4832972.30089","NA","NA","NA","NA","NA","4832197.74634"
"Blocked","Male","tile","14","M_priest.wav","space","475.918171462","129","4830672.80997","NA","NA","NA","NA","NA","NA","NA","4831439.818","4832188.70375","4832972.30089","4833721.95678","NA","NA","NA","NA","4832981.28937"
"Blocked","Male","tile","14","M_done.wav","None","737.067131849","129","4830672.80997","NA","NA","NA","NA","NA","NA","NA","4831439.818","4832188.70375","4832972.30089","4833721.95678","4834489.1766","NA","NA","NA","4833730.90013"
"Blocked","Male","tile","14","M_romp.wav","None","735.271475511","129","4830672.80997","NA","NA","NA","NA","NA","NA","NA","4831439.818","4832188.70375","4832972.30089","4833721.95678","4834489.1766","4835255.74715","NA","NA","4834498.41612"
"Blocked","Male","tile","14","M_tile.wav","None","733.864445239","129","4830672.80997","NA","NA","NA","NA","NA","NA","NA","4831439.818","4832188.70375","4832972.30089","4833721.95678","4834489.1766","4835255.74715","4836022.41912","NA","4835265.73116"
"Blocked","Male","tile","14","M_reek.wav","space","273.106707959","129","4830672.80997","NA","NA","NA","NA","NA","NA","NA","4831439.818","4832188.70375","4832972.30089","4833721.95678","4834489.1766","4835255.74715","4836022.41912","4836789.26112","4836032.03645"
"Blocked","Male","tile","14","M_lash.wav","None","731.865046313","129","4830672.80997","4837556.01161","NA","NA","NA","NA","NA","NA","4831439.818","4832188.70375","4832972.30089","4833721.95678","4834489.1766","4835255.74715","4836022.41912","4836789.26112","4836798.76685"
"Blocked","Male","tile","14","M_greet.wav","None","730.925480253","129","4830672.80997","4837556.01161","4838322.62453","NA","NA","NA","NA","NA","4831439.818","4832188.70375","4832972.30089","4833721.95678","4834489.1766","4835255.74715","4836022.41912","4836789.26112","4837565.2598"
"Blocked","Male","tile","14","M_cave.wav","None","729.407148959","129","4830672.80997","4837556.01161","4838322.62453","4839089.26063","NA","NA","NA","NA","4831439.818","4832188.70375","4832972.30089","4833721.95678","4834489.1766","4835255.74715","4836022.41912","4836789.26112","4838332.18405"
"Blocked","Male","tile","14","M_lash.wav","None","729.311306437","129","4830672.80997","4837556.01161","4838322.62453","4839089.26063","4839856.05008","NA","NA","NA","4831439.818","4832188.70375","4832972.30089","4833721.95678","4834489.1766","4835255.74715","4836022.41912","4836789.26112","4839098.35145"
"Blocked","Male","tile","14","M_tile.wav","None","727.876450925","129","4830672.80997","4837556.01161","4838322.62453","4839089.26063","4839856.05008","4840622.6939","NA","NA","4831439.818","4832188.70375","4832972.30089","4833721.95678","4834489.1766","4835255.74715","4836022.41912","4836789.26112","4839865.24972"
"Blocked","Male","tile","14","M_priest.wav","space","312.718119064","129","4830672.80997","4837556.01161","4838322.62453","4839089.26063","4839856.05008","4840622.6939","4841389.27281","NA","4831439.818","4832188.70375","4832972.30089","4833721.95678","4834489.1766","4835255.74715","4836022.41912","4836789.26112","4840632.2998"
"Blocked","Male","tile","14","M_dime.wav","None","725.425973709","129","4830672.80997","4837556.01161","4838322.62453","4839089.26063","4839856.05008","4840622.6939","4841389.27281","4842155.80008","4831439.818","4832188.70375","4832972.30089","4833721.95678","4834489.1766","4835255.74715","4836022.41912","4836789.26112","4841398.521"
"Blocked","Male","done","19","M_lash.wav","None","724.901313136","129","4845306.23113","4837556.01161","4838322.62453","4839089.26063","4839856.05008","4840622.6939","4841389.27281","4842155.80008","4831439.818","4832188.70375","4832972.30089","4833721.95678","4834489.1766","4835255.74715","4836022.41912","4836789.26112","4842165.00127"
"Blocked","Male","done","19","M_priest.wav","None","722.039331275","129","4845306.23113","4837556.01161","4838322.62453","4839089.26063","4839856.05008","4840622.6939","4841389.27281","4842155.80008","4846072.76705","4832188.70375","4832972.30089","4833721.95678","4834489.1766","4835255.74715","4836022.41912","4836789.26112","4845315.80641"
"Blocked","Male","done","19","M_dime.wav","None","721.262388455","129","4845306.23113","4837556.01161","4838322.62453","4839089.26063","4839856.05008","4840622.6939","4841389.27281","4842155.80008","4846072.76705","4846839.60102","4832972.30089","4833721.95678","4834489.1766","4835255.74715","4836022.41912","4836789.26112","4846082.27618"
"Blocked","Male","done","19","M_gnash.wav","None","720.234709093","129","4845306.23113","4837556.01161","4838322.62453","4839089.26063","4839856.05008","4840622.6939","4841389.27281","4842155.80008","4846072.76705","4846839.60102","4847606.57041","4833721.95678","4834489.1766","4835255.74715","4836022.41912","4836789.26112","4846849.0378"
"Blocked","Male","done","19","M_done.wav","None","718.497176655","129","4845306.23113","4837556.01161","4838322.62453","4839089.26063","4839856.05008","4840622.6939","4841389.27281","4842155.80008","4846072.76705","4846839.60102","4847606.57041","4848372.96412","4834489.1766","4835255.74715","4836022.41912","4836789.26112","4847616.61471"
"Blocked","Male","done","19","M_tile.wav","space","458.113101603","129","4845306.23113","4837556.01161","4838322.62453","4839089.26063","4839856.05008","4840622.6939","4841389.27281","4842155.80008","4846072.76705","4846839.60102","4847606.57041","4848372.96412","4849122.20511","4835255.74715","4836022.41912","4836789.26112","4848382.67606"
"Blocked","Male","done","19","M_lash.wav","None","735.375665653","129","4845306.23113","4837556.01161","4838322.62453","4839089.26063","4839856.05008","4840622.6939","4841389.27281","4842155.80008","4846072.76705","4846839.60102","4847606.57041","4848372.96412","4849122.20511","4849888.74135","4836022.41912","4836789.26112","4849131.3154"
"Blocked","Male","done","19","M_done.wav","None","734.540908073","129","4845306.23113","4837556.01161","4838322.62453","4839089.26063","4839856.05008","4840622.6939","4841389.27281","4842155.80008","4846072.76705","4846839.60102","4847606.57041","4848372.96412","4849122.20511","4849888.74135","4850655.64148","4836789.26112","4849897.63863"
"Blocked","Male","done","19","M_cave.wav","space","479.590486502","129","4845306.23113","4837556.01161","4838322.62453","4839089.26063","4839856.05008","4840622.6939","4841389.27281","4842155.80008","4846072.76705","4846839.60102","4847606.57041","4848372.96412","4849122.20511","4849888.74135","4850655.64148","4851421.96253","4850665.12525"
"Blocked","Male","done","19","M_jaw.wav","None","732.720518193","129","4845306.23113","4852188.81536","4838322.62453","4839089.26063","4839856.05008","4840622.6939","4841389.27281","4842155.80008","4846072.76705","4846839.60102","4847606.57041","4848372.96412","4849122.20511","4849888.74135","4850655.64148","4851421.96253","4851431.22494"
"Blocked","Male","done","19","M_cad.wav","None","731.425098144","129","4845306.23113","4852188.81536","4852955.5977","4839089.26063","4839856.05008","4840622.6939","4841389.27281","4842155.80008","4846072.76705","4846839.60102","4847606.57041","4848372.96412","4849122.20511","4849888.74135","4850655.64148","4851421.96253","4852198.04778"
"Blocked","Male","done","19","M_gnash.wav","None","729.955306452","129","4845306.23113","4852188.81536","4852955.5977","4853722.27183","4839856.05008","4840622.6939","4841389.27281","4842155.80008","4846072.76705","4846839.60102","4847606.57041","4848372.96412","4849122.20511","4849888.74135","4850655.64148","4851421.96253","4852965.19463"
"Blocked","Male","done","19","M_done.wav","None","729.932427931","129","4845306.23113","4852188.81536","4852955.5977","4853722.27183","4854489.00872","4840622.6939","4841389.27281","4842155.80008","4846072.76705","4846839.60102","4847606.57041","4848372.96412","4849122.20511","4849888.74135","4850655.64148","4851421.96253","4853732.03694"
"Blocked","Male","done","19","M_tile.wav","space","438.371085038","129","4845306.23113","4852188.81536","4852955.5977","4853722.27183","4854489.00872","4855255.1285","4841389.27281","4842155.80008","4846072.76705","4846839.60102","4847606.57041","4848372.96412","4849122.20511","4849888.74135","4850655.64148","4851421.96253","4854498.23093"
"Blocked","Male","done","19","M_done.wav","None","728.886198427","129","4845306.23113","4852188.81536","4852955.5977","4853722.27183","4854489.00872","4855255.1285","4856022.24227","4842155.80008","4846072.76705","4846839.60102","4847606.57041","4848372.96412","4849122.20511","4849888.74135","4850655.64148","4851421.96253","4855264.20943"
"Blocked","Male","done","19","M_reek.wav","space","528.769456025","129","4845306.23113","4852188.81536","4852955.5977","4853722.27183","4854489.00872","4855255.1285","4856022.24227","4856788.98225","4846072.76705","4846839.60102","4847606.57041","4848372.96412","4849122.20511","4849888.74135","4850655.64148","4851421.96253","4856031.77273"
"Blocked","Male","done","24","M_jolt.wav","None","726.148193585","129","4859922.3323","4852188.81536","4852955.5977","4853722.27183","4854489.00872","4855255.1285","4856022.24227","4856788.98225","4846072.76705","4846839.60102","4847606.57041","4848372.96412","4849122.20511","4849888.74135","4850655.64148","4851421.96253","4856798.18066"
"Blocked","Male","done","24","M_ball.wav","space","0.0349361803383","129","4859922.3323","4852188.81536","4852955.5977","4853722.27183","4854489.00872","4855255.1285","4856022.24227","4856788.98225","4860689.20955","4846839.60102","4847606.57041","4848372.96412","4849122.20511","4849888.74135","4850655.64148","4851421.96253","4859932.49192"
"Blocked","Male","done","24","M_depth.wav","None","726.031327504","129","4859922.3323","4852188.81536","4852955.5977","4853722.27183","4854489.00872","4855255.1285","4856022.24227","4856788.98225","4860689.20955","4861455.05974","4847606.57041","4848372.96412","4849122.20511","4849888.74135","4850655.64148","4851421.96253","4860693.53793"
"Blocked","Male","done","24","M_gnash.wav","None","720.900969347","129","4859922.3323","4852188.81536","4852955.5977","4853722.27183","4854489.00872","4855255.1285","4856022.24227","4856788.98225","4860689.20955","4861455.05974","4862222.25173","4848372.96412","4849122.20511","4849888.74135","4850655.64148","4851421.96253","4861464.36265"
"Blocked","Male","done","24","M_cave.wav","None","719.047807507","129","4859922.3323","4852188.81536","4852955.5977","4853722.27183","4854489.00872","4855255.1285","4856022.24227","4856788.98225","4860689.20955","4861455.05974","4862222.25173","4862972.51452","4849122.20511","4849888.74135","4850655.64148","4851421.96253","4862232.049"
"Blocked","Male","done","24","M_done.wav","None","735.224481788","129","4859922.3323","4852188.81536","4852955.5977","4853722.27183","4854489.00872","4855255.1285","4856022.24227","4856788.98225","4860689.20955","4861455.05974","4862222.25173","4862972.51452","4863738.06142","4849888.74135","4850655.64148","4851421.96253","4862981.8366"
"Blocked","Male","done","24","M_jaw.wav","space","485.171304608","129","4859922.3323","4852188.81536","4852955.5977","4853722.27183","4854489.00872","4855255.1285","4856022.24227","4856788.98225","4860689.20955","4861455.05974","4862222.25173","4862972.51452","4863738.06142","4864522.00668","4850655.64148","4851421.96253","4863747.13554"
"Blocked","Male","done","24","M_done.wav","None","720.678676444","129","4859922.3323","4852188.81536","4852955.5977","4853722.27183","4854489.00872","4855255.1285","4856022.24227","4856788.98225","4860689.20955","4861455.05974","4862222.25173","4862972.51452","4863738.06142","4864522.00668","4865288.59146","4851421.96253","4864531.13027"
"Blocked","Male","done","24","M_jolt.wav","space","590.913138236","129","4859922.3323","4852188.81536","4852955.5977","4853722.27183","4854489.00872","4855255.1285","4856022.24227","4856788.98225","4860689.20955","4861455.05974","4862222.25173","4862972.51452","4863738.06142","4864522.00668","4865288.59146","4866038.28971","4865297.36971"
"Blocked","Male","done","24","M_done.wav","None","735.722553799","129","4859922.3323","4866805.07483","4852955.5977","4853722.27183","4854489.00872","4855255.1285","4856022.24227","4856788.98225","4860689.20955","4861455.05974","4862222.25173","4862972.51452","4863738.06142","4864522.00668","4865288.59146","4866038.28971","4866047.46648"
"Blocked","Male","done","24","M_dime.wav","space","441.53388869","129","4859922.3323","4866805.07483","4867571.77617","4853722.27183","4854489.00872","4855255.1285","4856022.24227","4856788.98225","4860689.20955","4861455.05974","4862222.25173","4862972.51452","4863738.06142","4864522.00668","4865288.59146","4866038.28971","4866814.68907"
"Blocked","Male","done","24","M_priest.wav","None","734.210096708","129","4859922.3323","4866805.07483","4867571.77617","4868338.38351","4854489.00872","4855255.1285","4856022.24227","4856788.98225","4860689.20955","4861455.05974","4862222.25173","4862972.51452","4863738.06142","4864522.00668","4865288.59146","4866038.28971","4867580.75661"
"Blocked","Male","done","24","M_depth.wav","None","732.686200412","129","4859922.3323","4866805.07483","4867571.77617","4868338.38351","4869105.18997","4855255.1285","4856022.24227","4856788.98225","4860689.20955","4861455.05974","4862222.25173","4862972.51452","4863738.06142","4864522.00668","4865288.59146","4866038.28971","4868347.72136"
"Blocked","Male","done","24","M_done.wav","None","731.622657448","129","4859922.3323","4866805.07483","4867571.77617","4868338.38351","4869105.18997","4869871.30975","4856022.24227","4856788.98225","4860689.20955","4861455.05974","4862222.25173","4862972.51452","4863738.06142","4864522.00668","4865288.59146","4866038.28971","4869114.41187"
"Blocked","Male","done","24","M_romp.wav","space","624.035700398","129","4859922.3323","4866805.07483","4867571.77617","4868338.38351","4869105.18997","4869871.30975","4870638.45815","4856788.98225","4860689.20955","4861455.05974","4862222.25173","4862972.51452","4863738.06142","4864522.00668","4865288.59146","4866038.28971","4869880.10655"
"Blocked","Male","done","24","M_lash.wav","None","729.890690068","129","4859922.3323","4866805.07483","4867571.77617","4868338.38351","4869105.18997","4869871.30975","4870638.45815","4871404.66914","4860689.20955","4861455.05974","4862222.25173","4862972.51452","4863738.06142","4864522.00668","4865288.59146","4866038.28971","4870647.32296"
"Blocked","Male","cave","11","M_park.wav","None","728.815089446","129","4874538.77418","4866805.07483","4867571.77617","4868338.38351","4869105.18997","4869871.30975","4870638.45815","4871404.66914","4860689.20955","4861455.05974","4862222.25173","4862972.51452","4863738.06142","4864522.00668","4865288.59146","4866038.28971","4871414.00513"
"Blocked","Male","cave","11","M_ball.wav","None","722.112604476","129","4874538.77418","4866805.07483","4867571.77617","4868338.38351","4869105.18997","4869871.30975","4870638.45815","4871404.66914","4875305.36731","4861455.05974","4862222.25173","4862972.51452","4863738.06142","4864522.00668","4865288.59146","4866038.28971","4874548.47561"
"Blocked","Male","cave","11","M_cave.wav","None","721.064210812","129","4874538.77418","4866805.07483","4867571.77617","4868338.38351","4869105.18997","4869871.30975","4870638.45815","4871404.66914","4875305.36731","4876072.14284","4862222.25173","4862972.51452","4863738.06142","4864522.00668","4865288.59146","4866038.28971","4875315.07554"
"Blocked","Male","cave","11","M_reek.wav","space","421.90471891","129","4874538.77418","4866805.07483","4867571.77617","4868338.38351","4869105.18997","4869871.30975","4870638.45815","4871404.66914","4875305.36731","4876072.14284","4876838.87788","4862972.51452","4863738.06142","4864522.00668","4865288.59146","4866038.28971","4876082.04616"
"Blocked","Male","cave","11","M_ball.wav","None","719.297925593","129","4874538.77418","4866805.07483","4867571.77617","4868338.38351","4869105.18997","4869871.30975","4870638.45815","4871404.66914","4875305.36731","4876072.14284","4876838.87788","4877588.00231","4863738.06142","4864522.00668","4865288.59146","4866038.28971","4876848.29394"
"Blocked","Male","cave","11","M_cave.wav","None","736.499805818","129","4874538.77418","4866805.07483","4867571.77617","4868338.38351","4869105.18997","4869871.30975","4870638.45815","4871404.66914","4875305.36731","4876072.14284","4876838.87788","4877588.00231","4878354.32398","4864522.00668","4865288.59146","4866038.28971","4877597.11972"
"Blocked","Male","cave","11","M_jolt.wav","space","380.378002941","129","4874538.77418","4866805.07483","4867571.77617","4868338.38351","4869105.18997","4869871.30975","4870638.45815","4871404.66914","4875305.36731","4876072.14284","4876838.87788","4877588.00231","4878354.32398","4879121.43899","4865288.59146","4866038.28971","4878363.46612"
"Blocked","Male","cave","11","M_tile.wav","None","733.386469249","129","4874538.77418","4866805.07483","4867571.77617","4868338.38351","4869105.18997","4869871.30975","4870638.45815","4871404.66914","4875305.36731","4876072.14284","4876838.87788","4877588.00231","4878354.32398","4879121.43899","4879888.17649","4866038.28971","4879131.02664"
"Blocked","Male","cave","11","M_ball.wav","None","733.03927196","129","4874538.77418","4866805.07483","4867571.77617","4868338.38351","4869105.18997","4869871.30975","4870638.45815","4871404.66914","4875305.36731","4876072.14284","4876838.87788","4877588.00231","4878354.32398","4879121.43899","4879888.17649","4880654.82743","4879897.30039"
"Blocked","Male","cave","11","M_lash.wav","None","731.935227755","129","4874538.77418","4881421.44715","4867571.77617","4868338.38351","4869105.18997","4869871.30975","4870638.45815","4871404.66914","4875305.36731","4876072.14284","4876838.87788","4877588.00231","4878354.32398","4879121.43899","4879888.17649","4880654.82743","4880664.14395"
"Blocked","Male","cave","11","M_ball.wav","None","730.881887371","129","4874538.77418","4881421.44715","4882187.95742","4868338.38351","4869105.18997","4869871.30975","4870638.45815","4871404.66914","4875305.36731","4876072.14284","4876838.87788","4877588.00231","4878354.32398","4879121.43899","4879888.17649","4880654.82743","4881430.75779"
"Blocked","Male","cave","11","M_cave.wav","None","730.465436064","129","4874538.77418","4881421.44715","4882187.95742","4882954.75459","4869105.18997","4869871.30975","4870638.45815","4871404.66914","4875305.36731","4876072.14284","4876838.87788","4877588.00231","4878354.32398","4879121.43899","4879888.17649","4880654.82743","4882197.16448"
"Blocked","Male","cave","11","M_depth.wav","space","371.791748388","129","4874538.77418","4881421.44715","4882187.95742","4882954.75459","4883721.3168","4869871.30975","4870638.45815","4871404.66914","4875305.36731","4876072.14284","4876838.87788","4877588.00231","4878354.32398","4879121.43899","4879888.17649","4880654.82743","4882963.95424"
"Blocked","Male","cave","11","M_cave.wav","None","728.884034207","129","4874538.77418","4881421.44715","4882187.95742","4882954.75459","4883721.3168","4884487.99186","4870638.45815","4871404.66914","4875305.36731","4876072.14284","4876838.87788","4877588.00231","4878354.32398","4879121.43899","4879888.17649","4880654.82743","4883730.35692"
"Blocked","Male","cave","11","M_cling.wav","space","494.796368584","129","4874538.77418","4881421.44715","4882187.95742","4882954.75459","4883721.3168","4884487.99186","4885254.23964","4871404.66914","4875305.36731","4876072.14284","4876838.87788","4877588.00231","4878354.32398","4879121.43899","4879888.17649","4880654.82743","4884496.91202"
"Blocked","Male","cave","11","M_reek.wav","None","727.203079849","129","4874538.77418","4881421.44715","4882187.95742","4882954.75459","4883721.3168","4884487.99186","4885254.23964","4886021.34815","4875305.36731","4876072.14284","4876838.87788","4877588.00231","4878354.32398","4879121.43899","4879888.17649","4880654.82743","4885263.16784"
"Blocked","Male","ball","2","M_knife.wav","None","725.537583872","129","4889154.91957","4881421.44715","4882187.95742","4882954.75459","4883721.3168","4884487.99186","4885254.23964","4886021.34815","4875305.36731","4876072.14284","4876838.87788","4877588.00231","4878354.32398","4879121.43899","4879888.17649","4880654.82743","4886031.06195"
"Blocked","Male","ball","2","M_ball.wav","None","722.102711094","129","4889154.91957","4881421.44715","4882187.95742","4882954.75459","4883721.3168","4884487.99186","4885254.23964","4886021.34815","4889921.60421","4876072.14284","4876838.87788","4877588.00231","4878354.32398","4879121.43899","4879888.17649","4880654.82743","4889164.19496"
"Blocked","Male","ball","2","M_lash.wav","space","435.833731143","129","4889154.91957","4881421.44715","4882187.95742","4882954.75459","4883721.3168","4884487.99186","4885254.23964","4886021.34815","4889921.60421","4890688.29534","4876838.87788","4877588.00231","4878354.32398","4879121.43899","4879888.17649","4880654.82743","4889931.67231"
"Blocked","Male","ball","2","M_depth.wav","None","719.867724925","129","4889154.91957","4881421.44715","4882187.95742","4882954.75459","4883721.3168","4884487.99186","4885254.23964","4886021.34815","4889921.60421","4890688.29534","4891454.81983","4877588.00231","4878354.32398","4879121.43899","4879888.17649","4880654.82743","4890698.12693"
"Blocked","Male","ball","2","M_ball.wav","None","719.754259742","129","4889154.91957","4881421.44715","4882187.95742","4882954.75459","4883721.3168","4884487.99186","4885254.23964","4886021.34815","4889921.60421","4890688.29534","4891454.81983","4892221.37925","4878354.32398","4879121.43899","4879888.17649","4880654.82743","4891464.25537"
"Blocked","Male","ball","2","M_reek.wav","space","408.433277508","129","4889154.91957","4881421.44715","4882187.95742","4882954.75459","4883721.3168","4884487.99186","4885254.23964","4886021.34815","4889921.60421","4890688.29534","4891454.81983","4892221.37925","4892970.62395","4879121.43899","4879888.17649","4880654.82743","4892231.03214"
"Blocked","Male","ball","2","M_romp.wav","None","735.613416938","129","4889154.91957","4881421.44715","4882187.95742","4882954.75459","4883721.3168","4884487.99186","4885254.23964","4886021.34815","4889921.60421","4890688.29534","4891454.81983","4892221.37925","4892970.62395","4893737.5482","4879888.17649","4880654.82743","4892979.9819"
"Blocked","Male","ball","2","M_dime.wav","None","734.334073728","129","4889154.91957","4881421.44715","4882187.95742","4882954.75459","4883721.3168","4884487.99186","4885254.23964","4886021.34815","4889921.60421","4890688.29534","4891454.81983","4892221.37925","4892970.62395","4893737.5482","4894504.1877","4880654.82743","4893746.95097"
"Blocked","Male","ball","2","M_knife.wav","None","734.080863884","129","4889154.91957","4881421.44715","4882187.95742","4882954.75459","4883721.3168","4884487.99186","4885254.23964","4886021.34815","4889921.60421","4890688.29534","4891454.81983","4892221.37925","4892970.62395","4893737.5482","4894504.1877","4895270.97839","4894513.56234"
"Blocked","Male","ball","2","M_knife.wav","None","733.00835502","129","4889154.91957","4896037.36251","4882187.95742","4882954.75459","4883721.3168","4884487.99186","4885254.23964","4886021.34815","4889921.60421","4890688.29534","4891454.81983","4892221.37925","4892970.62395","4893737.5482","4894504.1877","4895270.97839","4895280.28253"
"Blocked","Male","ball","2","M_tile.wav","None","732.969090458","129","4889154.91957","4896037.36251","4896804.33561","4882954.75459","4883721.3168","4884487.99186","4885254.23964","4886021.34815","4889921.60421","4890688.29534","4891454.81983","4892221.37925","4892970.62395","4893737.5482","4894504.1877","4895270.97839","4896046.32688"
"Blocked","Male","ball","2","M_tile.wav","None","731.392635324","129","4889154.91957","4896037.36251","4896804.33561","4897570.49497","4883721.3168","4884487.99186","4885254.23964","4886021.34815","4889921.60421","4890688.29534","4891454.81983","4892221.37925","4892970.62395","4893737.5482","4894504.1877","4895270.97839","4896814.01601"
"Blocked","Male","ball","2","M_ball.wav","None","731.806304073","129","4889154.91957","4896037.36251","4896804.33561","4897570.49497","4898337.74817","4884487.99186","4885254.23964","4886021.34815","4889921.60421","4890688.29534","4891454.81983","4892221.37925","4892970.62395","4893737.5482","4894504.1877","4895270.97839","4897579.55611"
"Blocked","Male","ball","2","M_cling.wav","space","396.189857216","129","4889154.91957","4896037.36251","4896804.33561","4897570.49497","4898337.74817","4899104.11962","4885254.23964","4886021.34815","4889921.60421","4890688.29534","4891454.81983","4892221.37925","4892970.62395","4893737.5482","4894504.1877","4895270.97839","4898347.06623"
"Blocked","Male","ball","2","M_ball.wav","None","729.183310293","129","4889154.91957","4896037.36251","4896804.33561","4897570.49497","4898337.74817","4899104.11962","4899870.91742","4886021.34815","4889921.60421","4890688.29534","4891454.81983","4892221.37925","4892970.62395","4893737.5482","4894504.1877","4895270.97839","4899113.93235"
"Blocked","Male","ball","2","M_greet.wav","None","728.477785538","129","4889154.91957","4896037.36251","4896804.33561","4897570.49497","4898337.74817","4899104.11962","4899870.91742","4900637.55537","4889921.60421","4890688.29534","4891454.81983","4892221.37925","4892970.62395","4893737.5482","4894504.1877","4895270.97839","4899880.45375"
"Blocked","Male","ball","3","M_done.wav","None","727.998263726","129","4903771.14565","4896037.36251","4896804.33561","4897570.49497","4898337.74817","4899104.11962","4899870.91742","4900637.55537","4889921.60421","4890688.29534","4891454.81983","4892221.37925","4892970.62395","4893737.5482","4894504.1877","4895270.97839","4900646.74389"
"Blocked","Male","ball","3","M_done.wav","None","722.693224728","129","4903771.14565","4896037.36251","4896804.33561","4897570.49497","4898337.74817","4899104.11962","4899870.91742","4900637.55537","4904537.42806","4890688.29534","4891454.81983","4892221.37925","4892970.62395","4893737.5482","4894504.1877","4895270.97839","4903780.61643"
"Blocked","Male","ball","3","M_dime.wav","None","722.309545381","129","4903771.14565","4896037.36251","4896804.33561","4897570.49497","4898337.74817","4899104.11962","4899870.91742","4900637.55537","4904537.42806","4905304.41908","4891454.81983","4892221.37925","4892970.62395","4893737.5482","4894504.1877","4895270.97839","4904546.74797"
"Blocked","Male","ball","3","M_ball.wav","None","720.623644302","129","4903771.14565","4896037.36251","4896804.33561","4897570.49497","4898337.74817","4899104.11962","4899870.91742","4900637.55537","4904537.42806","4905304.41908","4906071.00974","4892221.37925","4892970.62395","4893737.5482","4894504.1877","4895270.97839","4905314.45998"
"Blocked","Male","ball","3","M_jolt.wav","space","414.617903647","129","4903771.14565","4896037.36251","4896804.33561","4897570.49497","4898337.74817","4899104.11962","4899870.91742","4900637.55537","4904537.42806","4905304.41908","4906071.00974","4906837.79856","4892970.62395","4893737.5482","4894504.1877","4895270.97839","4906080.43353"
"Blocked","Male","ball","3","M_jolt.wav","None","719.165291928","129","4903771.14565","4896037.36251","4896804.33561","4897570.49497","4898337.74817","4899104.11962","4899870.91742","4900637.55537","4904537.42806","4905304.41908","4906071.00974","4906837.79856","4907604.11467","4893737.5482","4894504.1877","4895270.97839","4906847.31975"
"Blocked","Male","ball","3","M_ball.wav","None","718.858904904","129","4903771.14565","4896037.36251","4896804.33561","4897570.49497","4898337.74817","4899104.11962","4899870.91742","4900637.55537","4904537.42806","4905304.41908","4906071.00974","4906837.79856","4907604.11467","4908371.03088","4894504.1877","4895270.97839","4907613.91658"
"Blocked","Male","ball","3","M_jolt.wav","space","530.037360091","129","4903771.14565","4896037.36251","4896804.33561","4897570.49497","4898337.74817","4899104.11962","4899870.91742","4900637.55537","4904537.42806","4905304.41908","4906071.00974","4906837.79856","4907604.11467","4908371.03088","4909120.45026","4895270.97839","4908380.94626"
"Blocked","Male","ball","3","M_cling.wav","None","735.107615707","129","4903771.14565","4896037.36251","4896804.33561","4897570.49497","4898337.74817","4899104.11962","4899870.91742","4900637.55537","4904537.42806","4905304.41908","4906071.00974","4906837.79856","4907604.11467","4908371.03088","4909120.45026","4909886.90086","4909129.44153"
"Blocked","Male","ball","3","M_ball.wav","None","734.38199499","129","4903771.14565","4910653.82974","4896804.33561","4897570.49497","4898337.74817","4899104.11962","4899870.91742","4900637.55537","4904537.42806","4905304.41908","4906071.00974","4906837.79856","4907604.11467","4908371.03088","4909120.45026","4909886.90086","4909895.97715"
"Blocked","Male","ball","3","M_reek.wav","space","447.828579112","129","4903771.14565","4910653.82974","4911420.35794","4897570.49497","4898337.74817","4899104.11962","4899870.91742","4900637.55537","4904537.42806","4905304.41908","4906071.00974","4906837.79856","4907604.11467","4908371.03088","4909120.45026","4909886.90086","4910663.05567"
"Blocked","Male","ball","3","M_ball.wav","None","731.939865276","129","4903771.14565","4910653.82974","4911420.35794","4912186.80607","4898337.74817","4899104.11962","4899870.91742","4900637.55537","4904537.42806","4905304.41908","4906071.00974","4906837.79856","4907604.11467","4908371.03088","4909120.45026","4909886.90086","4911429.72918"
"Blocked","Male","ball","3","M_reek.wav","space","411.253521452","129","4903771.14565","4910653.82974","4911420.35794","4912186.80607","4912953.73526","4899104.11962","4899870.91742","4900637.55537","4904537.42806","4905304.41908","4906071.00974","4906837.79856","4907604.11467","4908371.03088","4909120.45026","4909886.90086","4912195.62142"
"Blocked","Male","ball","3","M_knife.wav","None","730.81912595","129","4903771.14565","4910653.82974","4911420.35794","4912186.80607","4912953.73526","4913720.06157","4899870.91742","4900637.55537","4904537.42806","4905304.41908","4906071.00974","4906837.79856","4907604.11467","4908371.03088","4909120.45026","4909886.90086","4912963.34425"
"Blocked","Male","ball","3","M_gnash.wav","None","730.944030453","129","4903771.14565","4910653.82974","4911420.35794","4912186.80607","4912953.73526","4913720.06157","4914486.7592","4900637.55537","4904537.42806","4905304.41908","4906071.00974","4906837.79856","4907604.11467","4908371.03088","4909120.45026","4909886.90086","4913728.9369"
"Blocked","Male","ball","3","M_knife.wav","None","730.539327604","129","4903771.14565","4910653.82974","4911420.35794","4912186.80607","4912953.73526","4913720.06157","4914486.7592","4915253.60306","4904537.42806","4905304.41908","4906071.00974","4906837.79856","4907604.11467","4908371.03088","4909120.45026","4909886.90086","4914495.59928"
"Blocked","Male","ball","5","M_cad.wav","None","729.080666031","129","4918387.37296","4910653.82974","4911420.35794","4912186.80607","4912953.73526","4913720.06157","4914486.7592","4915253.60306","4904537.42806","4905304.41908","4906071.00974","4906837.79856","4907604.11467","4908371.03088","4909120.45026","4909886.90086","4915263.13012"
"Blocked","Male","ball","5","M_ball.wav","None","721.305362938","129","4918387.37296","4910653.82974","4911420.35794","4912186.80607","4912953.73526","4913720.06157","4914486.7592","4915253.60306","4919153.7373","4905304.41908","4906071.00974","4906837.79856","4907604.11467","4908371.03088","4909120.45026","4909886.90086","4918397.07532"
"Blocked","Male","ball","5","M_dime.wav","space","467.477226571","129","4918387.37296","4910653.82974","4911420.35794","4912186.80607","4912953.73526","4913720.06157","4914486.7592","4915253.60306","4919153.7373","4919920.82201","4906071.00974","4906837.79856","4907604.11467","4908371.03088","4909120.45026","4909886.90086","4919163.13296"
"Blocked","Male","ball","5","M_done.wav","None","720.225124853","129","4918387.37296","4910653.82974","4911420.35794","4912186.80607","4912953.73526","4913720.06157","4914486.7592","4915253.60306","4919153.7373","4919920.82201","4920687.31713","4906837.79856","4907604.11467","4908371.03088","4909120.45026","4909886.90086","4919930.08256"
"Blocked","Male","ball","5","M_tile.wav","None","719.704792602","129","4918387.37296","4910653.82974","4911420.35794","4912186.80607","4912953.73526","4913720.06157","4914486.7592","4915253.60306","4919153.7373","4919920.82201","4920687.31713","4921453.28975","4907604.11467","4908371.03088","4909120.45026","4909886.90086","4920697.05164"
"Blocked","Male","ball","5","M_ball.wav","None","720.439688478","129","4918387.37296","4910653.82974","4911420.35794","4912186.80607","4912953.73526","4913720.06157","4914486.7592","4915253.60306","4919153.7373","4919920.82201","4920687.31713","4921453.28975","4922220.42454","4908371.03088","4909120.45026","4909886.90086","4921462.40716"
"Blocked","Male","ball","5","M_lash.wav","space","392.144683924","129","4918387.37296","4910653.82974","4911420.35794","4912186.80607","4912953.73526","4913720.06157","4914486.7592","4915253.60306","4919153.7373","4919920.82201","4920687.31713","4921453.28975","4922220.42454","4922970.09373","4909120.45026","4909886.90086","4922230.42092"
"Blocked","Male","ball","5","M_ball.wav","None","735.592393437","129","4918387.37296","4910653.82974","4911420.35794","4912186.80607","4912953.73526","4913720.06157","4914486.7592","4915253.60306","4919153.7373","4919920.82201","4920687.31713","4921453.28975","4922220.42454","4922970.09373","4923736.3446","4909886.90086","4922979.12117"
"Blocked","Male","ball","5","M_cave.wav","space","445.135713032","129","4918387.37296","4910653.82974","4911420.35794","4912186.80607","4912953.73526","4913720.06157","4914486.7592","4915253.60306","4919153.7373","4919920.82201","4920687.31713","4921453.28975","4922220.42454","4922970.09373","4923736.3446","4924503.3987","4923745.37266"
"Blocked","Male","ball","5","M_jaw.wav","None","733.363281528","129","4918387.37296","4925269.71728","4911420.35794","4912186.80607","4912953.73526","4913720.06157","4914486.7592","4915253.60306","4919153.7373","4919920.82201","4920687.31713","4921453.28975","4922220.42454","4922970.09373","4923736.3446","4924503.3987","4924512.59587"
"Blocked","Male","ball","5","M_done.wav","None","732.771222014","129","4918387.37296","4925269.71728","4926036.74819","4912186.80607","4912953.73526","4913720.06157","4914486.7592","4915253.60306","4919153.7373","4919920.82201","4920687.31713","4921453.28975","4922220.42454","4922970.09373","4923736.3446","4924503.3987","4925278.98433"
"Blocked","Male","ball","5","M_cave.wav","None","731.904310814","129","4918387.37296","4925269.71728","4926036.74819","4926803.40841","4912953.73526","4913720.06157","4914486.7592","4915253.60306","4919153.7373","4919920.82201","4920687.31713","4921453.28975","4922220.42454","4922970.09373","4923736.3446","4924503.3987","4926045.98216"
"Blocked","Male","ball","5","M_depth.wav","None","731.299266161","129","4918387.37296","4925269.71728","4926036.74819","4926803.40841","4927569.99288","4913720.06157","4914486.7592","4915253.60306","4919153.7373","4919920.82201","4920687.31713","4921453.28975","4922220.42454","4922970.09373","4923736.3446","4924503.3987","4926812.69895"
"Blocked","Male","ball","5","M_ball.wav","None","730.607654026","129","4918387.37296","4925269.71728","4926036.74819","4926803.40841","4927569.99288","4928336.53592","4914486.7592","4915253.60306","4919153.7373","4919920.82201","4920687.31713","4921453.28975","4922220.42454","4922970.09373","4923736.3446","4924503.3987","4927579.35236"
"Blocked","Male","ball","5","M_lash.wav","space","340.888713836","129","4918387.37296","4925269.71728","4926036.74819","4926803.40841","4927569.99288","4928336.53592","4929103.48088","4915253.60306","4919153.7373","4919920.82201","4920687.31713","4921453.28975","4922220.42454","4922970.09373","4923736.3446","4924503.3987","4928345.51203"
"Blocked","Male","ball","5","M_knife.wav","None","728.537764458","129","4918387.37296","4925269.71728","4926036.74819","4926803.40841","4927569.99288","4928336.53592","4929103.48088","4929869.93951","4919153.7373","4919920.82201","4920687.31713","4921453.28975","4922220.42454","4922970.09373","4923736.3446","4924503.3987","4929112.89694"
"Blocked","Male","cave","9","M_done.wav","None","728.431410098","129","4933003.20732","4925269.71728","4926036.74819","4926803.40841","4927569.99288","4928336.53592","4929103.48088","4929869.93951","4919153.7373","4919920.82201","4920687.31713","4921453.28975","4922220.42454","4922970.09373","4923736.3446","4924503.3987","4929879.11072"
"Blocked","Male","cave","9","M_cave.wav","None","722.506486345","129","4933003.20732","4925269.71728","4926036.74819","4926803.40841","4927569.99288","4928336.53592","4929103.48088","4929869.93951","4933770.0821","4919920.82201","4920687.31713","4921453.28975","4922220.42454","4922970.09373","4923736.3446","4924503.3987","4933012.65833"
"Blocked","Male","cave","9","M_reek.wav","space","378.431781137","129","4933003.20732","4925269.71728","4926036.74819","4926803.40841","4927569.99288","4928336.53592","4929103.48088","4929869.93951","4933770.0821","4934536.82672","4920687.31713","4921453.28975","4922220.42454","4922970.09373","4923736.3446","4924503.3987","4933779.78941"
"Blocked","Male","cave","9","M_park.wav","None","720.588708181","129","4933003.20732","4925269.71728","4926036.74819","4926803.40841","4927569.99288","4928336.53592","4929103.48088","4929869.93951","4933770.0821","4934536.82672","4935303.53609","4921453.28975","4922220.42454","4922970.09373","4923736.3446","4924503.3987","4934546.36182"
"Blocked","Male","cave","9","M_cave.wav","None","719.887820946","129","4933003.20732","4925269.71728","4926036.74819","4926803.40841","4927569.99288","4928336.53592","4929103.48088","4929869.93951","4933770.0821","4934536.82672","4935303.53609","4936069.85591","4922220.42454","4922970.09373","4923736.3446","4924503.3987","4935313.64501"
"Blocked","Male","cave","9","M_done.wav","space","430.819002329","129","4933003.20732","4925269.71728","4926036.74819","4926803.40841","4927569.99288","4928336.53592","4929103.48088","4929869.93951","4933770.0821","4934536.82672","4935303.53609","4936069.85591","4936836.84199","4922970.09373","4923736.3446","4924503.3987","4936079.30352"
"Blocked","Male","cave","9","M_dime.wav","b","0.0228785220534","129","4933003.20732","4925269.71728","4926036.74819","4926803.40841","4927569.99288","4928336.53592","4929103.48088","4929869.93951","4933770.0821","4934536.82672","4935303.53609","4936069.85591","4936836.84199","4937586.23788","4923736.3446","4924503.3987","4936846.98399"
"Blocked","Male","cave","9","M_tile.wav","None","734.815759758","129","4933003.20732","4925269.71728","4926036.74819","4926803.40841","4927569.99288","4928336.53592","4929103.48088","4929869.93951","4933770.0821","4934536.82672","4935303.53609","4936069.85591","4936836.84199","4937586.23788","4938353.03196","4924503.3987","4937595.44742"
"Blocked","Male","cave","9","M_cave.wav","None","733.804775576","129","4933003.20732","4925269.71728","4926036.74819","4926803.40841","4927569.99288","4928336.53592","4929103.48088","4929869.93951","4933770.0821","4934536.82672","4935303.53609","4936069.85591","4936836.84199","4937586.23788","4938353.03196","4939119.65662","4938362.48358"
"Blocked","Male","cave","9","M_bluff.wav","space","420.808403986","129","4933003.20732","4939886.07785","4926036.74819","4926803.40841","4927569.99288","4928336.53592","4929103.48088","4929869.93951","4933770.0821","4934536.82672","4935303.53609","4936069.85591","4936836.84199","4937586.23788","4938353.03196","4939119.65662","4939129.26407"
"Blocked","Male","cave","9","M_cave.wav","None","732.718972373","129","4933003.20732","4939886.07785","4940652.56153","4926803.40841","4927569.99288","4928336.53592","4929103.48088","4929869.93951","4933770.0821","4934536.82672","4935303.53609","4936069.85591","4936836.84199","4937586.23788","4938353.03196","4939119.65662","4939895.14486"
"Blocked","Male","cave","9","M_priest.wav","space","408.515516611","129","4933003.20732","4939886.07785","4940652.56153","4941419.59893","4927569.99288","4928336.53592","4929103.48088","4929869.93951","4933770.0821","4934536.82672","4935303.53609","4936069.85591","4936836.84199","4937586.23788","4938353.03196","4939119.65662","4940661.49375"
"Blocked","Male","cave","9","M_greet.wav","None","730.423389003","129","4933003.20732","4939886.07785","4940652.56153","4941419.59893","4942186.24678","4928336.53592","4929103.48088","4929869.93951","4933770.0821","4934536.82672","4935303.53609","4936069.85591","4936836.84199","4937586.23788","4938353.03196","4939119.65662","4941429.19648"
"Blocked","Male","cave","9","M_dime.wav","None","730.451832642","129","4933003.20732","4939886.07785","4940652.56153","4941419.59893","4942186.24678","4942952.84424","4929103.48088","4929869.93951","4933770.0821","4934536.82672","4935303.53609","4936069.85591","4936836.84199","4937586.23788","4938353.03196","4939119.65662","4942195.65914"
"Blocked","Male","cave","9","M_dime.wav","None","729.839677108","129","4933003.20732","4939886.07785","4940652.56153","4941419.59893","4942186.24678","4942952.84424","4943719.54372","4929869.93951","4933770.0821","4934536.82672","4935303.53609","4936069.85591","4936836.84199","4937586.23788","4938353.03196","4939119.65662","4942962.47208"
"Blocked","Male","cave","9","M_bluff.wav","None","729.632842704","129","4933003.20732","4939886.07785","4940652.56153","4941419.59893","4942186.24678","4942952.84424","4943719.54372","4944486.27597","4933770.0821","4934536.82672","4935303.53609","4936069.85591","4936836.84199","4937586.23788","4938353.03196","4939119.65662","4943729.09211"
"Blocked","Male","done","22","M_romp.wav","None","729.506083183","129","4947619.52615","4939886.07785","4940652.56153","4941419.59893","4942186.24678","4942952.84424","4943719.54372","4944486.27597","4933770.0821","4934536.82672","4935303.53609","4936069.85591","4936836.84199","4937586.23788","4938353.03196","4939119.65662","4944495.48736"
"Blocked","Male","done","22","M_done.wav","None","723.043822916","129","4947619.52615","4939886.07785","4940652.56153","4941419.59893","4942186.24678","4942952.84424","4943719.54372","4944486.27597","4948386.54593","4934536.82672","4935303.53609","4936069.85591","4936836.84199","4937586.23788","4938353.03196","4939119.65662","4947629.24428"
"Blocked","Male","done","22","M_bluff.wav","space","417.541410134","129","4947619.52615","4939886.07785","4940652.56153","4941419.59893","4942186.24678","4942952.84424","4943719.54372","4944486.27597","4948386.54593","4949152.91027","4935303.53609","4936069.85591","4936836.84199","4937586.23788","4938353.03196","4939119.65662","4948396.24056"
"Blocked","Male","done","22","M_gnash.wav","None","721.531056682","129","4947619.52615","4939886.07785","4940652.56153","4941419.59893","4942186.24678","4942952.84424","4943719.54372","4944486.27597","4948386.54593","4949152.91027","4949919.94087","4936069.85591","4936836.84199","4937586.23788","4938353.03196","4939119.65662","4949162.26512"
"Blocked","Male","done","22","M_lash.wav","None","720.360541075","129","4947619.52615","4939886.07785","4940652.56153","4941419.59893","4942186.24678","4942952.84424","4943719.54372","4944486.27597","4948386.54593","4949152.91027","4949919.94087","4950686.50958","4936836.84199","4937586.23788","4938353.03196","4939119.65662","4949929.89891"
"Blocked","Male","done","22","M_depth.wav","None","725.570046692","129","4947619.52615","4939886.07785","4940652.56153","4941419.59893","4942186.24678","4942952.84424","4943719.54372","4944486.27597","4948386.54593","4949152.91027","4949919.94087","4950686.50958","4951452.42098","4937586.23788","4938353.03196","4939119.65662","4950690.75385"
"Blocked","Male","done","22","M_done.wav","None","721.242292377","129","4947619.52615","4939886.07785","4940652.56153","4941419.59893","4942186.24678","4942952.84424","4943719.54372","4944486.27597","4948386.54593","4949152.91027","4949919.94087","4950686.50958","4951452.42098","4952219.59627","4938353.03196","4939119.65662","4951461.43544"
"Blocked","Male","done","22","M_jaw.wav","space","408.420292369","129","4947619.52615","4939886.07785","4940652.56153","4941419.59893","4942186.24678","4942952.84424","4943719.54372","4944486.27597","4948386.54593","4949152.91027","4949919.94087","4950686.50958","4951452.42098","4952219.59627","4952986.50197","4939119.65662","4952229.26339"
"Blocked","Male","done","22","M_cave.wav","None","718.524383614","129","4947619.52615","4939886.07785","4940652.56153","4941419.59893","4942186.24678","4942952.84424","4943719.54372","4944486.27597","4948386.54593","4949152.91027","4949919.94087","4950686.50958","4951452.42098","4952219.59627","4952986.50197","4953753.1291","4952996.13384"
"Blocked","Male","done","22","M_done.wav","None","718.504287535","129","4947619.52615","4954502.21582","4940652.56153","4941419.59893","4942186.24678","4942952.84424","4943719.54372","4944486.27597","4948386.54593","4949152.91027","4949919.94087","4950686.50958","4951452.42098","4952219.59627","4952986.50197","4953753.1291","4953762.6979"
"Blocked","Male","done","22","M_knife.wav","space","437.839313468","129","4947619.52615","4954502.21582","4955269.06401","4941419.59893","4942186.24678","4942952.84424","4943719.54372","4944486.27597","4948386.54593","4949152.91027","4949919.94087","4950686.50958","4951452.42098","4952219.59627","4952986.50197","4953753.1291","4954511.72587"
"Blocked","Male","done","22","M_reek.wav","None","734.052111162","129","4947619.52615","4954502.21582","4955269.06401","4956035.99011","4942186.24678","4942952.84424","4943719.54372","4944486.27597","4948386.54593","4949152.91027","4949919.94087","4950686.50958","4951452.42098","4952219.59627","4952986.50197","4953753.1291","4955278.63466"
"Blocked","Male","done","22","M_bluff.wav","None","734.307175968","129","4947619.52615","4954502.21582","4955269.06401","4956035.99011","4956802.35198","4942952.84424","4943719.54372","4944486.27597","4948386.54593","4949152.91027","4949919.94087","4950686.50958","4951452.42098","4952219.59627","4952986.50197","4953753.1291","4956044.77207"
"Blocked","Male","done","22","M_romp.wav","None","733.554348232","129","4947619.52615","4954502.21582","4955269.06401","4956035.99011","4956802.35198","4957568.74816","4943719.54372","4944486.27597","4948386.54593","4949152.91027","4949919.94087","4950686.50958","4951452.42098","4952219.59627","4952986.50197","4953753.1291","4956811.6555"
"Blocked","Male","done","22","M_done.wav","None","733.648954134","129","4947619.52615","4954502.21582","4955269.06401","4956035.99011","4956802.35198","4957568.74816","4958335.77691","4944486.27597","4948386.54593","4949152.91027","4949919.94087","4950686.50958","4951452.42098","4952219.59627","4952986.50197","4953753.1291","4957577.62473"
"Blocked","Male","done","22","M_cave.wav","space","428.158289811","129","4947619.52615","4954502.21582","4955269.06401","4956035.99011","4956802.35198","4957568.74816","4958335.77691","4959102.29119","4948386.54593","4949152.91027","4949919.94087","4950686.50958","4951452.42098","4952219.59627","4952986.50197","4953753.1291","4958345.30087"
"Blocked","Male","done","21","M_romp.wav","None","731.539181666","129","4962236.10531","4954502.21582","4955269.06401","4956035.99011","4956802.35198","4957568.74816","4958335.77691","4959102.29119","4948386.54593","4949152.91027","4949919.94087","4950686.50958","4951452.42098","4952219.59627","4952986.50197","4953753.1291","4959111.60523"
"Blocked","Male","done","21","M_done.wav","None","722.951072093","129","4962236.10531","4954502.21582","4955269.06401","4956035.99011","4956802.35198","4957568.74816","4958335.77691","4959102.29119","4963002.51417","4949152.91027","4949919.94087","4950686.50958","4951452.42098","4952219.59627","4952986.50197","4953753.1291","4962245.10616"
"Blocked","Male","done","21","M_priest.wav","space","513.065192732","129","4962236.10531","4954502.21582","4955269.06401","4956035.99011","4956802.35198","4957568.74816","4958335.77691","4959102.29119","4963002.51417","4963768.94652","4949919.94087","4950686.50958","4951452.42098","4952219.59627","4952986.50197","4953753.1291","4963012.28763"
"Blocked","Male","done","21","M_jolt.wav","None","721.817038429","129","4962236.10531","4954502.21582","4955269.06401","4956035.99011","4956802.35198","4957568.74816","4958335.77691","4959102.29119","4963002.51417","4963768.94652","4964535.96197","4950686.50958","4951452.42098","4952219.59627","4952986.50197","4953753.1291","4963778.30416"
"Blocked","Male","done","21","M_tile.wav","None","720.741128664","129","4962236.10531","4954502.21582","4955269.06401","4956035.99011","4956802.35198","4957568.74816","4958335.77691","4959102.29119","4963002.51417","4963768.94652","4964535.96197","4965302.70968","4951452.42098","4952219.59627","4952986.50197","4953753.1291","4964545.76079"
"Blocked","Male","done","21","M_done.wav","None","720.492247259","129","4962236.10531","4954502.21582","4955269.06401","4956035.99011","4956802.35198","4957568.74816","4958335.77691","4959102.29119","4963002.51417","4963768.94652","4964535.96197","4965302.70968","4966068.95809","4952219.59627","4952986.50197","4953753.1291","4965312.5286"
"Blocked","Male","done","21","M_bluff.wav","space","430.850228469","129","4962236.10531","4954502.21582","4955269.06401","4956035.99011","4956802.35198","4957568.74816","4958335.77691","4959102.29119","4963002.51417","4963768.94652","4964535.96197","4965302.70968","4966068.95809","4966835.79948","4952986.50197","4953753.1291","4966078.40321"
"Blocked","Male","done","21","M_done.wav","None","719.446636155","129","4962236.10531","4954502.21582","4955269.06401","4956035.99011","4956802.35198","4957568.74816","4958335.77691","4959102.29119","4963002.51417","4963768.94652","4964535.96197","4965302.70968","4966068.95809","4966835.79948","4967602.2071","4953753.1291","4966845.75659"
"Blocked","Male","done","21","M_priest.wav","space","569.450284354","129","4962236.10531","4954502.21582","4955269.06401","4956035.99011","4956802.35198","4957568.74816","4958335.77691","4959102.29119","4963002.51417","4963768.94652","4964535.96197","4965302.70968","4966068.95809","4966835.79948","4967602.2071","4968351.75386","4967611.71932"
"Blocked","Male","done","21","M_romp.wav","None","736.144260911","129","4962236.10531","4969118.29968","4955269.06401","4956035.99011","4956802.35198","4957568.74816","4958335.77691","4959102.29119","4963002.51417","4963768.94652","4964535.96197","4965302.70968","4966068.95809","4966835.79948","4967602.2071","4968351.75386","4968360.84746"
"Blocked","Male","done","21","M_tile.wav","None","736.506298417","129","4962236.10531","4969118.29968","4969885.30709","4956035.99011","4956802.35198","4957568.74816","4958335.77691","4959102.29119","4963002.51417","4963768.94652","4964535.96197","4965302.70968","4966068.95809","4966835.79948","4967602.2071","4968351.75386","4969127.23035"
"Blocked","Male","done","21","M_ball.wav","None","735.31445011","129","4962236.10531","4969118.29968","4969885.30709","4970651.8591","4956802.35198","4957568.74816","4958335.77691","4959102.29119","4963002.51417","4963768.94652","4964535.96197","4965302.70968","4966068.95809","4966835.79948","4967602.2071","4968351.75386","4969894.58836"
"Blocked","Male","done","21","M_lash.wav","None","735.315995932","129","4962236.10531","4969118.29968","4969885.30709","4970651.8591","4971418.55487","4957568.74816","4958335.77691","4959102.29119","4963002.51417","4963768.94652","4964535.96197","4965302.70968","4966068.95809","4966835.79948","4967602.2071","4968351.75386","4970661.25847"
"Blocked","Male","done","21","M_done.wav","None","734.723318078","129","4962236.10531","4969118.29968","4969885.30709","4970651.8591","4971418.55487","4972184.80327","4958335.77691","4959102.29119","4963002.51417","4963768.94652","4964535.96197","4965302.70968","4966068.95809","4966835.79948","4967602.2071","4968351.75386","4971428.12768"
"Blocked","Male","done","21","M_tile.wav","space","515.433740046","129","4962236.10531","4969118.29968","4969885.30709","4970651.8591","4971418.55487","4972184.80327","4972951.47987","4959102.29119","4963002.51417","4963768.94652","4964535.96197","4965302.70968","4966068.95809","4966835.79948","4967602.2071","4968351.75386","4972193.62851"
"Blocked","Male","done","21","M_cad.wav","None","734.579863375","129","4962236.10531","4969118.29968","4969885.30709","4970651.8591","4971418.55487","4972184.80327","4972951.47987","4973718.54757","4963002.51417","4963768.94652","4964535.96197","4965302.70968","4966068.95809","4966835.79948","4967602.2071","4968351.75386","4972960.67612"
"Blocked","Male","ball","1","M_reek.wav","None","734.070661303","129","4976852.38209","4969118.29968","4969885.30709","4970651.8591","4971418.55487","4972184.80327","4972951.47987","4973718.54757","4963002.51417","4963768.94652","4964535.96197","4965302.70968","4966068.95809","4966835.79948","4967602.2071","4968351.75386","4973727.9117"
"Blocked","Male","ball","1","M_romp.wav","None","722.359012522","129","4976852.38209","4969118.29968","4969885.30709","4970651.8591","4971418.55487","4972184.80327","4972951.47987","4973718.54757","4977618.60205","4963768.94652","4964535.96197","4965302.70968","4966068.95809","4966835.79948","4967602.2071","4968351.75386","4976861.76909"
"Blocked","Male","ball","1","M_dime.wav","None","722.765261191","129","4976852.38209","4969118.29968","4969885.30709","4970651.8591","4971418.55487","4972184.80327","4972951.47987","4973718.54757","4977618.60205","4978385.5096","4964535.96197","4965302.70968","4966068.95809","4966835.79948","4967602.2071","4968351.75386","4977628.09139"
"Blocked","Male","ball","1","M_ball.wav","None","721.903605911","129","4976852.38209","4969118.29968","4969885.30709","4970651.8591","4971418.55487","4972184.80327","4972951.47987","4973718.54757","4977618.60205","4978385.5096","4979152.26906","4965302.70968","4966068.95809","4966835.79948","4967602.2071","4968351.75386","4978395.81731"
"Blocked","Male","ball","1","M_reek.wav","space","347.116314515","129","4976852.38209","4969118.29968","4969885.30709","4970651.8591","4971418.55487","4972184.80327","4972951.47987","4973718.54757","4977618.60205","4978385.5096","4979152.26906","4979918.42069","4966068.95809","4966835.79948","4967602.2071","4968351.75386","4979161.75283"
"Blocked","Male","ball","1","M_park.wav","None","722.870997153","129","4976852.38209","4969118.29968","4969885.30709","4970651.8591","4971418.55487","4972184.80327","4972951.47987","4973718.54757","4977618.60205","4978385.5096","4979152.26906","4979918.42069","4980685.39471","4966835.79948","4967602.2071","4968351.75386","4979927.4911"
"Blocked","Male","ball","1","M_ball.wav","None","721.523636661","129","4976852.38209","4969118.29968","4969885.30709","4970651.8591","4971418.55487","4972184.80327","4972951.47987","4973718.54757","4977618.60205","4978385.5096","4979152.26906","4979918.42069","4980685.39471","4981451.78409","4967602.2071","4968351.75386","4980695.41273"
"Blocked","Male","ball","1","M_cling.wav","space","447.393268522","129","4976852.38209","4969118.29968","4969885.30709","4970651.8591","4971418.55487","4972184.80327","4972951.47987","4973718.54757","4977618.60205","4978385.5096","4979152.26906","4979918.42069","4980685.39471","4981451.78409","4982218.68639","4968351.75386","4981461.38906"
"Blocked","Male","ball","1","M_ball.wav","None","720.806363447","129","4976852.38209","4969118.29968","4969885.30709","4970651.8591","4971418.55487","4972184.80327","4972951.47987","4973718.54757","4977618.60205","4978385.5096","4979152.26906","4979918.42069","4980685.39471","4981451.78409","4982218.68639","4982985.43441","4982228.1949"
"Blocked","Male","ball","1","M_cave.wav","space","465.523893829","129","4976852.38209","4983751.98394","4969885.30709","4970651.8591","4971418.55487","4972184.80327","4972951.47987","4973718.54757","4977618.60205","4978385.5096","4979152.26906","4979918.42069","4980685.39471","4981451.78409","4982218.68639","4982985.43441","4982995.2054"
"Blocked","Male","ball","1","M_ball.wav","None","718.658872297","129","4976852.38209","4983751.98394","4984518.8986","4970651.8591","4971418.55487","4972184.80327","4972951.47987","4973718.54757","4977618.60205","4978385.5096","4979152.26906","4979918.42069","4980685.39471","4981451.78409","4982218.68639","4982985.43441","4983762.24837"
"Blocked","Male","ball","1","M_romp.wav","space","396.071754511","129","4976852.38209","4983751.98394","4984518.8986","4985268.23172","4971418.55487","4972184.80327","4972951.47987","4973718.54757","4977618.60205","4978385.5096","4979152.26906","4979918.42069","4980685.39471","4981451.78409","4982218.68639","4982985.43441","4984528.62662"
"Blocked","Male","ball","1","M_jaw.wav","None","735.629493779","129","4976852.38209","4983751.98394","4984518.8986","4985268.23172","4986034.80228","4972184.80327","4972951.47987","4973718.54757","4977618.60205","4978385.5096","4979152.26906","4979918.42069","4980685.39471","4981451.78409","4982218.68639","4982985.43441","4985277.63202"
"Blocked","Male","ball","1","M_cad.wav","None","735.362062172","129","4976852.38209","4983751.98394","4984518.8986","4985268.23172","4986034.80228","4986801.76826","4972951.47987","4973718.54757","4977618.60205","4978385.5096","4979152.26906","4979918.42069","4980685.39471","4981451.78409","4982218.68639","4982985.43441","4986044.14229"
"Blocked","Male","ball","1","M_reek.wav","None","734.932934982","129","4976852.38209","4983751.98394","4984518.8986","4985268.23172","4986034.80228","4986801.76826","4987567.81416","4973718.54757","4977618.60205","4978385.5096","4979152.26906","4979918.42069","4980685.39471","4981451.78409","4982218.68639","4982985.43441","4986811.45887"
"Blocked","Male","ball","1","M_lash.wav","None","735.759654082","129","4976852.38209","4983751.98394","4984518.8986","4985268.23172","4986034.80228","4986801.76826","4987567.81416","4988334.72511","4977618.60205","4978385.5096","4979152.26906","4979918.42069","4980685.39471","4981451.78409","4982218.68639","4982985.43441","4987577.37152"
"Blocked","Male","cave","12","M_knife.wav","None","735.68823596","129","4991467.38417","4983751.98394","4984518.8986","4985268.23172","4986034.80228","4986801.76826","4987567.81416","4988334.72511","4977618.60205","4978385.5096","4979152.26906","4979918.42069","4980685.39471","4981451.78409","4982218.68639","4982985.43441","4988343.79027"
"Blocked","Male","cave","12","M_tile.wav","None","726.375742291","129","4991467.38417","4983751.98394","4984518.8986","4985268.23172","4986034.80228","4986801.76826","4987567.81416","4988334.72511","4992234.75825","4978385.5096","4979152.26906","4979918.42069","4980685.39471","4981451.78409","4982218.68639","4982985.43441","4991476.18498"
"Blocked","Male","cave","12","M_cave.wav","None","725.256548845","129","4991467.38417","4983751.98394","4984518.8986","4985268.23172","4986034.80228","4986801.76826","4987567.81416","4988334.72511","4992234.75825","4993001.39281","4979152.26906","4979918.42069","4980685.39471","4981451.78409","4982218.68639","4982985.43441","4992243.94337"
"Blocked","Male","cave","12","M_knife.wav","space","353.555387119","129","4991467.38417","4983751.98394","4984518.8986","4985268.23172","4986034.80228","4986801.76826","4987567.81416","4988334.72511","4992234.75825","4993001.39281","4993768.47349","4979918.42069","4980685.39471","4981451.78409","4982218.68639","4982985.43441","4993010.93223"
"Blocked","Male","cave","12","M_cave.wav","None","723.64392085","129","4991467.38417","4983751.98394","4984518.8986","4985268.23172","4986034.80228","4986801.76826","4987567.81416","4988334.72511","4992234.75825","4993001.39281","4993768.47349","4994534.92657","4980685.39471","4981451.78409","4982218.68639","4982985.43441","4993777.87317"
"Blocked","Male","cave","12","M_dime.wav","space","459.571453976","129","4991467.38417","4983751.98394","4984518.8986","4985268.23172","4986034.80228","4986801.76826","4987567.81416","4988334.72511","4992234.75825","4993001.39281","4993768.47349","4994534.92657","4995301.75064","4981451.78409","4982218.68639","4982985.43441","4994544.80082"
"Blocked","Male","cave","12","M_priest.wav","None","721.868978931","129","4991467.38417","4983751.98394","4984518.8986","4985268.23172","4986034.80228","4986801.76826","4987567.81416","4988334.72511","4992234.75825","4993001.39281","4993768.47349","4994534.92657","4995301.75064","4996068.39756","4982218.68639","4982985.43441","4995311.34293"
"Blocked","Male","cave","12","M_gnash.wav","None","721.706355805","129","4991467.38417","4983751.98394","4984518.8986","4985268.23172","4986034.80228","4986801.76826","4987567.81416","4988334.72511","4992234.75825","4993001.39281","4993768.47349","4994534.92657","4995301.75064","4996068.39756","4996835.15764","4982985.43441","4996077.83187"
"Blocked","Male","cave","12","M_jaw.wav","None","721.363177697","129","4991467.38417","4983751.98394","4984518.8986","4985268.23172","4986034.80228","4986801.76826","4987567.81416","4988334.72511","4992234.75825","4993001.39281","4993768.47349","4994534.92657","4995301.75064","4996068.39756","4996835.15764","4997601.44932","4996844.85876"
"Blocked","Male","cave","12","M_dime.wav","None","722.097764374","129","4991467.38417","4998368.33214","4984518.8986","4985268.23172","4986034.80228","4986801.76826","4987567.81416","4988334.72511","4992234.75825","4993001.39281","4993768.47349","4994534.92657","4995301.75064","4996068.39756","4996835.15764","4997601.44932","4997610.71884"
"Blocked","Male","cave","12","M_cave.wav","None","721.501685621","129","4991467.38417","4998368.33214","4999134.90084","4985268.23172","4986034.80228","4986801.76826","4987567.81416","4988334.72511","4992234.75825","4993001.39281","4993768.47349","4994534.92657","4995301.75064","4996068.39756","4996835.15764","4997601.44932","4998378.09108"
"Blocked","Male","cave","12","M_cad.wav","space","435.68471144","129","4991467.38417","4998368.33214","4999134.90084","4999901.2893","4986034.80228","4986801.76826","4987567.81416","4988334.72511","4992234.75825","4993001.39281","4993768.47349","4994534.92657","4995301.75064","4996068.39756","4996835.15764","4997601.44932","4999144.5426"
"Blocked","Male","cave","12","M_cave.wav","None","721.056172391","129","4991467.38417","4998368.33214","4999134.90084","4999901.2893","5000667.70867","4986801.76826","4987567.81416","4988334.72511","4992234.75825","4993001.39281","4993768.47349","4994534.92657","4995301.75064","4996068.39756","4996835.15764","4997601.44932","4999910.87077"
"Blocked","Male","cave","12","M_knife.wav","space","463.41937728","129","4991467.38417","4998368.33214","4999134.90084","4999901.2893","5000667.70867","5001434.85706","4987567.81416","4988334.72511","4992234.75825","4993001.39281","4993768.47349","4994534.92657","4995301.75064","4996068.39756","4996835.15764","4997601.44932","5000676.77166"
"Blocked","Male","cave","12","M_depth.wav","None","719.987682708","129","4991467.38417","4998368.33214","4999134.90084","4999901.2893","5000667.70867","5001434.85706","5002201.6428","4988334.72511","4992234.75825","4993001.39281","4993768.47349","4994534.92657","4995301.75064","4996068.39756","4996835.15764","4997601.44932","5001444.60796"
"Blocked","Male","cave","12","M_jaw.wav","None","720.551298641","129","4991467.38417","4998368.33214","4999134.90084","4999901.2893","5000667.70867","5001434.85706","5002201.6428","5002968.06187","4992234.75825","4993001.39281","4993768.47349","4994534.92657","4995301.75064","4996068.39756","4996835.15764","4997601.44932","5002211.00074"
"Blocked","Male","ball","6","M_jolt.wav","None","720.228834834","129","5006084.6506","4998368.33214","4999134.90084","4999901.2893","5000667.70867","5001434.85706","5002201.6428","5002968.06187","4992234.75825","4993001.39281","4993768.47349","4994534.92657","4995301.75064","4996068.39756","4996835.15764","4997601.44932","5002977.83626"
"Blocked","Male","ball","6","M_depth.wav","None","721.724905947","129","5006084.6506","4998368.33214","4999134.90084","4999901.2893","5000667.70867","5001434.85706","5002201.6428","5002968.06187","5006851.42706","4993001.39281","4993768.47349","4994534.92657","4995301.75064","4996068.39756","4996835.15764","4997601.44932","5006094.46951"
"Blocked","Male","ball","6","M_ball.wav","None","721.912262612","129","5006084.6506","4998368.33214","4999134.90084","4999901.2893","5000667.70867","5001434.85706","5002201.6428","5002968.06187","5006851.42706","5007618.16241","4993768.47349","4994534.92657","4995301.75064","4996068.39756","4996835.15764","4997601.44932","5006860.88456"
"Blocked","Male","ball","6","M_cad.wav","space","320.00277011","129","5006084.6506","4998368.33214","4999134.90084","4999901.2893","5000667.70867","5001434.85706","5002201.6428","5002968.06187","5006851.42706","5007618.16241","5008384.69463","4994534.92657","4995301.75064","4996068.39756","4996835.15764","4997601.44932","5007627.99369"
"Blocked","Male","ball","6","M_gnash.wav","None","720.401042315","129","5006084.6506","4998368.33214","4999134.90084","4999901.2893","5000667.70867","5001434.85706","5002201.6428","5002968.06187","5006851.42706","5007618.16241","5008384.69463","5009151.13471","4995301.75064","4996068.39756","4996835.15764","4997601.44932","5008394.60351"
"Blocked","Male","ball","6","M_ball.wav","None","721.117078735","129","5006084.6506","4998368.33214","4999134.90084","4999901.2893","5000667.70867","5001434.85706","5002201.6428","5002968.06187","5006851.42706","5007618.16241","5008384.69463","5009151.13471","5009917.87377","4996068.39756","4996835.15764","4997601.44932","5009160.39125"
"Blocked","Male","ball","6","M_knife.wav","space","403.582408501","129","5006084.6506","4998368.33214","4999134.90084","4999901.2893","5000667.70867","5001434.85706","5002201.6428","5002968.06187","5006851.42706","5007618.16241","5008384.69463","5009151.13471","5009917.87377","5010684.4369","4996835.15764","4997601.44932","5009927.36156"
"Blocked","Male","ball","6","M_priest.wav","None","719.898332668","129","5006084.6506","4998368.33214","4999134.90084","4999901.2893","5000667.70867","5001434.85706","5002201.6428","5002968.06187","5006851.42706","5007618.16241","5008384.69463","5009151.13471","5009917.87377","5010684.4369","5011451.20038","4997601.44932","5010694.00013"
"Blocked","Male","ball","6","M_tile.wav","None","719.475079735","129","5006084.6506","4998368.33214","4999134.90084","4999901.2893","5000667.70867","5001434.85706","5002201.6428","5002968.06187","5006851.42706","5007618.16241","5008384.69463","5009151.13471","5009917.87377","5010684.4369","5011451.20038","5012217.8538","5011460.98683"
"Blocked","Male","ball","6","M_ball.wav","None","719.324514152","129","5006084.6506","5012984.54926","4999134.90084","4999901.2893","5000667.70867","5001434.85706","5002201.6428","5002968.06187","5006851.42706","5007618.16241","5008384.69463","5009151.13471","5009917.87377","5010684.4369","5011451.20038","5012217.8538","5012227.96549"
"Blocked","Male","ball","6","M_depth.wav","space","353.641336259","129","5006084.6506","5012984.54926","5013751.21256","4999901.2893","5000667.70867","5001434.85706","5002201.6428","5002968.06187","5006851.42706","5007618.16241","5008384.69463","5009151.13471","5009917.87377","5010684.4369","5011451.20038","5012217.8538","5012994.20987"
"Blocked","Male","ball","6","M_priest.wav","None","718.873435923","129","5006084.6506","5012984.54926","5013751.21256","5014517.72747","5000667.70867","5001434.85706","5002201.6428","5002968.06187","5006851.42706","5007618.16241","5008384.69463","5009151.13471","5009917.87377","5010684.4369","5011451.20038","5012217.8538","5013760.92265"
"Blocked","Male","ball","6","M_lash.wav","None","718.932796444","129","5006084.6506","5012984.54926","5013751.21256","5014517.72747","5015284.51784","5001434.85706","5002201.6428","5002968.06187","5006851.42706","5007618.16241","5008384.69463","5009151.13471","5009917.87377","5010684.4369","5011451.20038","5012217.8538","5014527.84164"
"Blocked","Male","ball","6","M_ball.wav","None","719.186933769","129","5006084.6506","5012984.54926","5013751.21256","5014517.72747","5015284.51784","5016051.01049","5002201.6428","5002968.06187","5006851.42706","5007618.16241","5008384.69463","5009151.13471","5009917.87377","5010684.4369","5011451.20038","5012217.8538","5015294.52597"
"Blocked","Male","ball","6","M_lash.wav","space","327.23115239","129","5006084.6506","5012984.54926","5013751.21256","5014517.72747","5015284.51784","5016051.01049","5016817.77088","5002968.06187","5006851.42706","5007618.16241","5008384.69463","5009151.13471","5009917.87377","5010684.4369","5011451.20038","5012217.8538","5016060.53569"
"Blocked","Male","ball","6","M_dime.wav","None","718.377218931","129","5006084.6506","5012984.54926","5013751.21256","5014517.72747","5015284.51784","5016051.01049","5016817.77088","5017583.93704","5006851.42706","5007618.16241","5008384.69463","5009151.13471","5009917.87377","5010684.4369","5011451.20038","5012217.8538","5016827.5564"
"Blocked","Male","ball","4","M_bluff.wav","None","719.934196386","129","5020700.53938","5012984.54926","5013751.21256","5014517.72747","5015284.51784","5016051.01049","5016817.77088","5017583.93704","5006851.42706","5007618.16241","5008384.69463","5009151.13471","5009917.87377","5010684.4369","5011451.20038","5012217.8538","5017592.98334"
"Blocked","Male","ball","4","M_romp.wav","None","722.960037995","129","5020700.53938","5012984.54926","5013751.21256","5014517.72747","5015284.51784","5016051.01049","5016817.77088","5017583.93704","5021467.4729","5007618.16241","5008384.69463","5009151.13471","5009917.87377","5010684.4369","5011451.20038","5012217.8538","5020710.1496"
"Blocked","Male","ball","4","M_ball.wav","None","723.242928041","129","5020700.53938","5012984.54926","5013751.21256","5014517.72747","5015284.51784","5016051.01049","5016817.77088","5017583.93704","5021467.4729","5022234.08767","5008384.69463","5009151.13471","5009917.87377","5010684.4369","5011451.20038","5012217.8538","5021477.33633"
"Blocked","Male","ball","4","M_cad.wav","space","382.941945397","129","5020700.53938","5012984.54926","5013751.21256","5014517.72747","5015284.51784","5016051.01049","5016817.77088","5017583.93704","5021467.4729","5022234.08767","5023000.67801","5009151.13471","5009917.87377","5010684.4369","5011451.20038","5012217.8538","5022244.59665"
"Blocked","Male","ball","4","M_lash.wav","None","723.536020727","129","5020700.53938","5012984.54926","5013751.21256","5014517.72747","5015284.51784","5016051.01049","5016817.77088","5017583.93704","5021467.4729","5022234.08767","5023000.67801","5023767.24053","5009917.87377","5010684.4369","5011451.20038","5012217.8538","5023009.55396"
"Blocked","Male","ball","4","M_ball.wav","None","723.495210347","129","5020700.53938","5012984.54926","5013751.21256","5014517.72747","5015284.51784","5016051.01049","5016817.77088","5017583.93704","5021467.4729","5022234.08767","5023000.67801","5023767.24053","5024533.82809","5010684.4369","5011451.20038","5012217.8538","5023776.48593"
"Blocked","Male","ball","4","M_done.wav","space","364.467523584","129","5020700.53938","5012984.54926","5013751.21256","5014517.72747","5015284.51784","5016051.01049","5016817.77088","5017583.93704","5021467.4729","5022234.08767","5023000.67801","5023767.24053","5024533.82809","5025300.6602","5011451.20038","5012217.8538","5024543.04628"
"Blocked","Male","ball","4","M_lash.wav","None","721.610822366","129","5020700.53938","5012984.54926","5013751.21256","5014517.72747","5015284.51784","5016051.01049","5016817.77088","5017583.93704","5021467.4729","5022234.08767","5023000.67801","5023767.24053","5024533.82809","5025300.6602","5026067.16614","5012217.8538","5025310.68162"
"Blocked","Male","ball","4","M_reek.wav","None","722.427339002","129","5020700.53938","5012984.54926","5013751.21256","5014517.72747","5015284.51784","5016051.01049","5016817.77088","5017583.93704","5021467.4729","5022234.08767","5023000.67801","5023767.24053","5024533.82809","5025300.6602","5026067.16614","5026833.88201","5026076.58561"
"Blocked","Male","ball","4","M_ball.wav","None","722.506795544","129","5020700.53938","5027600.57159","5013751.21256","5014517.72747","5015284.51784","5016051.01049","5016817.77088","5017583.93704","5021467.4729","5022234.08767","5023000.67801","5023767.24053","5024533.82809","5025300.6602","5026067.16614","5026833.88201","5026843.07918"
"Blocked","Male","ball","4","M_cave.wav","space","329.118013673","129","5020700.53938","5027600.57159","5028367.58673","5014517.72747","5015284.51784","5016051.01049","5016817.77088","5017583.93704","5021467.4729","5022234.08767","5023000.67801","5023767.24053","5024533.82809","5025300.6602","5026067.16614","5026833.88201","5027610.28168"
"Blocked","Male","ball","4","M_ball.wav","None","720.768335626","129","5020700.53938","5027600.57159","5028367.58673","5029133.66849","5015284.51784","5016051.01049","5016817.77088","5017583.93704","5021467.4729","5022234.08767","5023000.67801","5023767.24053","5024533.82809","5025300.6602","5026067.16614","5026833.88201","5028377.5219"
"Blocked","Male","ball","4","M_depth.wav","space","452.596899938","129","5020700.53938","5027600.57159","5028367.58673","5029133.66849","5029900.28666","5016051.01049","5016817.77088","5017583.93704","5021467.4729","5022234.08767","5023000.67801","5023767.24053","5024533.82809","5025300.6602","5026067.16614","5026833.88201","5029142.75066"
"Blocked","Male","ball","4","M_reek.wav","None","720.785339945","129","5020700.53938","5027600.57159","5028367.58673","5029133.66849","5029900.28666","5030667.48205","5016817.77088","5017583.93704","5021467.4729","5022234.08767","5023000.67801","5023767.24053","5024533.82809","5025300.6602","5026067.16614","5026833.88201","5029910.18441"
"Blocked","Male","ball","4","M_cave.wav","None","721.786739887","129","5020700.53938","5027600.57159","5028367.58673","5029133.66849","5029900.28666","5030667.48205","5031433.47693","5017583.93704","5021467.4729","5022234.08767","5023000.67801","5023767.24053","5024533.82809","5025300.6602","5026067.16614","5026833.88201","5030676.50052"
"Blocked","Male","ball","4","M_knife.wav","space","608.936481759","129","5020700.53938","5027600.57159","5028367.58673","5029133.66849","5029900.28666","5030667.48205","5031433.47693","5032200.56937","5021467.4729","5022234.08767","5023000.67801","5023767.24053","5024533.82809","5025300.6602","5026067.16614","5026833.88201","5031442.3266"
"Blocked","Male","cave","10","M_jolt.wav","None","722.238745657","129","5035333.87799","5027600.57159","5028367.58673","5029133.66849","5029900.28666","5030667.48205","5031433.47693","5032200.56937","5021467.4729","5022234.08767","5023000.67801","5023767.24053","5024533.82809","5025300.6602","5026067.16614","5026833.88201","5032209.90969"
"Blocked","Male","cave","10","M_knife.wav","None","722.002849273","129","5035333.87799","5027600.57159","5028367.58673","5029133.66849","5029900.28666","5030667.48205","5031433.47693","5032200.56937","5036100.51161","5022234.08767","5023000.67801","5023767.24053","5024533.82809","5025300.6602","5026067.16614","5026833.88201","5035343.85241"
"Blocked","Male","cave","10","M_cave.wav","None","722.448362503","129","5035333.87799","5027600.57159","5028367.58673","5029133.66849","5029900.28666","5030667.48205","5031433.47693","5032200.56937","5036100.51161","5036867.27571","5023000.67801","5023767.24053","5024533.82809","5025300.6602","5026067.16614","5026833.88201","5036110.14935"
"Blocked","Male","cave","10","M_romp.wav","space","454.198088613","129","5035333.87799","5027600.57159","5028367.58673","5029133.66849","5029900.28666","5030667.48205","5031433.47693","5032200.56937","5036100.51161","5036867.27571","5037633.63387","5023767.24053","5024533.82809","5025300.6602","5026067.16614","5026833.88201","5036876.87975"
"Blocked","Male","cave","10","M_knife.wav","None","721.742219408","129","5035333.87799","5027600.57159","5028367.58673","5029133.66849","5029900.28666","5030667.48205","5031433.47693","5032200.56937","5036100.51161","5036867.27571","5037633.63387","5038400.06406","5024533.82809","5025300.6602","5026067.16614","5026833.88201","5037643.54862"
"Blocked","Male","cave","10","M_depth.wav","None","722.749184409","129","5035333.87799","5027600.57159","5028367.58673","5029133.66849","5029900.28666","5030667.48205","5031433.47693","5032200.56937","5036100.51161","5036867.27571","5037633.63387","5038400.06406","5039166.92647","5025300.6602","5026067.16614","5026833.88201","5038409.33729"
"Blocked","Male","cave","10","M_greet.wav","None","722.071794095","129","5035333.87799","5027600.57159","5028367.58673","5029133.66849","5029900.28666","5030667.48205","5031433.47693","5032200.56937","5036100.51161","5036867.27571","5037633.63387","5038400.06406","5039166.92647","5039933.82166","5026067.16614","5026833.88201","5039176.96304"
"Blocked","Male","cave","10","M_depth.wav","None","722.500303004","129","5035333.87799","5027600.57159","5028367.58673","5029133.66849","5029900.28666","5030667.48205","5031433.47693","5032200.56937","5036100.51161","5036867.27571","5037633.63387","5038400.06406","5039166.92647","5039933.82166","5040700.33625","5026833.88201","5039943.51628"
"Blocked","Male","cave","10","M_cave.wav","None","723.067938117","129","5035333.87799","5027600.57159","5028367.58673","5029133.66849","5029900.28666","5030667.48205","5031433.47693","5032200.56937","5036100.51161","5036867.27571","5037633.63387","5038400.06406","5039166.92647","5039933.82166","5040700.33625","5041466.97359","5040710.00584"
"Blocked","Male","cave","10","M_bluff.wav","space","462.527114141","129","5035333.87799","5042233.29496","5028367.58673","5029133.66849","5029900.28666","5030667.48205","5031433.47693","5032200.56937","5036100.51161","5036867.27571","5037633.63387","5038400.06406","5039166.92647","5039933.82166","5040700.33625","5041466.97359","5041476.46447"
"Blocked","Male","cave","10","M_cave.wav","None","723.217885301","129","5035333.87799","5042233.29496","5043000.25537","5029133.66849","5029900.28666","5030667.48205","5031433.47693","5032200.56937","5036100.51161","5036867.27571","5037633.63387","5038400.06406","5039166.92647","5039933.82166","5040700.33625","5041466.97359","5042242.46245"
"Blocked","Male","cave","10","M_dime.wav","space","441.127949161","129","5035333.87799","5042233.29496","5043000.25537","5043766.87385","5029900.28666","5030667.48205","5031433.47693","5032200.56937","5036100.51161","5036867.27571","5037633.63387","5038400.06406","5039166.92647","5039933.82166","5040700.33625","5041466.97359","5043009.79789"
"Blocked","Male","cave","10","M_reek.wav","None","722.193606896","129","5035333.87799","5042233.29496","5043000.25537","5043766.87385","5044533.40514","5030667.48205","5031433.47693","5032200.56937","5036100.51161","5036867.27571","5037633.63387","5038400.06406","5039166.92647","5039933.82166","5040700.33625","5041466.97359","5043776.3839"
"Blocked","Male","cave","10","M_depth.wav","None","722.606348107","129","5035333.87799","5042233.29496","5043000.25537","5043766.87385","5044533.40514","5045300.32444","5031433.47693","5032200.56937","5036100.51161","5036867.27571","5037633.63387","5038400.06406","5039166.92647","5039933.82166","5040700.33625","5041466.97359","5044542.5176"
"Blocked","Male","cave","10","M_cave.wav","None","721.86372301","129","5035333.87799","5042233.29496","5043000.25537","5043766.87385","5044533.40514","5045300.32444","5046066.89964","5032200.56937","5036100.51161","5036867.27571","5037633.63387","5038400.06406","5039166.92647","5039933.82166","5040700.33625","5041466.97359","5045309.92756"
"Blocked","Male","cave","10","M_knife.wav","space","366.09313672","129","5035333.87799","5042233.29496","5043000.25537","5043766.87385","5044533.40514","5045300.32444","5046066.89964","5046833.42474","5036100.51161","5036867.27571","5037633.63387","5038400.06406","5039166.92647","5039933.82166","5040700.33625","5041466.97359","5046076.71515"
"Blocked","Male","tile","17","M_reek.wav","None","720.633846883","129","5049966.7683","5042233.29496","5043000.25537","5043766.87385","5044533.40514","5045300.32444","5046066.89964","5046833.42474","5036100.51161","5036867.27571","5037633.63387","5038400.06406","5039166.92647","5039933.82166","5040700.33625","5041466.97359","5046843.28138"
"Blocked","Male","tile","17","M_reek.wav","None","721.949672151","129","5049966.7683","5042233.29496","5043000.25537","5043766.87385","5044533.40514","5045300.32444","5046066.89964","5046833.42474","5050733.75871","5036867.27571","5037633.63387","5038400.06406","5039166.92647","5039933.82166","5040700.33625","5041466.97359","5049976.87938"
"Blocked","Male","tile","17","M_tile.wav","None","722.572957805","129","5049966.7683","5042233.29496","5043000.25537","5043766.87385","5044533.40514","5045300.32444","5046066.89964","5046833.42474","5050733.75871","5051499.74463","5037633.63387","5038400.06406","5039166.92647","5039933.82166","5040700.33625","5041466.97359","5050743.24094"
"Blocked","Male","tile","17","M_dime.wav","space","629.46997222","129","5049966.7683","5042233.29496","5043000.25537","5043766.87385","5044533.40514","5045300.32444","5046066.89964","5046833.42474","5050733.75871","5051499.74463","5052266.59034","5038400.06406","5039166.92647","5039933.82166","5040700.33625","5041466.97359","5051509.19686"
"Blocked","Male","tile","17","M_jolt.wav","None","721.997593413","129","5049966.7683","5042233.29496","5043000.25537","5043766.87385","5044533.40514","5045300.32444","5046066.89964","5046833.42474","5050733.75871","5051499.74463","5052266.59034","5053033.37237","5039166.92647","5039933.82166","5040700.33625","5041466.97359","5052276.22128"
"Blocked","Male","tile","17","M_greet.wav","None","722.083542496","129","5049966.7683","5042233.29496","5043000.25537","5043766.87385","5044533.40514","5045300.32444","5046066.89964","5046833.42474","5050733.75871","5051499.74463","5052266.59034","5053033.37237","5053799.57934","5039933.82166","5040700.33625","5041466.97359","5053043.10657"
"Blocked","Male","tile","17","M_greet.wav","None","723.524581408","129","5049966.7683","5042233.29496","5043000.25537","5043766.87385","5044533.40514","5045300.32444","5046066.89964","5046833.42474","5050733.75871","5051499.74463","5052266.59034","5053033.37237","5053799.57934","5054566.18762","5040700.33625","5041466.97359","5053808.80929"
"Blocked","Male","tile","17","M_tile.wav","None","723.490881966","129","5049966.7683","5042233.29496","5043000.25537","5043766.87385","5044533.40514","5045300.32444","5046066.89964","5046833.42474","5050733.75871","5051499.74463","5052266.59034","5053033.37237","5053799.57934","5054566.18762","5055333.64673","5041466.97359","5054575.62564"
"Blocked","Male","tile","17","M_cling.wav","space","379.451422079","129","5049966.7683","5042233.29496","5043000.25537","5043766.87385","5044533.40514","5045300.32444","5046066.89964","5046833.42474","5050733.75871","5051499.74463","5052266.59034","5053033.37237","5053799.57934","5054566.18762","5055333.64673","5056099.70685","5055343.14318"
"Blocked","Male","tile","17","M_tile.wav","None","722.212775378","129","5049966.7683","5056866.55442","5043000.25537","5043766.87385","5044533.40514","5045300.32444","5046066.89964","5046833.42474","5050733.75871","5051499.74463","5052266.59034","5053033.37237","5053799.57934","5054566.18762","5055333.64673","5056099.70685","5056109.40209"
"Blocked","Male","tile","17","M_greet.wav","space","446.121036133","129","5049966.7683","5056866.55442","5057633.22298","5043766.87385","5044533.40514","5045300.32444","5046066.89964","5046833.42474","5050733.75871","5051499.74463","5052266.59034","5053033.37237","5053799.57934","5054566.18762","5055333.64673","5056099.70685","5056876.4126"
"Blocked","Male","tile","17","M_tile.wav","None","721.083997631","129","5049966.7683","5056866.55442","5057633.22298","5058399.63957","5044533.40514","5045300.32444","5046066.89964","5046833.42474","5050733.75871","5051499.74463","5052266.59034","5053033.37237","5053799.57934","5054566.18762","5055333.64673","5056099.70685","5057642.98532"
"Blocked","Male","tile","17","M_romp.wav","space","385.25576971","129","5049966.7683","5056866.55442","5057633.22298","5058399.63957","5059166.3777","5045300.32444","5046066.89964","5046833.42474","5050733.75871","5051499.74463","5052266.59034","5053033.37237","5053799.57934","5054566.18762","5055333.64673","5056099.70685","5058409.20867"
"Blocked","Male","tile","17","M_jolt.wav","None","721.189115255","129","5049966.7683","5056866.55442","5057633.22298","5058399.63957","5059166.3777","5059932.97051","5046066.89964","5046833.42474","5050733.75871","5051499.74463","5052266.59034","5053033.37237","5053799.57934","5054566.18762","5055333.64673","5056099.70685","5059175.68679"
"Blocked","Male","tile","17","M_romp.wav","None","721.687187267","129","5049966.7683","5056866.55442","5057633.22298","5058399.63957","5059166.3777","5059932.97051","5060699.61836","5046833.42474","5050733.75871","5051499.74463","5052266.59034","5053033.37237","5053799.57934","5054566.18762","5055333.64673","5056099.70685","5059942.46202"
"Blocked","Male","tile","17","M_knife.wav","None","721.611131564","129","5049966.7683","5056866.55442","5057633.22298","5058399.63957","5059166.3777","5059932.97051","5060699.61836","5061466.33515","5050733.75871","5051499.74463","5052266.59034","5053033.37237","5053799.57934","5054566.18762","5055333.64673","5056099.70685","5060709.36153"
"Blocked","Male","tile","16","M_cling.wav","None","722.557808505","129","5064599.34821","5056866.55442","5057633.22298","5058399.63957","5059166.3777","5059932.97051","5060699.61836","5061466.33515","5050733.75871","5051499.74463","5052266.59034","5053033.37237","5053799.57934","5054566.18762","5055333.64673","5056099.70685","5061475.72618"
"Blocked","Male","tile","16","M_knife.wav","None","722.197316878","129","5064599.34821","5056866.55442","5057633.22298","5058399.63957","5059166.3777","5059932.97051","5060699.61836","5061466.33515","5065366.20938","5051499.74463","5052266.59034","5053033.37237","5053799.57934","5054566.18762","5055333.64673","5056099.70685","5064609.0821"
"Blocked","Male","tile","16","M_cad.wav","None","723.036402836","129","5064599.34821","5056866.55442","5057633.22298","5058399.63957","5059166.3777","5059932.97051","5060699.61836","5061466.33515","5065366.20938","5066132.92401","5052266.59034","5053033.37237","5053799.57934","5054566.18762","5055333.64673","5056099.70685","5065376.18783"
"Blocked","Male","tile","16","M_tile.wav","None","723.677929549","129","5064599.34821","5056866.55442","5057633.22298","5058399.63957","5059166.3777","5059932.97051","5060699.61836","5061466.33515","5065366.20938","5066132.92401","5066898.56026","5053033.37237","5053799.57934","5054566.18762","5055333.64673","5056099.70685","5066142.70273"
"Blocked","Male","tile","16","M_priest.wav","space","438.784753787","129","5064599.34821","5056866.55442","5057633.22298","5058399.63957","5059166.3777","5059932.97051","5060699.61836","5061466.33515","5065366.20938","5066132.92401","5066898.56026","5067665.43628","5053799.57934","5054566.18762","5055333.64673","5056099.70685","5066907.45166"
"Blocked","Male","tile","16","M_romp.wav","None","725.013850839","129","5064599.34821","5056866.55442","5057633.22298","5058399.63957","5059166.3777","5059932.97051","5060699.61836","5061466.33515","5065366.20938","5066132.92401","5066898.56026","5067665.43628","5068432.47244","5054566.18762","5055333.64673","5056099.70685","5067674.4059"
"Blocked","Male","tile","16","M_tile.wav","None","724.850609316","129","5064599.34821","5056866.55442","5057633.22298","5058399.63957","5059166.3777","5059932.97051","5060699.61836","5061466.33515","5065366.20938","5066132.92401","5066898.56026","5067665.43628","5068432.47244","5069199.02445","5055333.64673","5056099.70685","5068441.7534"
"Blocked","Male","tile","16","M_jolt.wav","space","417.870057281","129","5064599.34821","5056866.55442","5057633.22298","5058399.63957","5059166.3777","5059932.97051","5060699.61836","5061466.33515","5065366.20938","5066132.92401","5066898.56026","5067665.43628","5068432.47244","5069199.02445","5069965.90077","5056099.70685","5069208.28129"
"Blocked","Male","tile","16","M_lash.wav","None","723.503557965","129","5064599.34821","5056866.55442","5057633.22298","5058399.63957","5059166.3777","5059932.97051","5060699.61836","5061466.33515","5065366.20938","5066132.92401","5066898.56026","5067665.43628","5068432.47244","5069199.02445","5069965.90077","5070732.28799","5069975.57963"
"Blocked","Male","tile","16","M_lash.wav","None","724.605747092","129","5064599.34821","5071498.9816","5057633.22298","5058399.63957","5059166.3777","5059932.97051","5060699.61836","5061466.33515","5065366.20938","5066132.92401","5066898.56026","5067665.43628","5068432.47244","5069199.02445","5069965.90077","5070732.28799","5070741.64964"
"Blocked","Male","tile","16","M_tile.wav","None","724.826494115","129","5064599.34821","5071498.9816","5072265.6313","5058399.63957","5059166.3777","5059932.97051","5060699.61836","5061466.33515","5065366.20938","5066132.92401","5066898.56026","5067665.43628","5068432.47244","5069199.02445","5069965.90077","5070732.28799","5071508.29625"
"Blocked","Male","tile","16","M_done.wav","space","406.975543417","129","5064599.34821","5071498.9816","5072265.6313","5073032.2504","5059166.3777","5059932.97051","5060699.61836","5061466.33515","5065366.20938","5066132.92401","5066898.56026","5067665.43628","5068432.47244","5069199.02445","5069965.90077","5070732.28799","5072275.09776"
"Blocked","Male","tile","16","M_reek.wav","None","724.761877675","129","5064599.34821","5071498.9816","5072265.6313","5073032.2504","5073798.87289","5059932.97051","5060699.61836","5061466.33515","5065366.20938","5066132.92401","5066898.56026","5067665.43628","5068432.47244","5069199.02445","5069965.90077","5070732.28799","5073041.5026"
"Blocked","Male","tile","16","M_bluff.wav","None","725.44761555","129","5064599.34821","5071498.9816","5072265.6313","5073032.2504","5073798.87289","5074565.54671","5060699.61836","5061466.33515","5065366.20938","5066132.92401","5066898.56026","5067665.43628","5068432.47244","5069199.02445","5069965.90077","5070732.28799","5073808.23887"
"Blocked","Male","tile","16","M_tile.wav","None","725.743799878","129","5064599.34821","5071498.9816","5072265.6313","5073032.2504","5073798.87289","5074565.54671","5075332.49878","5061466.33515","5065366.20938","5066132.92401","5066898.56026","5067665.43628","5068432.47244","5069199.02445","5069965.90077","5070732.28799","5074575.08242"
"Blocked","Male","tile","16","M_cad.wav","space","428.314111254","129","5064599.34821","5071498.9816","5072265.6313","5073032.2504","5073798.87289","5074565.54671","5075332.49878","5076098.77655","5065366.20938","5066132.92401","5066898.56026","5067665.43628","5068432.47244","5069199.02445","5069965.90077","5070732.28799","5075341.67864"
"Blocked","Male","tile","13","M_greet.wav","None","725.147721125","129","5079232.41908","5071498.9816","5072265.6313","5073032.2504","5073798.87289","5074565.54671","5075332.49878","5076098.77655","5065366.20938","5066132.92401","5066898.56026","5067665.43628","5068432.47244","5069199.02445","5069965.90077","5070732.28799","5076108.07421"
"Blocked","Male","tile","13","M_tile.wav","None","721.728615928","129","5079232.41908","5071498.9816","5072265.6313","5073032.2504","5073798.87289","5074565.54671","5075332.49878","5076098.77655","5079999.01684","5066132.92401","5066898.56026","5067665.43628","5068432.47244","5069199.02445","5069965.90077","5070732.28799","5079242.2652"
"Blocked","Male","tile","13","M_lash.wav","space","529.607614502","129","5079232.41908","5071498.9816","5072265.6313","5073032.2504","5073798.87289","5074565.54671","5075332.49878","5076098.77655","5079999.01684","5080765.53855","5066898.56026","5067665.43628","5068432.47244","5069199.02445","5069965.90077","5070732.28799","5080008.1967"
"Blocked","Male","tile","13","M_priest.wav","None","719.935433008","129","5079232.41908","5071498.9816","5072265.6313","5073032.2504","5073798.87289","5074565.54671","5075332.49878","5076098.77655","5079999.01684","5080765.53855","5081532.08932","5067665.43628","5068432.47244","5069199.02445","5069965.90077","5070732.28799","5080776.98277"
"Blocked","Male","tile","13","M_romp.wav","None","722.703427309","129","5079232.41908","5071498.9816","5072265.6313","5073032.2504","5073798.87289","5074565.54671","5075332.49878","5076098.77655","5079999.01684","5080765.53855","5081532.08932","5082298.73253","5068432.47244","5069199.02445","5069965.90077","5070732.28799","5081541.3004"
"Blocked","Male","tile","13","M_tile.wav","None","723.418536305","129","5079232.41908","5071498.9816","5072265.6313","5073032.2504","5073798.87289","5074565.54671","5075332.49878","5076098.77655","5079999.01684","5080765.53855","5081532.08932","5082298.73253","5083065.6104","5069199.02445","5069965.90077","5070732.28799","5082307.90528"
"Blocked","Male","tile","13","M_park.wav","space","541.629669372","129","5079232.41908","5071498.9816","5072265.6313","5073032.2504","5073798.87289","5074565.54671","5075332.49878","5076098.77655","5079999.01684","5080765.53855","5081532.08932","5082298.73253","5083065.6104","5083832.24774","5069965.90077","5070732.28799","5083076.11134"
"Blocked","Male","tile","13","M_cad.wav","None","723.108130157","129","5079232.41908","5071498.9816","5072265.6313","5073032.2504","5073798.87289","5074565.54671","5075332.49878","5076098.77655","5079999.01684","5080765.53855","5081532.08932","5082298.73253","5083065.6104","5083832.24774","5084599.13983","5070732.28799","5083841.71203"
"Blocked","Male","tile","13","M_reek.wav","None","723.566628469","129","5079232.41908","5071498.9816","5072265.6313","5073032.2504","5073798.87289","5074565.54671","5075332.49878","5076098.77655","5079999.01684","5080765.53855","5081532.08932","5082298.73253","5083065.6104","5083832.24774","5084599.13983","5085364.88768","5084608.53642"
"Blocked","Male","tile","13","M_cling.wav","None","724.064391339","129","5079232.41908","5086131.83543","5072265.6313","5073032.2504","5073798.87289","5074565.54671","5075332.49878","5076098.77655","5079999.01684","5080765.53855","5081532.08932","5082298.73253","5083065.6104","5083832.24774","5084599.13983","5085364.88768","5085375.51662"
"Blocked","Male","tile","13","M_tile.wav","None","725.348681327","129","5079232.41908","5086131.83543","5086898.20162","5073032.2504","5073798.87289","5074565.54671","5075332.49878","5076098.77655","5079999.01684","5080765.53855","5081532.08932","5082298.73253","5083065.6104","5083832.24774","5084599.13983","5085364.88768","5086141.18966"
"Blocked","Male","tile","13","M_priest.wav","space","535.215948708","129","5079232.41908","5086131.83543","5086898.20162","5087664.84391","5073798.87289","5074565.54671","5075332.49878","5076098.77655","5079999.01684","5080765.53855","5081532.08932","5082298.73253","5083065.6104","5083832.24774","5084599.13983","5085364.88768","5086906.3569"
"Blocked","Male","tile","13","M_tile.wav","None","725.521197892","129","5079232.41908","5086131.83543","5086898.20162","5087664.84391","5088432.17811","5074565.54671","5075332.49878","5076098.77655","5079999.01684","5080765.53855","5081532.08932","5082298.73253","5083065.6104","5083832.24774","5084599.13983","5085364.88768","5087673.71954"
"Blocked","Male","tile","13","M_park.wav","space","584.174480405","129","5079232.41908","5086131.83543","5086898.20162","5087664.84391","5088432.17811","5089198.39343","5075332.49878","5076098.77655","5079999.01684","5080765.53855","5081532.08932","5082298.73253","5083065.6104","5083832.24774","5084599.13983","5085364.88768","5088441.40589"
"Blocked","Male","tile","13","M_gnash.wav","None","724.13302696","129","5079232.41908","5086131.83543","5086898.20162","5087664.84391","5088432.17811","5089198.39343","5089965.11672","5076098.77655","5079999.01684","5080765.53855","5081532.08932","5082298.73253","5083065.6104","5083832.24774","5084599.13983","5085364.88768","5089208.29768"
"Blocked","Male","tile","13","M_dime.wav","None","725.376197428","129","5079232.41908","5086131.83543","5086898.20162","5087664.84391","5088432.17811","5089198.39343","5089965.11672","5090731.70397","5079999.01684","5080765.53855","5081532.08932","5082298.73253","5083065.6104","5083832.24774","5084599.13983","5085364.88768","5089974.11819"
"Blocked","Male","tile","18","M_knife.wav","None","725.974440342","129","5093865.24354","5086131.83543","5086898.20162","5087664.84391","5088432.17811","5089198.39343","5089965.11672","5090731.70397","5079999.01684","5080765.53855","5081532.08932","5082298.73253","5083065.6104","5083832.24774","5084599.13983","5085364.88768","5090740.99204"
"Blocked","Male","tile","18","M_priest.wav","None","721.896185831","129","5093865.24354","5086131.83543","5086898.20162","5087664.84391","5088432.17811","5089198.39343","5089965.11672","5090731.70397","5094632.16377","5080765.53855","5081532.08932","5082298.73253","5083065.6104","5083832.24774","5084599.13983","5085364.88768","5093875.33452"
"Blocked","Male","tile","18","M_cave.wav","None","722.980752354","129","5093865.24354","5086131.83543","5086898.20162","5087664.84391","5088432.17811","5089198.39343","5089965.11672","5090731.70397","5094632.16377","5095397.9682","5081532.08932","5082298.73253","5083065.6104","5083832.24774","5084599.13983","5085364.88768","5094641.91806"
"Blocked","Male","tile","18","M_greet.wav","None","725.43308459","129","5093865.24354","5086131.83543","5086898.20162","5087664.84391","5088432.17811","5089198.39343","5089965.11672","5090731.70397","5094632.16377","5095397.9682","5096164.59101","5082298.73253","5083065.6104","5083832.24774","5084599.13983","5085364.88768","5095407.03274"
"Blocked","Male","tile","18","M_reek.wav","None","726.687075919","129","5093865.24354","5086131.83543","5086898.20162","5087664.84391","5088432.17811","5089198.39343","5089965.11672","5090731.70397","5094632.16377","5095397.9682","5096164.59101","5096931.46393","5083065.6104","5083832.24774","5084599.13983","5085364.88768","5096173.46355"
"Blocked","Male","tile","18","M_tile.wav","None","726.394910831","129","5093865.24354","5086131.83543","5086898.20162","5087664.84391","5088432.17811","5089198.39343","5089965.11672","5090731.70397","5094632.16377","5095397.9682","5096164.59101","5096931.46393","5097698.11734","5083832.24774","5084599.13983","5085364.88768","5096940.85495"
"Blocked","Male","tile","18","M_priest.wav","space","397.804958572","129","5093865.24354","5086131.83543","5086898.20162","5087664.84391","5088432.17811","5089198.39343","5089965.11672","5090731.70397","5094632.16377","5095397.9682","5096164.59101","5096931.46393","5097698.11734","5098464.4755","5084599.13983","5085364.88768","5097707.51084"
