"Condition","Talker","Target","Trial","current_stimulus","response_response","response_time_response","subject_nr","time_Audio1","time_Audio10","time_Audio11","time_Audio12","time_Audio13","time_Audio14","time_Audio15","time_Audio16","time_Audio2","time_Audio3","time_Audio4","time_Audio5","time_Audio6","time_Audio7","time_Audio8","time_Audio9","time_response"
"Mixed","both","cave","22","M_greet.wav","NA","NA","344","511988.855368","NA","NA","NA","NA","NA","NA","NA","NA","NA","NA","NA","NA","NA","NA","NA","NA"
"Mixed","both","cave","22","F_cave.wav","None","720.679603517","344","511988.855368","NA","NA","NA","NA","NA","NA","NA","512755.336574","NA","NA","NA","NA","NA","NA","NA","512003.098188"
"Mixed","both","cave","22","F_reek.wav","None","725.8062521","344","511988.855368","NA","NA","NA","NA","NA","NA","NA","512755.336574","513522.138698","NA","NA","NA","NA","NA","NA","512764.794068"
"Mixed","both","cave","22","F_priest.wav","None","725.666507613","344","511988.855368","NA","NA","NA","NA","NA","NA","NA","512755.336574","513522.138698","514288.700598","NA","NA","NA","NA","NA","513531.952665"
"Mixed","both","cave","22","M_cave.wav","space","620.5043667","344","511988.855368","NA","NA","NA","NA","NA","NA","NA","512755.336574","513522.138698","514288.700598","515054.98981","NA","NA","NA","NA","514304.663945"
"Mixed","both","cave","22","M_cad.wav","None","728.52663463","344","511988.855368","NA","NA","NA","NA","NA","NA","NA","512755.336574","513522.138698","514288.700598","515054.98981","515822.147788","NA","NA","NA","515063.961289"
"Mixed","both","cave","22","F_jolt.wav","space","180.993991904","344","511988.855368","NA","NA","NA","NA","NA","NA","NA","512755.336574","513522.138698","514288.700598","515054.98981","515822.147788","516588.757609","NA","NA","515832.092224"
"Mixed","both","cave","22","F_reek.wav","None","727.881397586","344","511988.855368","NA","NA","NA","NA","NA","NA","NA","512755.336574","513522.138698","514288.700598","515054.98981","515822.147788","516588.757609","517355.428954","NA","516598.278792"
"Mixed","both","cave","22","M_cave.wav","None","725.528617855","344","511988.855368","NA","NA","NA","NA","NA","NA","NA","512755.336574","513522.138698","514288.700598","515054.98981","515822.147788","516588.757609","517355.428954","518123.042339","517364.510807"
"Mixed","both","cave","22","M_romp.wav","space","408.663609065","344","511988.855368","518888.730835","NA","NA","NA","NA","NA","NA","512755.336574","513522.138698","514288.700598","515054.98981","515822.147788","516588.757609","517355.428954","518123.042339","518132.365653"
"Mixed","both","cave","22","F_priest.wav","None","721.941015217","344","511988.855368","518888.730835","519655.74845","NA","NA","NA","NA","NA","512755.336574","513522.138698","514288.700598","515054.98981","515822.147788","516588.757609","517355.428954","518123.042339","518898.844696"
"Mixed","both","cave","22","M_park.wav","None","719.415100757","344","511988.855368","518888.730835","519655.74845","520422.348686","NA","NA","NA","NA","512755.336574","513522.138698","514288.700598","515054.98981","515822.147788","516588.757609","517355.428954","518123.042339","519665.568909"
"Mixed","both","cave","22","M_cling.wav","None","720.473696943","344","511988.855368","518888.730835","519655.74845","520422.348686","521188.820617","NA","NA","NA","512755.336574","513522.138698","514288.700598","515054.98981","515822.147788","516588.757609","517355.428954","518123.042339","520431.876671"
"Mixed","both","cave","22","M_gnash.wav","None","721.25002183","344","511988.855368","518888.730835","519655.74845","520422.348686","521188.820617","521955.607283","NA","NA","512755.336574","513522.138698","514288.700598","515054.98981","515822.147788","516588.757609","517355.428954","518123.042339","521198.204838"
"Mixed","both","cave","22","F_cave.wav","None","721.116769593","344","511988.855368","518888.730835","519655.74845","520422.348686","521188.820617","521955.607283","522705.435694","NA","512755.336574","513522.138698","514288.700598","515054.98981","515822.147788","516588.757609","517355.428954","518123.042339","521965.357251"
"Mixed","both","cave","22","F_dime.wav","space","593.784704339","344","511988.855368","518888.730835","519655.74845","520422.348686","521188.820617","521955.607283","522705.435694","523471.976879","512755.336574","513522.138698","514288.700598","515054.98981","515822.147788","516588.757609","517355.428954","518123.042339","522715.105588"
"Mixed","both","cave","16","M_priest.wav","None","736.231755931","344","526655.14155","518888.730835","519655.74845","520422.348686","521188.820617","521955.607283","522705.435694","523471.976879","512755.336574","513522.138698","514288.700598","515054.98981","515822.147788","516588.757609","517355.428954","518123.042339","523481.240524"
"Mixed","both","cave","16","M_priest.wav","None","724.802997429","344","526655.14155","518888.730835","519655.74845","520422.348686","521188.820617","521955.607283","522705.435694","523471.976879","527422.109389","513522.138698","514288.700598","515054.98981","515822.147788","516588.757609","517355.428954","518123.042339","526664.73817"
"Mixed","both","cave","16","M_park.wav","None","721.323912963","344","526655.14155","518888.730835","519655.74845","520422.348686","521188.820617","521955.607283","522705.435694","523471.976879","527422.109389","528188.60389","514288.700598","515054.98981","515822.147788","516588.757609","517355.428954","518123.042339","527431.964475"
"Mixed","both","cave","16","M_cave.wav","None","719.143650029","344","526655.14155","518888.730835","519655.74845","520422.348686","521188.820617","521955.607283","522705.435694","523471.976879","527422.109389","528188.60389","528938.328111","515054.98981","515822.147788","516588.757609","517355.428954","518123.042339","528198.373645"
"Mixed","both","cave","16","F_jolt.wav","space","409.018844366","344","526655.14155","518888.730835","519655.74845","520422.348686","521188.820617","521955.607283","522705.435694","523471.976879","527422.109389","528188.60389","528938.328111","529705.151258","515822.147788","516588.757609","517355.428954","518123.042339","528947.703366"
"Mixed","both","cave","16","F_jaw.wav","None","731.564533897","344","526655.14155","518888.730835","519655.74845","520422.348686","521188.820617","521955.607283","522705.435694","523471.976879","527422.109389","528188.60389","528938.328111","529705.151258","530471.683786","516588.757609","517355.428954","518123.042339","529714.709232"
"Mixed","both","cave","16","F_cave.wav","None","732.509355526","344","526655.14155","518888.730835","519655.74845","520422.348686","521188.820617","521955.607283","522705.435694","523471.976879","527422.109389","528188.60389","528938.328111","529705.151258","530471.683786","531238.500132","517355.428954","518123.042339","530480.804595"
"Mixed","both","cave","16","F_reek.wav","space","492.800061591","344","526655.14155","518888.730835","519655.74845","520422.348686","521188.820617","521955.607283","522705.435694","523471.976879","527422.109389","528188.60389","528938.328111","529705.151258","530471.683786","531238.500132","532004.970208","518123.042339","531247.841069"
"Mixed","both","cave","16","F_jolt.wav","None","726.898547728","344","526655.14155","518888.730835","519655.74845","520422.348686","521188.820617","521955.607283","522705.435694","523471.976879","527422.109389","528188.60389","528938.328111","529705.151258","530471.683786","531238.500132","532004.970208","532771.485732","532014.664217"
"Mixed","both","cave","16","F_cave.wav","None","725.091452245","344","526655.14155","533538.004348","519655.74845","520422.348686","521188.820617","521955.607283","522705.435694","523471.976879","527422.109389","528188.60389","528938.328111","529705.151258","530471.683786","531238.500132","532004.970208","532771.485732","532781.246522"
"Mixed","both","cave","16","F_lash.wav","space","504.978864919","344","526655.14155","533538.004348","534305.253841","520422.348686","521188.820617","521955.607283","522705.435694","523471.976879","527422.109389","528188.60389","528938.328111","529705.151258","530471.683786","531238.500132","532004.970208","532771.485732","533547.55583"
"Mixed","both","cave","16","M_knife.wav","None","722.111368086","344","526655.14155","533538.004348","534305.253841","535071.993513","521188.820617","521955.607283","522705.435694","523471.976879","527422.109389","528188.60389","528938.328111","529705.151258","530471.683786","531238.500132","532004.970208","532771.485732","534315.671615"
"Mixed","both","cave","16","M_romp.wav","None","724.119423423","344","526655.14155","533538.004348","534305.253841","535071.993513","535838.400209","521955.607283","522705.435694","523471.976879","527422.109389","528188.60389","528938.328111","529705.151258","530471.683786","531238.500132","532004.970208","532771.485732","535081.220366"
"Mixed","both","cave","16","M_cave.wav","None","720.661363099","344","526655.14155","533538.004348","534305.253841","535071.993513","535838.400209","536587.852051","522705.435694","523471.976879","527422.109389","528188.60389","528938.328111","529705.151258","530471.683786","531238.500132","532004.970208","532771.485732","535848.661853"
"Mixed","both","cave","16","M_lash.wav","space","431.577085983","344","526655.14155","533538.004348","534305.253841","535071.993513","535838.400209","536587.852051","537371.808134","523471.976879","527422.109389","528188.60389","528938.328111","529705.151258","530471.683786","531238.500132","532004.970208","532771.485732","536596.92432"
"Mixed","both","cave","16","F_jaw.wav","None","719.991083723","344","526655.14155","533538.004348","534305.253841","535071.993513","535838.400209","536587.852051","537371.808134","538121.11003","527422.109389","528188.60389","528938.328111","529705.151258","530471.683786","531238.500132","532004.970208","532771.485732","537381.585001"
"Mixed","both","ball","11","F_reek.wav","None","735.20562239","344","541255.053993","533538.004348","534305.253841","535071.993513","535838.400209","536587.852051","537371.808134","538121.11003","527422.109389","528188.60389","528938.328111","529705.151258","530471.683786","531238.500132","532004.970208","532771.485732","538130.626884"
"Mixed","both","ball","11","F_ball.wav","None","720.017672516","344","541255.053993","533538.004348","534305.253841","535071.993513","535838.400209","536587.852051","537371.808134","538121.11003","542021.698441","528188.60389","528938.328111","529705.151258","530471.683786","531238.500132","532004.970208","532771.485732","541264.874452"
"Mixed","both","ball","11","F_jaw.wav","space","532.840908971","344","541255.053993","533538.004348","534305.253841","535071.993513","535838.400209","536587.852051","537371.808134","538121.11003","542021.698441","542788.476141","528938.328111","529705.151258","530471.683786","531238.500132","532004.970208","532771.485732","542031.468815"
"Mixed","both","ball","11","F_depth.wav","None","718.531803694","344","541255.053993","533538.004348","534305.253841","535071.993513","535838.400209","536587.852051","537371.808134","538121.11003","542021.698441","542788.476141","543554.639521","529705.151258","530471.683786","531238.500132","532004.970208","532771.485732","542798.275886"
"Mixed","both","ball","11","M_ball.wav","None","719.372744672","344","541255.053993","533538.004348","534305.253841","535071.993513","535838.400209","536587.852051","537371.808134","538121.11003","542021.698441","542788.476141","543554.639521","544321.608906","530471.683786","531238.500132","532004.970208","532771.485732","543564.980003"
"Mixed","both","ball","11","M_jaw.wav","space","423.897316214","344","541255.053993","533538.004348","534305.253841","535071.993513","535838.400209","536587.852051","537371.808134","538121.11003","542021.698441","542788.476141","543554.639521","544321.608906","545088.232948","531238.500132","532004.970208","532771.485732","544331.36784"
"Mixed","both","ball","11","M_depth.wav","None","721.851047128","344","541255.053993","533538.004348","534305.253841","535071.993513","535838.400209","536587.852051","537371.808134","538121.11003","542021.698441","542788.476141","543554.639521","544321.608906","545088.232948","545855.008175","532004.970208","532771.485732","545097.65025"
"Mixed","both","ball","11","F_greet.wav","None","722.481753211","344","541255.053993","533538.004348","534305.253841","535071.993513","535838.400209","536587.852051","537371.808134","538121.11003","542021.698441","542788.476141","543554.639521","544321.608906","545088.232948","545855.008175","546621.776908","532771.485732","545865.024956"
"Mixed","both","ball","11","M_dime.wav","None","723.246947397","344","541255.053993","533538.004348","534305.253841","535071.993513","535838.400209","536587.852051","537371.808134","538121.11003","542021.698441","542788.476141","543554.639521","544321.608906","545088.232948","545855.008175","546621.776908","547387.866706","546631.735875"
"Mixed","both","ball","11","F_gnash.wav","None","725.29055737","344","541255.053993","548153.949702","534305.253841","535071.993513","535838.400209","536587.852051","537371.808134","538121.11003","542021.698441","542788.476141","543554.639521","544321.608906","545088.232948","545855.008175","546621.776908","547387.866706","547397.319563"
"Mixed","both","ball","11","F_ball.wav","None","726.540838834","344","541255.053993","548153.949702","548921.377276","535071.993513","535838.400209","536587.852051","537371.808134","538121.11003","542021.698441","542788.476141","543554.639521","544321.608906","545088.232948","545855.008175","546621.776908","547387.866706","548163.577239"
"Mixed","both","ball","11","M_depth.wav","space","376.962916926","344","541255.053993","548153.949702","548921.377276","549688.010593","535838.400209","536587.852051","537371.808134","538121.11003","542021.698441","542788.476141","543554.639521","544321.608906","545088.232948","545855.008175","546621.776908","547387.866706","548931.142084"
"Mixed","both","ball","11","M_dime.wav","None","720.855212305","344","541255.053993","548153.949702","548921.377276","549688.010593","550437.93361","536587.852051","537371.808134","538121.11003","542021.698441","542788.476141","543554.639521","544321.608906","545088.232948","545855.008175","546621.776908","547387.866706","549697.882066"
"Mixed","both","ball","11","F_depth.wav","None","736.101286486","344","541255.053993","548153.949702","548921.377276","549688.010593","550437.93361","551204.198707","537371.808134","538121.11003","542021.698441","542788.476141","543554.639521","544321.608906","545088.232948","545855.008175","546621.776908","547387.866706","550447.279494"
"Mixed","both","ball","11","M_ball.wav","None","733.990277164","344","541255.053993","548153.949702","548921.377276","549688.010593","550437.93361","551204.198707","551970.877472","538121.11003","542021.698441","542788.476141","543554.639521","544321.608906","545088.232948","545855.008175","546621.776908","547387.866706","551213.869219"
"Mixed","both","ball","11","M_depth.wav","space","415.798930917","344","541255.053993","548153.949702","548921.377276","549688.010593","550437.93361","551204.198707","551970.877472","552737.749469","542021.698441","542788.476141","543554.639521","544321.608906","545088.232948","545855.008175","546621.776908","547387.866706","551980.221502"
"Mixed","both","cave","13","F_cad.wav","None","729.131369852","344","555871.134145","548153.949702","548921.377276","549688.010593","550437.93361","551204.198707","551970.877472","552737.749469","542021.698441","542788.476141","543554.639521","544321.608906","545088.232948","545855.008175","546621.776908","547387.866706","552747.516442"
"Mixed","both","cave","13","M_romp.wav","None","723.315892275","344","555871.134145","548153.949702","548921.377276","549688.010593","550437.93361","551204.198707","551970.877472","552737.749469","556637.883092","542788.476141","543554.639521","544321.608906","545088.232948","545855.008175","546621.776908","547387.866706","555881.341375"
"Mixed","both","cave","13","M_gnash.wav","None","721.207665745","344","555871.134145","548153.949702","548921.377276","549688.010593","550437.93361","551204.198707","551970.877472","552737.749469","556637.883092","557387.121608","543554.639521","544321.608906","545088.232948","545855.008175","546621.776908","547387.866706","556647.504755"
"Mixed","both","cave","13","M_cave.wav","None","736.575243529","344","555871.134145","548153.949702","548921.377276","549688.010593","550437.93361","551204.198707","551970.877472","552737.749469","556637.883092","557387.121608","558154.113562","544321.608906","545088.232948","545855.008175","546621.776908","547387.866706","557396.071136"
"Mixed","both","cave","13","M_priest.wav","space","320.082845166","344","555871.134145","548153.949702","548921.377276","549688.010593","550437.93361","551204.198707","551970.877472","552737.749469","556637.883092","557387.121608","558154.113562","558920.712871","545088.232948","545855.008175","546621.776908","547387.866706","558163.738316"
"Mixed","both","cave","13","M_cave.wav","None","730.644136202","344","555871.134145","548153.949702","548921.377276","549688.010593","550437.93361","551204.198707","551970.877472","552737.749469","556637.883092","557387.121608","558154.113562","558920.712871","559687.602181","545855.008175","546621.776908","547387.866706","558930.087198"
"Mixed","both","cave","13","M_jolt.wav","space","722.676529549","344","555871.134145","548153.949702","548921.377276","549688.010593","550437.93361","551204.198707","551970.877472","552737.749469","556637.883092","557387.121608","558154.113562","558920.712871","559687.602181","560454.13038","546621.776908","547387.866706","559697.071732"
"Mixed","both","cave","13","F_greet.wav","None","729.444558732","344","555871.134145","548153.949702","548921.377276","549688.010593","550437.93361","551204.198707","551970.877472","552737.749469","556637.883092","557387.121608","558154.113562","558920.712871","559687.602181","560454.13038","561220.653324","547387.866706","560463.247788"
"Mixed","both","cave","13","F_priest.wav","None","727.046949323","344","555871.134145","548153.949702","548921.377276","549688.010593","550437.93361","551204.198707","551970.877472","552737.749469","556637.883092","557387.121608","558154.113562","558920.712871","559687.602181","560454.13038","561220.653324","561987.032505","561229.953452"
"Mixed","both","cave","13","M_bluff.wav","None","725.071047433","344","555871.134145","562754.197594","548921.377276","549688.010593","550437.93361","551204.198707","551970.877472","552737.749469","556637.883092","557387.121608","558154.113562","558920.712871","559687.602181","560454.13038","561220.653324","561987.032505","561996.071383"
"Mixed","both","cave","13","F_dime.wav","None","725.054970477","344","555871.134145","562754.197594","563520.588832","549688.010593","550437.93361","551204.198707","551970.877472","552737.749469","556637.883092","557387.121608","558154.113562","558920.712871","559687.602181","560454.13038","561220.653324","561987.032505","562763.801325"
"Mixed","both","cave","13","F_cave.wav","None","722.936541308","344","555871.134145","562754.197594","563520.588832","564287.460828","550437.93361","551204.198707","551970.877472","552737.749469","556637.883092","557387.121608","558154.113562","558920.712871","559687.602181","560454.13038","561220.653324","561987.032505","563529.912765"
"Mixed","both","cave","13","M_cad.wav","space","402.406018693","344","555871.134145","562754.197594","563520.588832","564287.460828","565037.147331","551204.198707","551970.877472","552737.749469","556637.883092","557387.121608","558154.113562","558920.712871","559687.602181","560454.13038","561220.653324","561987.032505","564297.240786"
"Mixed","both","cave","13","F_cave.wav","None","735.30826671","344","555871.134145","562754.197594","563520.588832","564287.460828","565037.147331","565803.704592","551970.877472","552737.749469","556637.883092","557387.121608","558154.113562","558920.712871","559687.602181","560454.13038","561220.653324","561987.032505","565046.110772"
"Mixed","both","cave","13","F_lash.wav","space","582.705307286","344","555871.134145","562754.197594","563520.588832","564287.460828","565037.147331","565803.704592","566570.506407","552737.749469","556637.883092","557387.121608","558154.113562","558920.712871","559687.602181","560454.13038","561220.653324","561987.032505","565812.925262"
"Mixed","both","cave","13","F_greet.wav","None","729.847406037","344","555871.134145","562754.197594","563520.588832","564287.460828","565037.147331","565803.704592","566570.506407","567337.010492","556637.883092","557387.121608","558154.113562","558920.712871","559687.602181","560454.13038","561220.653324","561987.032505","566580.099936"
"Mixed","both","tile","30","F_dime.wav","None","728.219320066","344","570470.700318","562754.197594","563520.588832","564287.460828","565037.147331","565803.704592","566570.506407","567337.010492","556637.883092","557387.121608","558154.113562","558920.712871","559687.602181","560454.13038","561220.653324","561987.032505","567346.256514"
"Mixed","both","tile","30","M_tile.wav","None","720.152470283","344","570470.700318","562754.197594","563520.588832","564287.460828","565037.147331","565803.704592","566570.506407","567337.010492","571237.446483","557387.121608","558154.113562","558920.712871","559687.602181","560454.13038","561220.653324","561987.032505","570480.407312"
"Mixed","both","tile","30","M_cling.wav","None","721.416663844","344","570470.700318","562754.197594","563520.588832","564287.460828","565037.147331","565803.704592","566570.506407","567337.010492","571237.446483","572003.389425","558154.113562","558920.712871","559687.602181","560454.13038","561220.653324","561987.032505","571246.963028"
"Mixed","both","tile","30","F_greet.wav","None","725.478841923","344","570470.700318","562754.197594","563520.588832","564287.460828","565037.147331","565803.704592","566570.506407","567337.010492","571237.446483","572003.389425","572770.200515","558920.712871","559687.602181","560454.13038","561220.653324","561987.032505","572012.274955"
"Mixed","both","tile","30","M_cling.wav","None","722.908097785","344","570470.700318","562754.197594","563520.588832","564287.460828","565037.147331","565803.704592","566570.506407","567337.010492","571237.446483","572003.389425","572770.200515","573537.258013","559687.602181","560454.13038","561220.653324","561987.032505","572779.085736"
"Mixed","both","tile","30","F_jaw.wav","None","718.683606014","344","570470.700318","562754.197594","563520.588832","564287.460828","565037.147331","565803.704592","566570.506407","567337.010492","571237.446483","572003.389425","572770.200515","573537.258013","574286.865368","560454.13038","561220.653324","561987.032505","573547.919413"
"Mixed","both","tile","30","F_cling.wav","None","734.71775325","344","570470.700318","562754.197594","563520.588832","564287.460828","565037.147331","565803.704592","566570.506407","567337.010492","571237.446483","572003.389425","572770.200515","573537.258013","574286.865368","575070.530523","561220.653324","561987.032505","574296.17848"
"Mixed","both","tile","30","M_jaw.wav","None","719.103457872","344","570470.700318","562754.197594","563520.588832","564287.460828","565037.147331","565803.704592","566570.506407","567337.010492","571237.446483","572003.389425","572770.200515","573537.258013","574286.865368","575070.530523","575820.311012","561987.032505","575080.333668"
"Mixed","both","tile","30","F_reek.wav","None","734.835546929","344","570470.700318","562754.197594","563520.588832","564287.460828","565037.147331","565803.704592","566570.506407","567337.010492","571237.446483","572003.389425","572770.200515","573537.258013","574286.865368","575070.530523","575820.311012","576586.502836","575829.430893"
"Mixed","both","tile","30","M_tile.wav","None","733.41213027","344","570470.700318","577353.741816","563520.588832","564287.460828","565037.147331","565803.704592","566570.506407","567337.010492","571237.446483","572003.389425","572770.200515","573537.258013","574286.865368","575070.530523","575820.311012","576586.502836","576595.697845"
"Mixed","both","tile","30","M_dime.wav","space","328.344162088","344","570470.700318","577353.741816","578120.254867","564287.460828","565037.147331","565803.704592","566570.506407","567337.010492","571237.446483","572003.389425","572770.200515","573537.258013","574286.865368","575070.530523","575820.311012","576586.502836","577362.920131"
"Mixed","both","tile","30","F_tile.wav","None","727.681055665","344","570470.700318","577353.741816","578120.254867","578886.672693","565037.147331","565803.704592","566570.506407","567337.010492","571237.446483","572003.389425","572770.200515","573537.258013","574286.865368","575070.530523","575820.311012","576586.502836","578129.784089"
"Mixed","both","tile","30","M_reek.wav","space","531.454592943","344","570470.700318","577353.741816","578120.254867","578886.672693","579653.54098","565803.704592","566570.506407","567337.010492","571237.446483","572003.389425","572770.200515","573537.258013","574286.865368","575070.530523","575820.311012","576586.502836","578895.73074"
"Mixed","both","tile","30","F_greet.wav","None","729.282244574","344","570470.700318","577353.741816","578120.254867","578886.672693","579653.54098","580420.08031","566570.506407","567337.010492","571237.446483","572003.389425","572770.200515","573537.258013","574286.865368","575070.530523","575820.311012","576586.502836","579663.026299"
"Mixed","both","tile","30","F_tile.wav","None","727.41826158","344","570470.700318","577353.741816","578120.254867","578886.672693","579653.54098","580420.08031","581186.382507","567337.010492","571237.446483","572003.389425","572770.200515","573537.258013","574286.865368","575070.530523","575820.311012","576586.502836","580429.652815"
"Mixed","both","tile","30","M_dime.wav","space","527.736211661","344","570470.700318","577353.741816","578120.254867","578886.672693","579653.54098","580420.08031","581186.382507","581953.975177","571237.446483","572003.389425","572770.200515","573537.258013","574286.865368","575070.530523","575820.311012","576586.502836","581195.387068"
"Mixed","both","tile","31","F_knife.wav","None","721.860012971","344","585070.371918","577353.741816","578120.254867","578886.672693","579653.54098","580420.08031","581186.382507","581953.975177","571237.446483","572003.389425","572770.200515","573537.258013","574286.865368","575070.530523","575820.311012","576586.502836","581963.658675"
"Mixed","both","tile","31","F_tile.wav","None","723.03516604","344","585070.371918","577353.741816","578120.254867","578886.672693","579653.54098","580420.08031","581186.382507","581953.975177","585836.825918","572003.389425","572770.200515","573537.258013","574286.865368","575070.530523","575820.311012","576586.502836","585080.182484"
"Mixed","both","tile","31","M_depth.wav","space","396.15368424","344","585070.371918","577353.741816","578120.254867","578886.672693","579653.54098","580420.08031","581186.382507","581953.975177","585836.825918","586586.446258","572770.200515","573537.258013","574286.865368","575070.530523","575820.311012","576586.502836","585846.850738"
"Mixed","both","tile","31","M_jolt.wav","None","736.561021302","344","585070.371918","577353.741816","578120.254867","578886.672693","579653.54098","580420.08031","581186.382507","581953.975177","585836.825918","586586.446258","587352.839351","573537.258013","574286.865368","575070.530523","575820.311012","576586.502836","586595.530584"
"Mixed","both","tile","31","M_tile.wav","None","735.363298561","344","585070.371918","577353.741816","578120.254867","578886.672693","579653.54098","580420.08031","581186.382507","581953.975177","585836.825918","586586.446258","587352.839351","588119.916326","574286.865368","575070.530523","575820.311012","576586.502836","587361.733847"
"Mixed","both","tile","31","F_greet.wav","space","490.049689543","344","585070.371918","577353.741816","578120.254867","578886.672693","579653.54098","580420.08031","581186.382507","581953.975177","585836.825918","586586.446258","587352.839351","588119.916326","588886.429995","575070.530523","575820.311012","576586.502836","588128.854107"
"Mixed","both","tile","31","M_dime.wav","None","729.767331388","344","585070.371918","577353.741816","578120.254867","578886.672693","579653.54098","580420.08031","581186.382507","581953.975177","585836.825918","586586.446258","587352.839351","588119.916326","588886.429995","589653.171522","575820.311012","576586.502836","588895.848225"
"Mixed","both","tile","31","F_gnash.wav","None","728.449960239","344","585070.371918","577353.741816","578120.254867","578886.672693","579653.54098","580420.08031","581186.382507","581953.975177","585836.825918","586586.446258","587352.839351","588119.916326","588886.429995","589653.171522","590419.91274","576586.502836","589662.506895"
"Mixed","both","tile","31","F_priest.wav","None","726.323492359","344","585070.371918","577353.741816","578120.254867","578886.672693","579653.54098","580420.08031","581186.382507","581953.975177","585836.825918","586586.446258","587352.839351","588119.916326","588886.429995","589653.171522","590419.91274","591186.893255","590429.063847"
"Mixed","both","tile","31","M_tile.wav","None","723.47727837","344","585070.371918","591953.131763","578120.254867","578886.672693","579653.54098","580420.08031","581186.382507","581953.975177","585836.825918","586586.446258","587352.839351","588119.916326","588886.429995","589653.171522","590419.91274","591186.893255","591196.429897"
"Mixed","both","tile","31","M_knife.wav","space","392.50672143","344","585070.371918","591953.131763","592702.450354","578886.672693","579653.54098","580420.08031","581186.382507","581953.975177","585836.825918","586586.446258","587352.839351","588119.916326","588886.429995","589653.171522","590419.91274","591186.893255","591962.285962"
"Mixed","both","tile","31","F_tile.wav","None","736.727354582","344","585070.371918","591953.131763","592702.450354","593469.63121","579653.54098","580420.08031","581186.382507","581953.975177","585836.825918","586586.446258","587352.839351","588119.916326","588886.429995","589653.171522","590419.91274","591186.893255","592711.561887"
"Mixed","both","tile","31","M_jaw.wav","space","499.450915027","344","585070.371918","591953.131763","592702.450354","593469.63121","594236.378302","580420.08031","581186.382507","581953.975177","585836.825918","586586.446258","587352.839351","588119.916326","588886.429995","589653.171522","590419.91274","591186.893255","593479.307287"
"Mixed","both","tile","31","M_lash.wav","None","731.325545814","344","585070.371918","591953.131763","592702.450354","593469.63121","594236.378302","595003.007601","581186.382507","581953.975177","585836.825918","586586.446258","587352.839351","588119.916326","588886.429995","589653.171522","590419.91274","591186.893255","594245.4549"
"Mixed","both","tile","31","F_gnash.wav","None","729.135698639","344","585070.371918","591953.131763","592702.450354","593469.63121","594236.378302","595003.007601","595769.605055","581953.975177","585836.825918","586586.446258","587352.839351","588119.916326","588886.429995","589653.171522","590419.91274","591186.893255","595012.230435"
"Mixed","both","tile","31","F_depth.wav","None","727.532036137","344","585070.371918","591953.131763","592702.450354","593469.63121","594236.378302","595003.007601","595769.605055","596536.204054","585836.825918","586586.446258","587352.839351","588119.916326","588886.429995","589653.171522","590419.91274","591186.893255","595779.224554"
"Mixed","both","tile","36","F_knife.wav","None","725.523052737","344","599669.936855","591953.131763","592702.450354","593469.63121","594236.378302","595003.007601","595769.605055","596536.204054","585836.825918","586586.446258","587352.839351","588119.916326","588886.429995","589653.171522","590419.91274","591186.893255","596545.705451"
"Mixed","both","tile","36","F_tile.wav","None","720.270572696","344","599669.936855","591953.131763","592702.450354","593469.63121","594236.378302","595003.007601","595769.605055","596536.204054","600419.642526","586586.446258","587352.839351","588119.916326","588886.429995","589653.171522","590419.91274","591186.893255","599679.492047"
"Mixed","both","tile","36","F_romp.wav","space","405.459067319","344","599669.936855","591953.131763","592702.450354","593469.63121","594236.378302","595003.007601","595769.605055","596536.204054","600419.642526","601203.120942","587352.839351","588119.916326","588886.429995","589653.171522","590419.91274","591186.893255","600429.08487"
"Mixed","both","tile","36","F_depth.wav","None","719.367797486","344","599669.936855","591953.131763","592702.450354","593469.63121","594236.378302","595003.007601","595769.605055","596536.204054","600419.642526","601203.120942","601952.659661","588119.916326","588886.429995","589653.171522","590419.91274","591186.893255","601213.313641"
"Mixed","both","tile","36","M_reek.wav","None","735.545400064","344","599669.936855","591953.131763","592702.450354","593469.63121","594236.378302","595003.007601","595769.605055","596536.204054","600419.642526","601203.120942","601952.659661","602719.358214","588886.429995","589653.171522","590419.91274","591186.893255","601962.40561"
"Mixed","both","tile","36","F_tile.wav","None","733.754381072","344","599669.936855","591953.131763","592702.450354","593469.63121","594236.378302","595003.007601","595769.605055","596536.204054","600419.642526","601203.120942","601952.659661","602719.358214","603486.040998","589653.171522","590419.91274","591186.893255","602728.974621"
"Mixed","both","tile","36","F_cad.wav","space","475.116804242","344","599669.936855","591953.131763","592702.450354","593469.63121","594236.378302","595003.007601","595769.605055","596536.204054","600419.642526","601203.120942","601952.659661","602719.358214","603486.040998","604252.817152","590419.91274","591186.893255","603495.297533"
"Mixed","both","tile","36","M_depth.wav","None","729.26895041","344","599669.936855","591953.131763","592702.450354","593469.63121","594236.378302","595003.007601","595769.605055","596536.204054","600419.642526","601203.120942","601952.659661","602719.358214","603486.040998","604252.817152","605019.450779","591186.893255","604262.654925"
"Mixed","both","tile","36","F_depth.wav","None","728.504683357","344","599669.936855","591953.131763","592702.450354","593469.63121","594236.378302","595003.007601","595769.605055","596536.204054","600419.642526","601203.120942","601952.659661","602719.358214","603486.040998","604252.817152","605019.450779","605785.838307","605028.629711"
"Mixed","both","tile","36","F_depth.wav","None","726.137063466","344","599669.936855","606553.087799","592702.450354","593469.63121","594236.378302","595003.007601","595769.605055","596536.204054","600419.642526","601203.120942","601952.659661","602719.358214","603486.040998","604252.817152","605019.450779","605785.838307","605795.520258"
"Mixed","both","tile","36","M_dime.wav","None","723.257459234","344","599669.936855","606553.087799","607319.717407","593469.63121","594236.378302","595003.007601","595769.605055","596536.204054","600419.642526","601203.120942","601952.659661","602719.358214","603486.040998","604252.817152","605019.450779","605785.838307","606562.902384"
"Mixed","both","tile","36","M_tile.wav","None","721.609585918","344","599669.936855","606553.087799","607319.717407","608086.361854","594236.378302","595003.007601","595769.605055","596536.204054","600419.642526","601203.120942","601952.659661","602719.358214","603486.040998","604252.817152","605019.450779","605785.838307","607329.358238"
"Mixed","both","tile","36","M_park.wav","space","474.480533507","344","599669.936855","606553.087799","607319.717407","608086.361854","608835.834102","595003.007601","595769.605055","596536.204054","600419.642526","601203.120942","601952.659661","602719.358214","603486.040998","604252.817152","605019.450779","605785.838307","608095.836044"
"Mixed","both","tile","36","M_tile.wav","None","734.977764543","344","599669.936855","606553.087799","607319.717407","608086.361854","608835.834102","609602.101363","595769.605055","596536.204054","600419.642526","601203.120942","601952.659661","602719.358214","603486.040998","604252.817152","605019.450779","605785.838307","608844.833098"
"Mixed","both","tile","36","M_greet.wav","None","733.081318904","344","599669.936855","606553.087799","607319.717407","608086.361854","608835.834102","609602.101363","610369.13691","596536.204054","600419.642526","601203.120942","601952.659661","602719.358214","603486.040998","604252.817152","605019.450779","605785.838307","609611.35326"
"Mixed","both","tile","36","M_depth.wav","None","731.925643515","344","599669.936855","606553.087799","607319.717407","608086.361854","608835.834102","609602.101363","610369.13691","611135.735601","600419.642526","601203.120942","601952.659661","602719.358214","603486.040998","604252.817152","605019.450779","605785.838307","610378.353252"
"Mixed","both","tile","25","M_jaw.wav","space","0.0358638353646","344","614269.59547","606553.087799","607319.717407","608086.361854","608835.834102","609602.101363","610369.13691","611135.735601","600419.642526","601203.120942","601952.659661","602719.358214","603486.040998","604252.817152","605019.450779","605785.838307","611144.716665"
"Mixed","both","tile","25","M_jaw.wav","None","720.186478924","344","614269.59547","606553.087799","607319.717407","608086.361854","608835.834102","609602.101363","610369.13691","611135.735601","615019.020724","601203.120942","601952.659661","602719.358214","603486.040998","604252.817152","605019.450779","605785.838307","614279.260726"
"Mixed","both","tile","25","M_tile.wav","None","736.139623448","344","614269.59547","606553.087799","607319.717407","608086.361854","608835.834102","609602.101363","610369.13691","611135.735601","615019.020724","615785.741537","601952.659661","602719.358214","603486.040998","604252.817152","605019.450779","605785.838307","615028.289625"
"Mixed","both","tile","25","F_depth.wav","space","398.87901349","344","614269.59547","606553.087799","607319.717407","608086.361854","608835.834102","609602.101363","610369.13691","611135.735601","615019.020724","615785.741537","616552.410409","602719.358214","603486.040998","604252.817152","605019.450779","605785.838307","615795.226856"
"Mixed","both","tile","25","F_park.wav","None","731.258765329","344","614269.59547","606553.087799","607319.717407","608086.361854","608835.834102","609602.101363","610369.13691","611135.735601","615019.020724","615785.741537","616552.410409","617319.059803","603486.040998","604252.817152","605019.450779","605785.838307","616561.827092"
"Mixed","both","tile","25","F_cad.wav","None","732.317361049","344","614269.59547","606553.087799","607319.717407","608086.361854","608835.834102","609602.101363","610369.13691","611135.735601","615019.020724","615785.741537","616552.410409","617319.059803","618085.661895","604252.817152","605019.450779","605785.838307","617328.484216"
"Mixed","both","tile","25","F_tile.wav","None","730.675980449","344","614269.59547","606553.087799","607319.717407","608086.361854","608835.834102","609602.101363","610369.13691","611135.735601","615019.020724","615785.741537","616552.410409","617319.059803","618085.661895","618852.522452","605019.450779","605785.838307","618095.061265"
"Mixed","both","tile","25","M_cad.wav","space","563.91336862","344","614269.59547","606553.087799","607319.717407","608086.361854","608835.834102","609602.101363","610369.13691","611135.735601","615019.020724","615785.741537","616552.410409","617319.059803","618085.661895","618852.522452","619618.893594","605785.838307","618862.055692"
"Mixed","both","tile","25","M_greet.wav","None","725.255003199","344","614269.59547","606553.087799","607319.717407","608086.361854","608835.834102","609602.101363","610369.13691","611135.735601","615019.020724","615785.741537","616552.410409","617319.059803","618085.661895","618852.522452","619618.893594","620386.099493","619628.507837"
"Mixed","both","tile","25","F_tile.wav","None","722.83915244","344","614269.59547","621152.106124","607319.717407","608086.361854","608835.834102","609602.101363","610369.13691","611135.735601","615019.020724","615785.741537","616552.410409","617319.059803","618085.661895","618852.522452","619618.893594","620386.099493","620395.463"
"Mixed","both","tile","25","M_lash.wav","space","600.82418425","344","614269.59547","621152.106124","621901.975964","608086.361854","608835.834102","609602.101363","610369.13691","611135.735601","615019.020724","615785.741537","616552.410409","617319.059803","618085.661895","618852.522452","619618.893594","620386.099493","621161.118105"
"Mixed","both","tile","25","M_tile.wav","None","735.760272481","344","614269.59547","621152.106124","621901.975964","622668.776542","608835.834102","609602.101363","610369.13691","611135.735601","615019.020724","615785.741537","616552.410409","617319.059803","618085.661895","618852.522452","619618.893594","620386.099493","621910.882518"
"Mixed","both","tile","25","M_greet.wav","space","635.504960082","344","614269.59547","621152.106124","621901.975964","622668.776542","623435.454689","609602.101363","610369.13691","611135.735601","615019.020724","615785.741537","616552.410409","617319.059803","618085.661895","618852.522452","619618.893594","620386.099493","622678.384293"
"Mixed","both","tile","25","F_priest.wav","None","730.564988684","344","614269.59547","621152.106124","621901.975964","622668.776542","623435.454689","624202.013806","610369.13691","611135.735601","615019.020724","615785.741537","616552.410409","617319.059803","618085.661895","618852.522452","619618.893594","620386.099493","623445.079444"
"Mixed","both","tile","25","F_knife.wav","None","728.778607212","344","614269.59547","621152.106124","621901.975964","622668.776542","623435.454689","624202.013806","624968.743585","611135.735601","615019.020724","615785.741537","616552.410409","617319.059803","618085.661895","618852.522452","619618.893594","620386.099493","624211.325373"
"Mixed","both","tile","25","F_bluff.wav","None","727.506684605","344","614269.59547","621152.106124","621901.975964","622668.776542","623435.454689","624202.013806","624968.743585","625735.27333","615019.020724","615785.741537","616552.410409","617319.059803","618085.661895","618852.522452","619618.893594","620386.099493","624977.816472"
"Mixed","both","ball","1","M_depth.wav","None","729.002446402","344","628869.052198","621152.106124","621901.975964","622668.776542","623435.454689","624202.013806","624968.743585","625735.27333","615019.020724","615785.741537","616552.410409","617319.059803","618085.661895","618852.522452","619618.893594","620386.099493","625744.622924"
"Mixed","both","ball","1","M_romp.wav","None","720.111659728","344","628869.052198","621152.106124","621901.975964","622668.776542","623435.454689","624202.013806","624968.743585","625735.27333","629618.803935","615785.741537","616552.410409","617319.059803","618085.661895","618852.522452","619618.893594","620386.099493","628878.976229"
"Mixed","both","ball","1","F_bluff.wav","None","735.758417286","344","628869.052198","621152.106124","621901.975964","622668.776542","623435.454689","624202.013806","624968.743585","625735.27333","629618.803935","630385.106132","616552.410409","617319.059803","618085.661895","618852.522452","619618.893594","620386.099493","629628.330064"
"Mixed","both","ball","1","F_knife.wav","space","367.779965512","344","628869.052198","621152.106124","621901.975964","622668.776542","623435.454689","624202.013806","624968.743585","625735.27333","629618.803935","630385.106132","631152.031305","617319.059803","618085.661895","618852.522452","619618.893594","620386.099493","630393.855009"
"Mixed","both","ball","1","F_reek.wav","None","730.538091157","344","628869.052198","621152.106124","621901.975964","622668.776542","623435.454689","624202.013806","624968.743585","625735.27333","629618.803935","630385.106132","631152.031305","631918.633088","618085.661895","618852.522452","619618.893594","620386.099493","631161.657915"
"Mixed","both","ball","1","M_ball.wav","None","729.260293301","344","628869.052198","621152.106124","621901.975964","622668.776542","623435.454689","624202.013806","624968.743585","625735.27333","629618.803935","630385.106132","631152.031305","631918.633088","632685.300723","618852.522452","619618.893594","620386.099493","631927.777084"
"Mixed","both","ball","1","M_knife.wav","space","514.380708802","344","628869.052198","621152.106124","621901.975964","622668.776542","623435.454689","624202.013806","624968.743585","625735.27333","629618.803935","630385.106132","631152.031305","631918.633088","632685.300723","633452.533829","619618.893594","620386.099493","632695.177451"
"Mixed","both","ball","1","F_priest.wav","None","723.726469092","344","628869.052198","621152.106124","621901.975964","622668.776542","623435.454689","624202.013806","624968.743585","625735.27333","629618.803935","630385.106132","631152.031305","631918.633088","632685.300723","633452.533829","634218.89044","620386.099493","633461.952987"
"Mixed","both","ball","1","F_lash.wav","None","721.615460236","344","628869.052198","621152.106124","621901.975964","622668.776542","623435.454689","624202.013806","624968.743585","625735.27333","629618.803935","630385.106132","631152.031305","631918.633088","632685.300723","633452.533829","634218.89044","634985.597031","634228.537455"
"Mixed","both","ball","1","F_ball.wav","None","720.176585019","344","628869.052198","635751.73104","621901.975964","622668.776542","623435.454689","624202.013806","624968.743585","625735.27333","629618.803935","630385.106132","631152.031305","631918.633088","632685.300723","633452.533829","634218.89044","634985.597031","634994.947553"
"Mixed","both","ball","1","F_dime.wav","space","471.737581771","344","628869.052198","635751.73104","636518.739689","622668.776542","623435.454689","624202.013806","624968.743585","625735.27333","629618.803935","630385.106132","631152.031305","631918.633088","632685.300723","633452.533829","634218.89044","634985.597031","635760.770537"
"Mixed","both","ball","1","M_cling.wav","None","719.14334083","344","628869.052198","635751.73104","636518.739689","637268.343643","623435.454689","624202.013806","624968.743585","625735.27333","629618.803935","630385.106132","631152.031305","631918.633088","632685.300723","633452.533829","634218.89044","634985.597031","636528.896215"
"Mixed","both","ball","1","F_ball.wav","None","735.218298621","344","628869.052198","635751.73104","636518.739689","637268.343643","638034.924402","624202.013806","624968.743585","625735.27333","629618.803935","630385.106132","631152.031305","631918.633088","632685.300723","633452.533829","634218.89044","634985.597031","637277.671595"
"Mixed","both","ball","1","M_romp.wav","space","341.449856292","344","628869.052198","635751.73104","636518.739689","637268.343643","638034.924402","638801.841537","624968.743585","625735.27333","629618.803935","630385.106132","631152.031305","631918.633088","632685.300723","633452.533829","634218.89044","634985.597031","638043.967918"
"Mixed","both","ball","1","M_ball.wav","None","730.70164118","344","628869.052198","635751.73104","636518.739689","637268.343643","638034.924402","638801.841537","639568.345312","625735.27333","629618.803935","630385.106132","631152.031305","631918.633088","632685.300723","633452.533829","634218.89044","634985.597031","638810.820746"
"Mixed","both","ball","1","M_romp.wav","space","455.27245244","344","628869.052198","635751.73104","636518.739689","637268.343643","638034.924402","638801.841537","639568.345312","640334.884024","629618.803935","630385.106132","631152.031305","631918.633088","632685.300723","633452.533829","634218.89044","634985.597031","639578.123415"
"Mixed","both","done","42","M_cad.wav","None","726.367085706","344","643468.612188","635751.73104","636518.739689","637268.343643","638034.924402","638801.841537","639568.345312","640334.884024","629618.803935","630385.106132","631152.031305","631918.633088","632685.300723","633452.533829","634218.89044","634985.597031","640343.871272"
"Mixed","both","done","42","M_done.wav","None","720.609731507","344","643468.612188","635751.73104","636518.739689","637268.343643","638034.924402","638801.841537","639568.345312","640334.884024","644235.17316","630385.106132","631152.031305","631918.633088","632685.300723","633452.533829","634218.89044","634985.597031","643478.246527"
"Mixed","both","done","42","M_jaw.wav","space","444.044345059","344","643468.612188","635751.73104","636518.739689","637268.343643","638034.924402","638801.841537","639568.345312","640334.884024","644235.17316","645001.877277","631152.031305","631918.633088","632685.300723","633452.533829","634218.89044","634985.597031","644245.211892"
"Mixed","both","done","42","F_park.wav","None","718.993084505","344","643468.612188","635751.73104","636518.739689","637268.343643","638034.924402","638801.841537","639568.345312","640334.884024","644235.17316","645001.877277","645751.318299","631918.633088","632685.300723","633452.533829","634218.89044","634985.597031","645011.874272"
"Mixed","both","done","42","M_done.wav","None","735.138223507","344","643468.612188","635751.73104","636518.739689","637268.343643","638034.924402","638801.841537","639568.345312","640334.884024","644235.17316","645001.877277","645751.318299","646518.068173","632685.300723","633452.533829","634218.89044","634985.597031","645760.410045"
"Mixed","both","done","42","F_cad.wav","space","505.458077416","344","643468.612188","635751.73104","636518.739689","637268.343643","638034.924402","638801.841537","639568.345312","640334.884024","644235.17316","645001.877277","645751.318299","646518.068173","647285.057036","633452.533829","634218.89044","634985.597031","646527.714261"
"Mixed","both","done","42","M_cling.wav","None","729.970455635","344","643468.612188","635751.73104","636518.739689","637268.343643","638034.924402","638801.841537","639568.345312","640334.884024","644235.17316","645001.877277","645751.318299","646518.068173","647285.057036","648051.421067","634218.89044","634985.597031","647294.230712"
"Mixed","both","done","42","F_done.wav","None","728.384416085","344","643468.612188","635751.73104","636518.739689","637268.343643","638034.924402","638801.841537","639568.345312","640334.884024","644235.17316","645001.877277","645751.318299","646518.068173","647285.057036","648051.421067","648818.232466","634985.597031","648060.800032"
"Mixed","both","done","42","M_knife.wav","space","397.492079064","344","643468.612188","635751.73104","636518.739689","637268.343643","638034.924402","638801.841537","639568.345312","640334.884024","644235.17316","645001.877277","645751.318299","646518.068173","647285.057036","648051.421067","648818.232466","649584.632051","648827.604629"
"Mixed","both","done","42","F_depth.wav","None","727.497718297","344","643468.612188","650351.550423","636518.739689","637268.343643","638034.924402","638801.841537","639568.345312","640334.884024","644235.17316","645001.877277","645751.318299","646518.068173","647285.057036","648051.421067","648818.232466","649584.632051","649594.101912"
"Mixed","both","done","42","F_bluff.wav","None","725.693096407","344","643468.612188","650351.550423","651118.409434","637268.343643","638034.924402","638801.841537","639568.345312","640334.884024","644235.17316","645001.877277","645751.318299","646518.068173","647285.057036","648051.421067","648818.232466","649584.632051","650360.85055"
"Mixed","both","done","42","F_romp.wav","None","723.26549748","344","643468.612188","650351.550423","651118.409434","651885.193627","638034.924402","638801.841537","639568.345312","640334.884024","644235.17316","645001.877277","645751.318299","646518.068173","647285.057036","648051.421067","648818.232466","649584.632051","651128.30564"
"Mixed","both","done","42","F_done.wav","None","722.213393543","344","643468.612188","650351.550423","651118.409434","651885.193627","652651.079063","638801.841537","639568.345312","640334.884024","644235.17316","645001.877277","645751.318299","646518.068173","647285.057036","648051.421067","648818.232466","649584.632051","651894.439958"
"Mixed","both","done","42","F_gnash.wav","space","476.677182596","344","643468.612188","650351.550423","651118.409434","651885.193627","652651.079063","653401.10627","639568.345312","640334.884024","644235.17316","645001.877277","645751.318299","646518.068173","647285.057036","648051.421067","648818.232466","649584.632051","652660.315501"
"Mixed","both","done","42","M_priest.wav","None","734.103742521","344","643468.612188","650351.550423","651118.409434","651885.193627","652651.079063","653401.10627","654167.90252","640334.884024","644235.17316","645001.877277","645751.318299","646518.068173","647285.057036","648051.421067","648818.232466","649584.632051","653411.127071"
"Mixed","both","done","42","M_reek.wav","None","733.165103942","344","643468.612188","650351.550423","651118.409434","651885.193627","652651.079063","653401.10627","654167.90252","654934.889218","644235.17316","645001.877277","645751.318299","646518.068173","647285.057036","648051.421067","648818.232466","649584.632051","654177.322914"
"Mixed","both","done","43","M_jolt.wav","None","730.849734042","344","658068.179288","650351.550423","651118.409434","651885.193627","652651.079063","653401.10627","654167.90252","654934.889218","644235.17316","645001.877277","645751.318299","646518.068173","647285.057036","648051.421067","648818.232466","649584.632051","654944.463579"
"Mixed","both","done","43","F_done.wav","None","720.317875501","344","658068.179288","650351.550423","651118.409434","651885.193627","652651.079063","653401.10627","654167.90252","654934.889218","658817.82498","645001.877277","645751.318299","646518.068173","647285.057036","648051.421067","648818.232466","649584.632051","658077.985835"
"Mixed","both","done","43","M_depth.wav","space","437.050622422","344","658068.179288","650351.550423","651118.409434","651885.193627","652651.079063","653401.10627","654167.90252","654934.889218","658817.82498","659584.301549","645751.318299","646518.068173","647285.057036","648051.421067","648818.232466","649584.632051","658827.749011"
"Mixed","both","done","43","M_done.wav","None","732.874484733","344","658068.179288","650351.550423","651118.409434","651885.193627","652651.079063","653401.10627","654167.90252","654934.889218","658817.82498","659584.301549","660350.720303","646518.068173","647285.057036","648051.421067","648818.232466","649584.632051","659593.807583"
"Mixed","both","done","43","F_dime.wav","space","728.913096245","344","658068.179288","650351.550423","651118.409434","651885.193627","652651.079063","653401.10627","654167.90252","654934.889218","658817.82498","659584.301549","660350.720303","661117.69989","647285.057036","648051.421067","648818.232466","649584.632051","660359.827508"
"Mixed","both","done","43","M_dime.wav","None","728.149138391","344","658068.179288","650351.550423","651118.409434","651885.193627","652651.079063","653401.10627","654167.90252","654934.889218","658817.82498","659584.301549","660350.720303","661117.69989","661884.461204","648051.421067","648818.232466","649584.632051","661127.268067"
"Mixed","both","done","43","M_greet.wav","None","726.206008345","344","658068.179288","650351.550423","651118.409434","651885.193627","652651.079063","653401.10627","654167.90252","654934.889218","658817.82498","659584.301549","660350.720303","661117.69989","661884.461204","662651.479129","648818.232466","649584.632051","661893.969711"
"Mixed","both","done","43","M_priest.wav","None","723.446361721","344","658068.179288","650351.550423","651118.409434","651885.193627","652651.079063","653401.10627","654167.90252","654934.889218","658817.82498","659584.301549","660350.720303","661117.69989","661884.461204","662651.479129","663417.226985","649584.632051","662661.470249"
"Mixed","both","done","43","M_gnash.wav","None","724.146630615","344","658068.179288","650351.550423","651118.409434","651885.193627","652651.079063","653401.10627","654167.90252","654934.889218","658817.82498","659584.301549","660350.720303","661117.69989","661884.461204","662651.479129","663417.226985","664184.353118","663426.043571"
"Mixed","both","done","43","F_gnash.wav","None","720.561501104","344","658068.179288","664951.034357","651118.409434","651885.193627","652651.079063","653401.10627","654167.90252","654934.889218","658817.82498","659584.301549","660350.720303","661117.69989","661884.461204","662651.479129","663417.226985","664184.353118","664194.795008"
"Mixed","both","done","43","F_bluff.wav","None","719.847628847","344","658068.179288","664951.034357","665700.727661","651885.193627","652651.079063","653401.10627","654167.90252","654934.889218","658817.82498","659584.301549","660350.720303","661117.69989","661884.461204","662651.479129","663417.226985","664184.353118","664960.696522"
"Mixed","both","done","43","F_priest.wav","None","735.282605514","344","658068.179288","664951.034357","665700.727661","666467.546172","652651.079063","653401.10627","654167.90252","654934.889218","658817.82498","659584.301549","660350.720303","661117.69989","661884.461204","662651.479129","663417.226985","664184.353118","665710.089004"
"Mixed","both","done","43","M_done.wav","None","733.665030915","344","658068.179288","664951.034357","665700.727661","666467.546172","667234.054585","653401.10627","654167.90252","654934.889218","658817.82498","659584.301549","660350.720303","661117.69989","661884.461204","662651.479129","663417.226985","664184.353118","666476.717684"
"Mixed","both","done","43","F_depth.wav","space","538.9065044","344","658068.179288","664951.034357","665700.727661","666467.546172","667234.054585","668000.490343","654167.90252","654934.889218","658817.82498","659584.301549","660350.720303","661117.69989","661884.461204","662651.479129","663417.226985","664184.353118","667237.602923"
"Mixed","both","done","43","F_done.wav","None","734.504735097","344","658068.179288","664951.034357","665700.727661","666467.546172","667234.054585","668000.490343","668766.975259","654934.889218","658817.82498","659584.301549","660350.720303","661117.69989","661884.461204","662651.479129","663417.226985","664184.353118","668009.360724"
"Mixed","both","done","43","F_knife.wav","space","472.805762663","344","658068.179288","664951.034357","665700.727661","666467.546172","667234.054585","668000.490343","668766.975259","669533.990092","658817.82498","659584.301549","660350.720303","661117.69989","661884.461204","662651.479129","663417.226985","664184.353118","668775.69291"
"Mixed","both","tile","35","M_gnash.wav","None","730.135861319","344","672667.786891","664951.034357","665700.727661","666467.546172","667234.054585","668000.490343","668766.975259","669533.990092","658817.82498","659584.301549","660350.720303","661117.69989","661884.461204","662651.479129","663417.226985","664184.353118","669543.522096"
"Mixed","both","tile","35","M_tile.wav","None","720.432268456","344","672667.786891","664951.034357","665700.727661","666467.546172","667234.054585","668000.490343","668766.975259","669533.990092","673434.373833","659584.301549","660350.720303","661117.69989","661884.461204","662651.479129","663417.226985","664184.353118","672677.753587"
"Mixed","both","tile","35","M_greet.wav","space","612.392068841","344","672667.786891","664951.034357","665700.727661","666467.546172","667234.054585","668000.490343","668766.975259","669533.990092","673434.373833","674183.82382","660350.720303","661117.69989","661884.461204","662651.479129","663417.226985","664184.353118","673443.963652"
"Mixed","both","tile","35","M_tile.wav","None","734.238540754","344","672667.786891","664951.034357","665700.727661","666467.546172","667234.054585","668000.490343","668766.975259","669533.990092","673434.373833","674183.82382","674950.755487","661117.69989","661884.461204","662651.479129","663417.226985","664184.353118","674193.062422"
"Mixed","both","tile","35","M_gnash.wav","space","480.461725965","344","672667.786891","664951.034357","665700.727661","666467.546172","667234.054585","668000.490343","668766.975259","669533.990092","673434.373833","674183.82382","674950.755487","675717.332535","661884.461204","662651.479129","663417.226985","664184.353118","674959.901029"
"Mixed","both","tile","35","F_cad.wav","None","729.23463257","344","672667.786891","664951.034357","665700.727661","666467.546172","667234.054585","668000.490343","668766.975259","669533.990092","673434.373833","674183.82382","674950.755487","675717.332535","676483.822398","662651.479129","663417.226985","664184.353118","675726.796213"
"Mixed","both","tile","35","M_greet.wav","None","728.129351512","344","672667.786891","664951.034357","665700.727661","666467.546172","667234.054585","668000.490343","668766.975259","669533.990092","673434.373833","674183.82382","674950.755487","675717.332535","676483.822398","677250.543829","663417.226985","664184.353118","676492.805626"
"Mixed","both","tile","35","F_cling.wav","None","726.466638036","344","672667.786891","664951.034357","665700.727661","666467.546172","667234.054585","668000.490343","668766.975259","669533.990092","673434.373833","674183.82382","674950.755487","675717.332535","676483.822398","677250.543829","678017.153341","664184.353118","677259.85725"
"Mixed","both","tile","35","F_tile.wav","None","724.521344062","344","672667.786891","664951.034357","665700.727661","666467.546172","667234.054585","668000.490343","668766.975259","669533.990092","673434.373833","674183.82382","674950.755487","675717.332535","676483.822398","677250.543829","678017.153341","678784.083152","678026.821688"
"Mixed","both","tile","35","M_romp.wav","space","510.310492478","344","672667.786891","679550.280231","665700.727661","666467.546172","667234.054585","668000.490343","668766.975259","669533.990092","673434.373833","674183.82382","674950.755487","675717.332535","676483.822398","677250.543829","678017.153341","678784.083152","678793.906703"
"Mixed","both","tile","35","F_greet.wav","None","721.671728883","344","672667.786891","679550.280231","680300.54519","666467.546172","667234.054585","668000.490343","668766.975259","669533.990092","673434.373833","674183.82382","674950.755487","675717.332535","676483.822398","677250.543829","678017.153341","678784.083152","679559.295304"
"Mixed","both","tile","35","F_greet.wav","None","736.118290573","344","672667.786891","679550.280231","680300.54519","681067.021449","667234.054585","668000.490343","668766.975259","669533.990092","673434.373833","674183.82382","674950.755487","675717.332535","676483.822398","677250.543829","678017.153341","678784.083152","680309.804506"
"Mixed","both","tile","35","F_tile.wav","None","734.583264217","344","672667.786891","679550.280231","680300.54519","681067.021449","681833.627251","668000.490343","668766.975259","669533.990092","673434.373833","674183.82382","674950.755487","675717.332535","676483.822398","677250.543829","678017.153341","678784.083152","681076.570457"
"Mixed","both","tile","35","F_dime.wav","space","412.790711969","344","672667.786891","679550.280231","680300.54519","681067.021449","681833.627251","682599.936249","668766.975259","669533.990092","673434.373833","674183.82382","674950.755487","675717.332535","676483.822398","677250.543829","678017.153341","678784.083152","681843.328679"
"Mixed","both","tile","35","F_priest.wav","None","731.784971431","344","672667.786891","679550.280231","680300.54519","681067.021449","681833.627251","682599.936249","683367.058673","669533.990092","673434.373833","674183.82382","674950.755487","675717.332535","676483.822398","677250.543829","678017.153341","678784.083152","682608.987495"
"Mixed","both","tile","35","M_lash.wav","None","729.772896506","344","672667.786891","679550.280231","680300.54519","681067.021449","681833.627251","682599.936249","683367.058673","684133.58038","673434.373833","674183.82382","674950.755487","675717.332535","676483.822398","677250.543829","678017.153341","678784.083152","683376.091986"
"Mixed","both","ball","2","M_lash.wav","None","727.736397181","344","687267.311635","679550.280231","680300.54519","681067.021449","681833.627251","682599.936249","683367.058673","684133.58038","673434.373833","674183.82382","674950.755487","675717.332535","676483.822398","677250.543829","678017.153341","678784.083152","684143.264496"
"Mixed","both","ball","2","M_jolt.wav","None","720.731544308","344","687267.311635","679550.280231","680300.54519","681067.021449","681833.627251","682599.936249","683367.058673","684133.58038","688034.218259","674183.82382","674950.755487","675717.332535","676483.822398","677250.543829","678017.153341","678784.083152","687276.658447"
"Mixed","both","ball","2","F_cad.wav","None","718.752550893","344","687267.311635","679550.280231","680300.54519","681067.021449","681833.627251","682599.936249","683367.058673","684133.58038","688034.218259","688783.34671","674950.755487","675717.332535","676483.822398","677250.543829","678017.153341","678784.083152","688043.8257"
"Mixed","both","ball","2","F_depth.wav","None","735.179961659","344","687267.311635","679550.280231","680300.54519","681067.021449","681833.627251","682599.936249","683367.058673","684133.58038","688034.218259","688783.34671","689550.225199","675717.332535","676483.822398","677250.543829","678017.153341","678784.083152","688792.75752"
"Mixed","both","ball","2","M_cling.wav","None","733.767366037","344","687267.311635","679550.280231","680300.54519","681067.021449","681833.627251","682599.936249","683367.058673","684133.58038","688034.218259","688783.34671","689550.225199","690316.434645","676483.822398","677250.543829","678017.153341","678784.083152","689559.741436"
"Mixed","both","ball","2","M_ball.wav","None","733.375338838","344","687267.311635","679550.280231","680300.54519","681067.021449","681833.627251","682599.936249","683367.058673","684133.58038","688034.218259","688783.34671","689550.225199","690316.434645","691083.328283","677250.543829","678017.153341","678784.083152","690325.35233"
"Mixed","both","ball","2","F_greet.wav","space","523.04023644","344","687267.311635","679550.280231","680300.54519","681067.021449","681833.627251","682599.936249","683367.058673","684133.58038","688034.218259","688783.34671","689550.225199","690316.434645","691083.328283","691850.313127","678017.153341","678784.083152","691092.763827"
"Mixed","both","ball","2","M_ball.wav","None","728.118221276","344","687267.311635","679550.280231","680300.54519","681067.021449","681833.627251","682599.936249","683367.058673","684133.58038","688034.218259","688783.34671","689550.225199","690316.434645","691083.328283","691850.313127","692616.813811","678784.083152","691859.624693"
"Mixed","both","ball","2","F_lash.wav","space","485.030323267","344","687267.311635","679550.280231","680300.54519","681067.021449","681833.627251","682599.936249","683367.058673","684133.58038","688034.218259","688783.34671","689550.225199","690316.434645","691083.328283","691850.313127","692616.813811","693383.529058","692626.735677"
"Mixed","both","ball","2","F_ball.wav","None","723.146776203","344","687267.311635","694150.583155","680300.54519","681067.021449","681833.627251","682599.936249","683367.058673","684133.58038","688034.218259","688783.34671","689550.225199","690316.434645","691083.328283","691850.313127","692616.813811","693383.529058","693393.711555"
"Mixed","both","ball","2","F_gnash.wav","space","503.090149257","344","687267.311635","694150.583155","694917.20256","681067.021449","681833.627251","682599.936249","683367.058673","684133.58038","688034.218259","688783.34671","689550.225199","690316.434645","691083.328283","691850.313127","692616.813811","693383.529058","694160.641056"
"Mixed","both","ball","2","M_cad.wav","None","719.457457308","344","687267.311635","694150.583155","694917.20256","695666.475085","681833.627251","682599.936249","683367.058673","684133.58038","688034.218259","688783.34671","689550.225199","690316.434645","691083.328283","691850.313127","692616.813811","693383.529058","694926.593583"
"Mixed","both","ball","2","F_jolt.wav","None","735.473363195","344","687267.311635","694150.583155","694917.20256","695666.475085","696433.210428","682599.936249","683367.058673","684133.58038","688034.218259","688783.34671","689550.225199","690316.434645","691083.328283","691850.313127","692616.813811","693383.529058","695675.919594"
"Mixed","both","ball","2","M_gnash.wav","None","734.527613968","344","687267.311635","694150.583155","694917.20256","695666.475085","696433.210428","697199.548489","683367.058673","684133.58038","688034.218259","688783.34671","689550.225199","690316.434645","691083.328283","691850.313127","692616.813811","693383.529058","696442.217771"
"Mixed","both","ball","2","F_ball.wav","None","733.145007864","344","687267.311635","694150.583155","694917.20256","695666.475085","696433.210428","697199.548489","697966.497777","684133.58038","688034.218259","688783.34671","689550.225199","690316.434645","691083.328283","691850.313127","692616.813811","693383.529058","697208.662496"
"Mixed","both","ball","2","M_gnash.wav","None","738.09542926","344","687267.311635","694150.583155","694917.20256","695666.475085","696433.210428","697199.548489","697966.497777","698733.137279","688034.218259","688783.34671","689550.225199","690316.434645","691083.328283","691850.313127","692616.813811","693383.529058","697970.166383"
"Mixed","both","done","45","M_romp.wav","space","0.0349362380803","344","701883.866671","694150.583155","694917.20256","695666.475085","696433.210428","697199.548489","697966.497777","698733.137279","688034.218259","688783.34671","689550.225199","690316.434645","691083.328283","691850.313127","692616.813811","693383.529058","698742.711021"
"Mixed","both","done","45","F_done.wav","None","720.8811827","344","701883.866671","694150.583155","694917.20256","695666.475085","696433.210428","697199.548489","697966.497777","698733.137279","702650.304903","688783.34671","689550.225199","690316.434645","691083.328283","691850.313127","692616.813811","693383.529058","701893.370232"
"Mixed","both","done","45","M_jaw.wav","space","395.271623973","344","701883.866671","694150.583155","694917.20256","695666.475085","696433.210428","697199.548489","697966.497777","698733.137279","702650.304903","703399.754581","689550.225199","690316.434645","691083.328283","691850.313127","692616.813811","693383.529058","702660.219349"
"Mixed","both","done","45","M_jolt.wav","None","734.03077852","344","701883.866671","694150.583155","694917.20256","695666.475085","696433.210428","697199.548489","697966.497777","698733.137279","702650.304903","703399.754581","704166.327301","690316.434645","691083.328283","691850.313127","692616.813811","693383.529058","703409.210839"
"Mixed","both","done","45","M_done.wav","None","732.990731951","344","701883.866671","694150.583155","694917.20256","695666.475085","696433.210428","697199.548489","697966.497777","698733.137279","702650.304903","703399.754581","704166.327301","704932.902805","691083.328283","691850.313127","692616.813811","693383.529058","704175.648143"
"Mixed","both","done","45","M_romp.wav","space","600.914461073","344","701883.866671","694150.583155","694917.20256","695666.475085","696433.210428","697199.548489","697966.497777","698733.137279","702650.304903","703399.754581","704166.327301","704932.902805","705699.779438","691850.313127","692616.813811","693383.529058","704942.469127"
"Mixed","both","done","45","F_cling.wav","None","728.991625365","344","701883.866671","694150.583155","694917.20256","695666.475085","696433.210428","697199.548489","697966.497777","698733.137279","702650.304903","703399.754581","704166.327301","704932.902805","705699.779438","706466.386786","692616.813811","693383.529058","705709.087913"
"Mixed","both","done","45","F_park.wav","None","727.577792946","344","701883.866671","694150.583155","694917.20256","695666.475085","696433.210428","697199.548489","697966.497777","698733.137279","702650.304903","703399.754581","704166.327301","704932.902805","705699.779438","706466.386786","707232.843877","693383.529058","706475.457818"
"Mixed","both","done","45","F_cad.wav","None","726.451488677","344","701883.866671","694150.583155","694917.20256","695666.475085","696433.210428","697199.548489","697966.497777","698733.137279","702650.304903","703399.754581","704166.327301","704932.902805","705699.779438","706466.386786","707232.843877","707999.171735","707242.23459"
"Mixed","both","done","45","M_done.wav","None","725.514705293","344","701883.866671","708766.752966","694917.20256","695666.475085","696433.210428","697199.548489","697966.497777","698733.137279","702650.304903","703399.754581","704166.327301","704932.902805","705699.779438","706466.386786","707232.843877","707999.171735","708008.821223"
"Mixed","both","done","45","F_romp.wav","space","334.437583573","344","701883.866671","708766.752966","709533.477489","695666.475085","696433.210428","697199.548489","697966.497777","698733.137279","702650.304903","703399.754581","704166.327301","704932.902805","705699.779438","706466.386786","707232.843877","707999.171735","708776.856006"
"Mixed","both","done","45","M_lash.wav","None","720.239656046","344","701883.866671","708766.752966","709533.477489","710299.989612","696433.210428","697199.548489","697966.497777","698733.137279","702650.304903","703399.754581","704166.327301","704932.902805","705699.779438","706466.386786","707232.843877","707999.171735","709543.472629"
"Mixed","both","done","45","F_bluff.wav","None","719.108713791","344","701883.866671","708766.752966","709533.477489","710299.989612","711049.395697","697199.548489","697966.497777","698733.137279","702650.304903","703399.754581","704166.327301","704932.902805","705699.779438","706466.386786","707232.843877","707999.171735","710309.772971"
"Mixed","both","done","45","F_done.wav","None","735.636913683","344","701883.866671","708766.752966","709533.477489","710299.989612","711049.395697","711816.080337","697966.497777","698733.137279","702650.304903","703399.754581","704166.327301","704932.902805","705699.779438","706466.386786","707232.843877","707999.171735","711058.772498"
"Mixed","both","done","45","F_cad.wav","space","397.443539463","344","701883.866671","708766.752966","709533.477489","710299.989612","711049.395697","711816.080337","712582.685211","698733.137279","702650.304903","703399.754581","704166.327301","704932.902805","705699.779438","706466.386786","707232.843877","707999.171735","711825.774346"
"Mixed","both","done","45","M_jaw.wav","None","731.93862848","344","701883.866671","708766.752966","709533.477489","710299.989612","711049.395697","711816.080337","712582.685211","713349.640992","702650.304903","703399.754581","704166.327301","704932.902805","705699.779438","706466.386786","707232.843877","707999.171735","712592.122609"
"Mixed","both","done","46","F_jaw.wav","None","730.965054128","344","716482.78699","708766.752966","709533.477489","710299.989612","711049.395697","711816.080337","712582.685211","713349.640992","702650.304903","703399.754581","704166.327301","704932.902805","705699.779438","706466.386786","707232.843877","707999.171735","713358.654519"
"Mixed","both","done","46","M_jolt.wav","None","721.341535915","344","716482.78699","708766.752966","709533.477489","710299.989612","711049.395697","711816.080337","712582.685211","713349.640992","717249.632088","703399.754581","704166.327301","704932.902805","705699.779438","706466.386786","707232.843877","707999.171735","716492.48409"
"Mixed","both","done","46","F_romp.wav","None","719.582670368","344","716482.78699","708766.752966","709533.477489","710299.989612","711049.395697","711816.080337","712582.685211","713349.640992","717249.632088","717999.175754","704166.327301","704932.902805","705699.779438","706466.386786","707232.843877","707999.171735","717259.711632"
"Mixed","both","done","46","M_depth.wav","None","735.898161773","344","716482.78699","708766.752966","709533.477489","710299.989612","711049.395697","711816.080337","712582.685211","713349.640992","717249.632088","717999.175754","718765.872761","704932.902805","705699.779438","706466.386786","707232.843877","707999.171735","718008.725381"
"Mixed","both","done","46","M_jolt.wav","space","311.793702189","344","716482.78699","708766.752966","709533.477489","710299.989612","711049.395697","711816.080337","712582.685211","713349.640992","717249.632088","717999.175754","718765.872761","719532.513498","705699.779438","706466.386786","707232.843877","707999.171735","718775.228538"
"Mixed","both","done","46","F_bluff.wav","None","731.87339399","344","716482.78699","708766.752966","709533.477489","710299.989612","711049.395697","711816.080337","712582.685211","713349.640992","717249.632088","717999.175754","718765.872761","719532.513498","720299.43187","706466.386786","707232.843877","707999.171735","719542.19916"
"Mixed","both","done","46","M_done.wav","None","731.638734229","344","716482.78699","708766.752966","709533.477489","710299.989612","711049.395697","711816.080337","712582.685211","713349.640992","717249.632088","717999.175754","718765.872761","719532.513498","720299.43187","721065.969654","707232.843877","707999.171735","720308.072848"
"Mixed","both","done","46","F_jolt.wav","None","730.048366822","344","716482.78699","708766.752966","709533.477489","710299.989612","711049.395697","711816.080337","712582.685211","713349.640992","717249.632088","717999.175754","718765.872761","719532.513498","720299.43187","721065.969654","721832.420562","707999.171735","721075.129109"
"Mixed","both","done","46","M_gnash.wav","space","0.0639981590211","344","716482.78699","708766.752966","709533.477489","710299.989612","711049.395697","711816.080337","712582.685211","713349.640992","717249.632088","717999.175754","718765.872761","719532.513498","720299.43187","721065.969654","721832.420562","722599.257313","721841.881457"
"Mixed","both","done","46","F_done.wav","None","725.049714092","344","716482.78699","723366.171357","709533.477489","710299.989612","711049.395697","711816.080337","712582.685211","713349.640992","717249.632088","717999.175754","718765.872761","719532.513498","720299.43187","721065.969654","721832.420562","722599.257313","722608.852079"
"Mixed","both","done","46","F_park.wav","space","543.020004872","344","716482.78699","723366.171357","724132.577744","710299.989612","711049.395697","711816.080337","712582.685211","713349.640992","717249.632088","717999.175754","718765.872761","719532.513498","720299.43187","721065.969654","721832.420562","722599.257313","723375.858563"
"Mixed","both","done","46","M_done.wav","None","720.745148137","344","716482.78699","723366.171357","724132.577744","724899.711607","711049.395697","711816.080337","712582.685211","713349.640992","717249.632088","717999.175754","718765.872761","719532.513498","720299.43187","721065.969654","721832.420562","722599.257313","724142.149012"
"Mixed","both","done","46","M_cling.wav","space","561.558424495","344","716482.78699","723366.171357","724132.577744","724899.711607","725649.198385","711816.080337","712582.685211","713349.640992","717249.632088","717999.175754","718765.872761","719532.513498","720299.43187","721065.969654","721832.420562","722599.257313","724909.28102"
"Mixed","both","done","46","F_lash.wav","None","733.848368749","344","716482.78699","723366.171357","724132.577744","724899.711607","725649.198385","726415.360838","712582.685211","713349.640992","717249.632088","717999.175754","718765.872761","719532.513498","720299.43187","721065.969654","721832.420562","722599.257313","725658.460175"
"Mixed","both","done","46","F_done.wav","None","733.186127152","344","716482.78699","723366.171357","724132.577744","724899.711607","725649.198385","726415.360838","727182.292504","713349.640992","717249.632088","717999.175754","718765.872761","719532.513498","720299.43187","721065.969654","721832.420562","722599.257313","726424.103223"
"Mixed","both","done","46","M_jaw.wav","None","731.183636468","344","716482.78699","723366.171357","724132.577744","724899.711607","725649.198385","726415.360838","727182.292504","727948.635821","717249.632088","717999.175754","718765.872761","719532.513498","720299.43187","721065.969654","721832.420562","722599.257313","727191.233376"
"Mixed","both","cave","21","F_knife.wav","None","729.633460753","344","731082.981396","723366.171357","724132.577744","724899.711607","725649.198385","726415.360838","727182.292504","727948.635821","717249.632088","717999.175754","718765.872761","719532.513498","720299.43187","721065.969654","721832.420562","722599.257313","727957.802077"
"Mixed","both","cave","21","M_cave.wav","None","720.91704607","344","731082.981396","723366.171357","724132.577744","724899.711607","725649.198385","726415.360838","727182.292504","727948.635821","731848.994828","717999.175754","718765.872761","719532.513498","720299.43187","721065.969654","721832.420562","722599.257313","731092.34212"
"Mixed","both","cave","21","M_greet.wav","space","524.775913917","344","731082.981396","723366.171357","724132.577744","724899.711607","725649.198385","726415.360838","727182.292504","727948.635821","731848.994828","732616.083862","718765.872761","719532.513498","720299.43187","721065.969654","721832.420562","722599.257313","731857.822853"
"Mixed","both","cave","21","F_cave.wav","None","720.396713819","344","731082.981396","723366.171357","724132.577744","724899.711607","725649.198385","726415.360838","727182.292504","727948.635821","731848.994828","732616.083862","733382.317732","719532.513498","720299.43187","721065.969654","721832.420562","722599.257313","732625.643073"
"Mixed","both","cave","21","M_knife.wav","space","558.096035384","344","731082.981396","723366.171357","724132.577744","724899.711607","725649.198385","726415.360838","727182.292504","727948.635821","731848.994828","732616.083862","733382.317732","734132.112753","720299.43187","721065.969654","721832.420562","722599.257313","733392.418299"
"Mixed","both","cave","21","M_knife.wav","None","734.08952076","344","731082.981396","723366.171357","724132.577744","724899.711607","725649.198385","726415.360838","727182.292504","727948.635821","731848.994828","732616.083862","733382.317732","734132.112753","734898.864483","721065.969654","721832.420562","722599.257313","734141.262005"
"Mixed","both","cave","21","M_cave.wav","None","732.368374243","344","731082.981396","723366.171357","724132.577744","724899.711607","725649.198385","726415.360838","727182.292504","727948.635821","731848.994828","732616.083862","733382.317732","734132.112753","734898.864483","735665.067745","721832.420562","722599.257313","734908.600847"
"Mixed","both","cave","21","F_romp.wav","space","388.362613972","344","731082.981396","723366.171357","724132.577744","724899.711607","725649.198385","726415.360838","727182.292504","727948.635821","731848.994828","732616.083862","733382.317732","734132.112753","734898.864483","735665.067745","736432.144412","722599.257313","735674.119918"
"Mixed","both","cave","21","M_cad.wav","None","729.034290649","344","731082.981396","723366.171357","724132.577744","724899.711607","725649.198385","726415.360838","727182.292504","727948.635821","731848.994828","732616.083862","733382.317732","734132.112753","734898.864483","735665.067745","736432.144412","737198.872644","736441.60778"
"Mixed","both","cave","21","F_cave.wav","None","727.454743814","344","731082.981396","737965.360961","724132.577744","724899.711607","725649.198385","726415.360838","727182.292504","727948.635821","731848.994828","732616.083862","733382.317732","734132.112753","734898.864483","735665.067745","736432.144412","737198.872644","737208.545321"
"Mixed","both","cave","21","M_dime.wav","space","519.791792613","344","731082.981396","737965.360961","738732.351679","724899.711607","725649.198385","726415.360838","727182.292504","727948.635821","731848.994828","732616.083862","733382.317732","734132.112753","734898.864483","735665.067745","736432.144412","737198.872644","737974.641302"
"Mixed","both","cave","21","F_jaw.wav","None","723.224996123","344","731082.981396","737965.360961","738732.351679","739499.152566","725649.198385","726415.360838","727182.292504","727948.635821","731848.994828","732616.083862","733382.317732","734132.112753","734898.864483","735665.067745","736432.144412","737198.872644","738742.490273"
"Mixed","both","cave","21","F_depth.wav","None","721.898040734","344","731082.981396","737965.360961","738732.351679","739499.152566","740265.739199","726415.360838","727182.292504","727948.635821","731848.994828","732616.083862","733382.317732","734132.112753","734898.864483","735665.067745","736432.144412","737198.872644","739509.053719"
"Mixed","both","cave","21","M_reek.wav","None","721.003922634","344","731082.981396","737965.360961","738732.351679","739499.152566","740265.739199","741031.775511","727182.292504","727948.635821","731848.994828","732616.083862","733382.317732","734132.112753","734898.864483","735665.067745","736432.144412","737198.872644","740275.355298"
"Mixed","both","cave","21","F_knife.wav","None","720.137939323","344","731082.981396","737965.360961","738732.351679","739499.152566","740265.739199","741031.775511","741781.463559","727948.635821","731848.994828","732616.083862","733382.317732","734132.112753","734898.864483","735665.067745","736432.144412","737198.872644","741041.319263"
"Mixed","both","cave","21","F_knife.wav","None","735.837564804","344","731082.981396","737965.360961","738732.351679","739499.152566","740265.739199","741031.775511","741781.463559","742548.142015","731848.994828","732616.083862","733382.317732","734132.112753","734898.864483","735665.067745","736432.144412","737198.872644","741790.868494"
"Mixed","both","ball","6","M_bluff.wav","None","734.596868046","344","745682.08567","737965.360961","738732.351679","739499.152566","740265.739199","741031.775511","741781.463559","742548.142015","731848.994828","732616.083862","733382.317732","734132.112753","734898.864483","735665.067745","736432.144412","737198.872644","742557.326512"
"Mixed","both","ball","6","F_knife.wav","None","721.245383844","344","745682.08567","737965.360961","738732.351679","739499.152566","740265.739199","741031.775511","741781.463559","742548.142015","746448.924585","732616.083862","733382.317732","734132.112753","734898.864483","735665.067745","736432.144412","737198.872644","745691.7197"
"Mixed","both","ball","6","M_ball.wav","None","719.894932117","344","745682.08567","737965.360961","738732.351679","739499.152566","740265.739199","741031.775511","741781.463559","742548.142015","746448.924585","747198.709403","733382.317732","734132.112753","734898.864483","735665.067745","736432.144412","737198.872644","746458.80966"
"Mixed","both","ball","6","M_jolt.wav","space","486.079644877","344","745682.08567","737965.360961","738732.351679","739499.152566","740265.739199","741031.775511","741781.463559","742548.142015","746448.924585","747198.709403","747965.032624","734132.112753","734898.864483","735665.067745","736432.144412","737198.872644","747208.066108"
"Mixed","both","ball","6","F_ball.wav","None","733.605052345","344","745682.08567","737965.360961","738732.351679","739499.152566","740265.739199","741031.775511","741781.463559","742548.142015","746448.924585","747198.709403","747965.032624","748731.601943","734898.864483","735665.067745","736432.144412","737198.872644","747974.346354"
"Mixed","both","ball","6","F_dime.wav","space","505.443546921","344","745682.08567","737965.360961","738732.351679","739499.152566","740265.739199","741031.775511","741781.463559","742548.142015","746448.924585","747198.709403","747965.032624","748731.601943","749498.51073","735665.067745","736432.144412","737198.872644","748740.639894"
"Mixed","both","ball","6","F_cad.wav","None","729.937374592","344","745682.08567","737965.360961","738732.351679","739499.152566","740265.739199","741031.775511","741781.463559","742548.142015","746448.924585","747198.709403","747965.032624","748731.601943","749498.51073","750264.998429","736432.144412","737198.872644","749507.477882"
"Mixed","both","ball","6","F_reek.wav","None","728.142336477","344","745682.08567","737965.360961","738732.351679","739499.152566","740265.739199","741031.775511","741781.463559","742548.142015","746448.924585","747198.709403","747965.032624","748731.601943","749498.51073","750264.998429","751031.574241","737198.872644","750274.655956"
"Mixed","both","ball","6","M_reek.wav","None","728.337422479","344","745682.08567","737965.360961","738732.351679","739499.152566","740265.739199","741031.775511","741781.463559","742548.142015","746448.924585","747198.709403","747965.032624","748731.601943","749498.51073","750264.998429","751031.574241","751798.508072","751040.49409"
"Mixed","both","ball","6","M_depth.wav","None","725.915389135","344","745682.08567","752564.899","738732.351679","739499.152566","740265.739199","741031.775511","741781.463559","742548.142015","746448.924585","747198.709403","747965.032624","748731.601943","749498.51073","750264.998429","751031.574241","751798.508072","751808.154468"
"Mixed","both","ball","6","M_lash.wav","None","725.328894332","344","745682.08567","752564.899","753331.157605","739499.152566","740265.739199","741031.775511","741781.463559","742548.142015","746448.924585","747198.709403","747965.032624","748731.601943","749498.51073","750264.998429","751031.574241","751798.508072","752574.466868"
"Mixed","both","ball","6","F_lash.wav","None","725.153904408","344","745682.08567","752564.899","753331.157605","754098.789849","740265.739199","741031.775511","741781.463559","742548.142015","746448.924585","747198.709403","747965.032624","748731.601943","749498.51073","750264.998429","751031.574241","751798.508072","753340.109298"
"Mixed","both","ball","6","M_ball.wav","None","722.953545395","344","745682.08567","752564.899","753331.157605","754098.789849","754865.292388","741031.775511","741781.463559","742548.142015","746448.924585","747198.709403","747965.032624","748731.601943","749498.51073","750264.998429","751031.574241","751798.508072","754108.202513"
"Mixed","both","ball","6","F_romp.wav","space","410.922091454","344","745682.08567","752564.899","753331.157605","754098.789849","754865.292388","755631.630449","741781.463559","742548.142015","746448.924585","747198.709403","747965.032624","748731.601943","749498.51073","750264.998429","751031.574241","751798.508072","754874.997527"
"Mixed","both","ball","6","F_ball.wav","None","719.696754124","344","745682.08567","752564.899","753331.157605","754098.789849","754865.292388","755631.630449","756381.011491","742548.142015","746448.924585","747198.709403","747965.032624","748731.601943","749498.51073","750264.998429","751031.574241","751798.508072","755640.878944"
"Mixed","both","ball","6","M_cad.wav","None","735.713897273","344","745682.08567","752564.899","753331.157605","754098.789849","754865.292388","755631.630449","756381.011491","757148.052294","746448.924585","747198.709403","747965.032624","748731.601943","749498.51073","750264.998429","751031.574241","751798.508072","756390.151468"
"Mixed","both","done","40","M_jaw.wav","space","248.402212281","344","760281.602067","752564.899","753331.157605","754098.789849","754865.292388","755631.630449","756381.011491","757148.052294","746448.924585","747198.709403","747965.032624","748731.601943","749498.51073","750264.998429","751031.574241","751798.508072","757157.459084"
"Mixed","both","done","40","F_done.wav","None","721.290213987","344","760281.602067","752564.899","753331.157605","754098.789849","754865.292388","755631.630449","756381.011491","757148.052294","761048.619373","747198.709403","747965.032624","748731.601943","749498.51073","750264.998429","751031.574241","751798.508072","760291.284327"
"Mixed","both","done","40","F_cling.wav","space","387.645031326","344","760281.602067","752564.899","753331.157605","754098.789849","754865.292388","755631.630449","756381.011491","757148.052294","761048.619373","761797.805948","747965.032624","748731.601943","749498.51073","750264.998429","751031.574241","751798.508072","761058.073775"
"Mixed","both","done","40","M_cad.wav","None","734.855642542","344","760281.602067","752564.899","753331.157605","754098.789849","754865.292388","755631.630449","756381.011491","757148.052294","761048.619373","761797.805948","762564.539436","748731.601943","749498.51073","750264.998429","751031.574241","751798.508072","761807.131427"
"Mixed","both","done","40","M_done.wav","None","733.577226754","344","760281.602067","752564.899","753331.157605","754098.789849","754865.292388","755631.630449","756381.011491","757148.052294","761048.619373","761797.805948","762564.539436","763331.149257","749498.51073","750264.998429","751031.574241","751798.508072","762574.155844"
"Mixed","both","done","40","F_dime.wav","space","481.831037905","344","760281.602067","752564.899","753331.157605","754098.789849","754865.292388","755631.630449","756381.011491","757148.052294","761048.619373","761797.805948","762564.539436","763331.149257","764097.678076","750264.998429","751031.574241","751798.508072","763339.802292"
"Mixed","both","done","40","M_done.wav","None","731.849897187","344","760281.602067","752564.899","753331.157605","754098.789849","754865.292388","755631.630449","756381.011491","757148.052294","761048.619373","761797.805948","762564.539436","763331.149257","764097.678076","764864.095902","751031.574241","751798.508072","764106.821144"
"Mixed","both","done","40","F_priest.wav","space","444.810157642","344","760281.602067","752564.899","753331.157605","754098.789849","754865.292388","755631.630449","756381.011491","757148.052294","761048.619373","761797.805948","762564.539436","763331.149257","764097.678076","764864.095902","765631.079199","751798.508072","764872.80366"
"Mixed","both","done","40","M_park.wav","None","727.952816058","344","760281.602067","752564.899","753331.157605","754098.789849","754865.292388","755631.630449","756381.011491","757148.052294","761048.619373","761797.805948","762564.539436","763331.149257","764097.678076","764864.095902","765631.079199","766397.925226","765640.418591"
"Mixed","both","done","40","M_greet.wav","None","727.03334596","344","760281.602067","767164.460227","753331.157605","754098.789849","754865.292388","755631.630449","756381.011491","757148.052294","761048.619373","761797.805948","762564.539436","763331.149257","764097.678076","764864.095902","765631.079199","766397.925226","766406.972452"
"Mixed","both","done","40","F_done.wav","None","725.869013462","344","760281.602067","767164.460227","767930.985027","754098.789849","754865.292388","755631.630449","756381.011491","757148.052294","761048.619373","761797.805948","762564.539436","763331.149257","764097.678076","764864.095902","765631.079199","766397.925226","767174.091165"
"Mixed","both","done","40","F_priest.wav","space","369.406505488","344","760281.602067","767164.460227","767930.985027","768698.437334","754865.292388","755631.630449","756381.011491","757148.052294","761048.619373","761797.805948","762564.539436","763331.149257","764097.678076","764864.095902","765631.079199","766397.925226","767940.097488"
"Mixed","both","done","40","F_lash.wav","None","722.2535857","344","760281.602067","767164.460227","767930.985027","768698.437334","769464.964606","755631.630449","756381.011491","757148.052294","761048.619373","761797.805948","762564.539436","763331.149257","764097.678076","764864.095902","765631.079199","766397.925226","768708.204925"
"Mixed","both","done","40","M_bluff.wav","None","721.489318646","344","760281.602067","767164.460227","767930.985027","768698.437334","769464.964606","770231.328947","756381.011491","757148.052294","761048.619373","761797.805948","762564.539436","763331.149257","764097.678076","764864.095902","765631.079199","766397.925226","769474.583796"
"Mixed","both","done","40","F_park.wav","space","36.5963904187","344","760281.602067","767164.460227","767930.985027","768698.437334","769464.964606","770231.328947","770980.732558","757148.052294","761048.619373","761797.805948","762564.539436","763331.149257","764097.678076","764864.095902","765631.079199","766397.925226","770240.874245"
"Mixed","both","done","40","M_gnash.wav","None","735.663502011","344","760281.602067","767164.460227","767930.985027","768698.437334","769464.964606","770231.328947","770980.732558","771747.534683","761048.619373","761797.805948","762564.539436","763331.149257","764097.678076","764864.095902","765631.079199","766397.925226","770990.010116"
"Mixed","both","cave","23","F_gnash.wav","None","734.693637583","344","774881.350959","767164.460227","767930.985027","768698.437334","769464.964606","770231.328947","770980.732558","771747.534683","761048.619373","761797.805948","762564.539436","763331.149257","764097.678076","764864.095902","765631.079199","766397.925226","771756.971463"
"Mixed","both","cave","23","M_cave.wav","None","720.443398692","344","774881.350959","767164.460227","767930.985027","768698.437334","769464.964606","770231.328947","770980.732558","771747.534683","775647.904202","761797.805948","762564.539436","763331.149257","764097.678076","764864.095902","765631.079199","766397.925226","774891.096599"
"Mixed","both","cave","23","F_greet.wav","space","499.289837666","344","774881.350959","767164.460227","767930.985027","768698.437334","769464.964606","770231.328947","770980.732558","771747.534683","775647.904202","776397.781153","762564.539436","763331.149257","764097.678076","764864.095902","765631.079199","766397.925226","775658.008169"
"Mixed","both","cave","23","F_cave.wav","None","734.053347725","344","774881.350959","767164.460227","767930.985027","768698.437334","769464.964606","770231.328947","770980.732558","771747.534683","775647.904202","776397.781153","777164.294203","763331.149257","764097.678076","764864.095902","765631.079199","766397.925226","776406.663592"
"Mixed","both","cave","23","M_park.wav","space","559.508939739","344","774881.350959","767164.460227","767930.985027","768698.437334","769464.964606","770231.328947","770980.732558","771747.534683","775647.904202","776397.781153","777164.294203","777930.679567","764097.678076","764864.095902","765631.079199","766397.925226","777173.718616"
"Mixed","both","cave","23","M_romp.wav","None","730.014048982","344","774881.350959","767164.460227","767930.985027","768698.437334","769464.964606","770231.328947","770980.732558","771747.534683","775647.904202","776397.781153","777164.294203","777930.679567","778697.499314","764864.095902","765631.079199","766397.925226","777940.292264"
"Mixed","both","cave","23","M_reek.wav","None","728.838586714","344","774881.350959","767164.460227","767930.985027","768698.437334","769464.964606","770231.328947","770980.732558","771747.534683","775647.904202","776397.781153","777164.294203","777930.679567","778697.499314","779464.071107","765631.079199","766397.925226","778707.307097"
"Mixed","both","cave","23","M_greet.wav","None","728.406985756","344","774881.350959","767164.460227","767930.985027","768698.437334","769464.964606","770231.328947","770980.732558","771747.534683","775647.904202","776397.781153","777164.294203","777930.679567","778697.499314","779464.071107","780230.666396","766397.925226","779473.407097"
