"Condition","Talker","Target","Trial","current_stimulus","response_response","response_time_response","subject_nr","time_Audio1","time_Audio10","time_Audio11","time_Audio12","time_Audio13","time_Audio14","time_Audio15","time_Audio16","time_Audio2","time_Audio3","time_Audio4","time_Audio5","time_Audio6","time_Audio7","time_Audio8","time_Audio9","time_response"
"Blocked","Female","tile","13","F_cad.wav","NA","NA","310","7720.28572205","NA","NA","NA","NA","NA","NA","NA","NA","NA","NA","NA","NA","NA","NA","NA","NA"
"Blocked","Female","tile","13","F_tile.wav","None","716.246422846","310","7720.28572205","NA","NA","NA","NA","NA","NA","NA","8485.81190361","NA","NA","NA","NA","NA","NA","NA","7735.24117703"
"Blocked","Female","tile","13","F_jaw.wav","None","721.240746789","310","7720.28572205","NA","NA","NA","NA","NA","NA","NA","8485.81190361","9236.058312","NA","NA","NA","NA","NA","NA","8495.57238398"
"Blocked","Female","tile","13","F_gnash.wav","None","736.19774729","310","7720.28572205","NA","NA","NA","NA","NA","NA","NA","8485.81190361","9236.058312","10002.1808813","NA","NA","NA","NA","NA","9245.82744902"
"Blocked","Female","tile","13","F_gnash.wav","None","735.959686339","310","7720.28572205","NA","NA","NA","NA","NA","NA","NA","8485.81190361","9236.058312","10002.1808813","10769.211791","NA","NA","NA","NA","10011.510998"
"Blocked","Female","tile","13","F_jaw.wav","None","733.897217549","310","7720.28572205","NA","NA","NA","NA","NA","NA","NA","8485.81190361","9236.058312","10002.1808813","10769.211791","11535.6605346","NA","NA","NA","10778.8860127"
"Blocked","Female","tile","13","F_tile.wav","None","732.796264347","310","7720.28572205","NA","NA","NA","NA","NA","NA","NA","8485.81190361","9236.058312","10002.1808813","10769.211791","11535.6605346","12302.1791503","NA","NA","11544.7436245"
"Blocked","Female","tile","13","F_greet.wav","space","300.805819221","310","7720.28572205","NA","NA","NA","NA","NA","NA","NA","8485.81190361","9236.058312","10002.1808813","10769.211791","11535.6605346","12302.1791503","13069.054238","NA","12311.6143839"
"Blocked","Female","tile","13","F_dime.wav","None","729.756510351","310","7720.28572205","NA","NA","NA","NA","NA","NA","NA","8485.81190361","9236.058312","10002.1808813","10769.211791","11535.6605346","12302.1791503","13069.054238","13835.5796556","13078.3308684"
"Blocked","Female","tile","13","F_tile.wav","None","728.657412808","310","7720.28572205","14602.6402456","NA","NA","NA","NA","NA","NA","8485.81190361","9236.058312","10002.1808813","10769.211791","11535.6605346","12302.1791503","13069.054238","13835.5796556","13844.6411039"
"Blocked","Female","tile","13","F_greet.wav","space","435.331640299","310","7720.28572205","14602.6402456","15368.7934228","NA","NA","NA","NA","NA","8485.81190361","9236.058312","10002.1808813","10769.211791","11535.6605346","12302.1791503","13069.054238","13835.5796556","14648.9971159"
"Blocked","Female","tile","13","F_lash.wav","None","700.920892414","310","7720.28572205","14602.6402456","15368.7934228","16135.9071899","NA","NA","NA","NA","8485.81190361","9236.058312","10002.1808813","10769.211791","11535.6605346","12302.1791503","13069.054238","13835.5796556","15405.3412736"
"Blocked","Female","tile","13","F_cling.wav","None","722.666945308","310","7720.28572205","14602.6402456","15368.7934228","16135.9071899","16902.7603269","NA","NA","NA","8485.81190361","9236.058312","10002.1808813","10769.211791","11535.6605346","12302.1791503","13069.054238","13835.5796556","16148.9436296"
"Blocked","Female","tile","13","F_tile.wav","None","725.143702235","310","7720.28572205","14602.6402456","15368.7934228","16135.9071899","16902.7603269","17669.7216732","NA","NA","8485.81190361","9236.058312","10002.1808813","10769.211791","11535.6605346","12302.1791503","13069.054238","13835.5796556","16911.909888"
"Blocked","Female","tile","13","F_reek.wav","space","316.154228523","310","7720.28572205","14602.6402456","15368.7934228","16135.9071899","16902.7603269","17669.7216732","18436.6619959","NA","8485.81190361","9236.058312","10002.1808813","10769.211791","11535.6605346","12302.1791503","13069.054238","13835.5796556","17680.1215159"
"Blocked","Female","tile","13","F_priest.wav","None","721.440779045","310","7720.28572205","14602.6402456","15368.7934228","16135.9071899","16902.7603269","17669.7216732","18436.6619959","19203.2217314","8485.81190361","9236.058312","10002.1808813","10769.211791","11535.6605346","12302.1791503","13069.054238","13835.5796556","18446.5449075"
"Blocked","Female","ball","3","F_lash.wav","None","720.050753094","310","22336.5467377","14602.6402456","15368.7934228","16135.9071899","16902.7603269","17669.7216732","18436.6619959","19203.2217314","8485.81190361","9236.058312","10002.1808813","10769.211791","11535.6605346","12302.1791503","13069.054238","13835.5796556","19213.3318824"
"Blocked","Female","ball","3","F_ball.wav","None","721.495502163","310","22336.5467377","14602.6402456","15368.7934228","16135.9071899","16902.7603269","17669.7216732","18436.6619959","19203.2217314","23103.3015591","9236.058312","10002.1808813","10769.211791","11535.6605346","12302.1791503","13069.054238","13835.5796556","22346.3387531"
"Blocked","Female","ball","3","F_romp.wav","space","426.777848043","310","22336.5467377","14602.6402456","15368.7934228","16135.9071899","16902.7603269","17669.7216732","18436.6619959","19203.2217314","23103.3015591","23869.9834161","10002.1808813","10769.211791","11535.6605346","12302.1791503","13069.054238","13835.5796556","23113.3368909"
"Blocked","Female","ball","3","F_depth.wav","None","718.344137538","310","22336.5467377","14602.6402456","15368.7934228","16135.9071899","16902.7603269","17669.7216732","18436.6619959","19203.2217314","23103.3015591","23869.9834161","24619.3483821","10769.211791","11535.6605346","12302.1791503","13069.054238","13835.5796556","23880.2935998"
"Blocked","Female","ball","3","F_priest.wav","None","735.167285427","310","22336.5467377","14602.6402456","15368.7934228","16135.9071899","16902.7603269","17669.7216732","18436.6619959","19203.2217314","23103.3015591","23869.9834161","24619.3483821","25385.8737997","11535.6605346","12302.1791503","13069.054238","13835.5796556","24628.7678485"
"Blocked","Female","ball","3","F_knife.wav","None","733.931225725","310","22336.5467377","14602.6402456","15368.7934228","16135.9071899","16902.7603269","17669.7216732","18436.6619959","19203.2217314","23103.3015591","23869.9834161","24619.3483821","25385.8737997","26152.7569261","12302.1791503","13069.054238","13835.5796556","25395.3643749"
"Blocked","Female","ball","3","F_ball.wav","None","732.638897374","310","22336.5467377","14602.6402456","15368.7934228","16135.9071899","16902.7603269","17669.7216732","18436.6619959","19203.2217314","23103.3015591","23869.9834161","24619.3483821","25385.8737997","26152.7569261","26918.9314363","13069.054238","13835.5796556","26162.1838124"
"Blocked","Female","ball","3","F_bluff.wav","space","380.279687233","310","22336.5467377","14602.6402456","15368.7934228","16135.9071899","16902.7603269","17669.7216732","18436.6619959","19203.2217314","23103.3015591","23869.9834161","24619.3483821","25385.8737997","26152.7569261","26918.9314363","27685.4868429","13835.5796556","26927.7446209"
"Blocked","Female","ball","3","F_priest.wav","None","731.524959672","310","22336.5467377","14602.6402456","15368.7934228","16135.9071899","16902.7603269","17669.7216732","18436.6619959","19203.2217314","23103.3015591","23869.9834161","24619.3483821","25385.8737997","26152.7569261","26918.9314363","27685.4868429","28452.0453415","27694.1009229"
"Blocked","Female","ball","3","F_ball.wav","None","729.828547221","310","22336.5467377","29219.3217315","15368.7934228","16135.9071899","16902.7603269","17669.7216732","18436.6619959","19203.2217314","23103.3015591","23869.9834161","24619.3483821","25385.8737997","26152.7569261","26918.9314363","27685.4868429","28452.0453415","28461.1373972"
"Blocked","Female","ball","3","F_knife.wav","space","495.355347171","310","22336.5467377","29219.3217315","29985.4248236","16135.9071899","16902.7603269","17669.7216732","18436.6619959","19203.2217314","23103.3015591","23869.9834161","24619.3483821","25385.8737997","26152.7569261","26918.9314363","27685.4868429","28452.0453415","29228.5822849"
"Blocked","Female","ball","3","F_dime.wav","None","727.168762125","310","22336.5467377","29219.3217315","29985.4248236","30752.5222045","16902.7603269","17669.7216732","18436.6619959","19203.2217314","23103.3015591","23869.9834161","24619.3483821","25385.8737997","26152.7569261","26918.9314363","27685.4868429","28452.0453415","29994.2692346"
"Blocked","Female","ball","3","F_park.wav","None","724.395202938","310","22336.5467377","29219.3217315","29985.4248236","30752.5222045","31519.5936151","17669.7216732","18436.6619959","19203.2217314","23103.3015591","23869.9834161","24619.3483821","25385.8737997","26152.7569261","26918.9314363","27685.4868429","28452.0453415","30762.3432819"
"Blocked","Female","ball","3","F_ball.wav","None","722.548842896","310","22336.5467377","29219.3217315","29985.4248236","30752.5222045","31519.5936151","32286.000621","18436.6619959","19203.2217314","23103.3015591","23869.9834161","24619.3483821","25385.8737997","26152.7569261","26918.9314363","27685.4868429","28452.0453415","31529.5374328"
"Blocked","Female","ball","3","F_lash.wav","space","347.853993066","310","22336.5467377","29219.3217315","29985.4248236","30752.5222045","31519.5936151","32286.000621","33052.2536598","19203.2217314","23103.3015591","23869.9834161","24619.3483821","25385.8737997","26152.7569261","26918.9314363","27685.4868429","28452.0453415","32295.974737"
"Blocked","Female","ball","3","F_jaw.wav","None","721.451909747","310","22336.5467377","29219.3217315","29985.4248236","30752.5222045","31519.5936151","32286.000621","33052.2536598","33819.5686964","23103.3015591","23869.9834161","24619.3483821","25385.8737997","26152.7569261","26918.9314363","27685.4868429","28452.0453415","33061.0690089"
"Blocked","Female","ball","4","F_romp.wav","None","718.290342484","310","36935.8915458","29219.3217315","29985.4248236","30752.5222045","31519.5936151","32286.000621","33052.2536598","33819.5686964","23103.3015591","23869.9834161","24619.3483821","25385.8737997","26152.7569261","26918.9314363","27685.4868429","28452.0453415","33829.6457659"
"Blocked","Female","ball","4","F_ball.wav","None","721.516835038","310","36935.8915458","29219.3217315","29985.4248236","30752.5222045","31519.5936151","32286.000621","33052.2536598","33819.5686964","37702.0215355","23869.9834161","24619.3483821","25385.8737997","26152.7569261","26918.9314363","27685.4868429","28452.0453415","36945.8737005"
"Blocked","Female","ball","4","F_lash.wav","space","428.873090073","310","36935.8915458","29219.3217315","29985.4248236","30752.5222045","31519.5936151","32286.000621","33052.2536598","33819.5686964","37702.0215355","38469.7054108","24619.3483821","25385.8737997","26152.7569261","26918.9314363","27685.4868429","28452.0453415","37710.8211168"
"Blocked","Female","ball","4","F_cad.wav","None","718.728126027","310","36935.8915458","29219.3217315","29985.4248236","30752.5222045","31519.5936151","32286.000621","33052.2536598","33819.5686964","37702.0215355","38469.7054108","39218.8001629","25385.8737997","26152.7569261","26918.9314363","27685.4868429","28452.0453415","38479.3075966"
"Blocked","Female","ball","4","F_ball.wav","None","734.906655271","310","36935.8915458","29219.3217315","29985.4248236","30752.5222045","31519.5936151","32286.000621","33052.2536598","33819.5686964","37702.0215355","38469.7054108","39218.8001629","39985.582191","26152.7569261","26918.9314363","27685.4868429","28452.0453415","39228.6911127"
"Blocked","Female","ball","4","F_reek.wav","space","544.694157317","310","36935.8915458","29219.3217315","29985.4248236","30752.5222045","31519.5936151","32286.000621","33052.2536598","33819.5686964","37702.0215355","38469.7054108","39218.8001629","39985.582191","40752.1706787","26918.9314363","27685.4868429","28452.0453415","39994.9055053"
"Blocked","Female","ball","4","F_jaw.wav","None","732.761946972","310","36935.8915458","29219.3217315","29985.4248236","30752.5222045","31519.5936151","32286.000621","33052.2536598","33819.5686964","37702.0215355","38469.7054108","39218.8001629","39985.582191","40752.1706787","41518.9171527","27685.4868429","28452.0453415","40761.2120309"
"Blocked","Female","ball","4","F_ball.wav","None","731.464671902","310","36935.8915458","29219.3217315","29985.4248236","30752.5222045","31519.5936151","32286.000621","33052.2536598","33819.5686964","37702.0215355","38469.7054108","39218.8001629","39985.582191","40752.1706787","41518.9171527","42285.0823873","28452.0453415","41528.2315011"
"Blocked","Female","ball","4","F_romp.wav","space","349.469403271","310","36935.8915458","29219.3217315","29985.4248236","30752.5222045","31519.5936151","32286.000621","33052.2536598","33819.5686964","37702.0215355","38469.7054108","39218.8001629","39985.582191","40752.1706787","41518.9171527","42285.0823873","43051.6461418","42294.0813834"
"Blocked","Female","ball","4","F_jaw.wav","None","729.82545523","310","36935.8915458","43818.5088634","29985.4248236","30752.5222045","31519.5936151","32286.000621","33052.2536598","33819.5686964","37702.0215355","38469.7054108","39218.8001629","39985.582191","40752.1706787","41518.9171527","42285.0823873","43051.6461418","43060.7116092"
"Blocked","Female","ball","4","F_gnash.wav","None","728.548894171","310","36935.8915458","43818.5088634","44584.9588434","30752.5222045","31519.5936151","32286.000621","33052.2536598","33819.5686964","37702.0215355","38469.7054108","39218.8001629","39985.582191","40752.1706787","41518.9171527","42285.0823873","43051.6461418","43827.4565372"
"Blocked","Female","ball","4","F_ball.wav","None","727.839659899","310","36935.8915458","43818.5088634","44584.9588434","45351.5689732","31519.5936151","32286.000621","33052.2536598","33819.5686964","37702.0215355","38469.7054108","39218.8001629","39985.582191","40752.1706787","41518.9171527","42285.0823873","43051.6461418","44593.648979"
"Blocked","Female","ball","4","F_jaw.wav","space","290.792438667","310","36935.8915458","43818.5088634","44584.9588434","45351.5689732","46119.0460143","32286.000621","33052.2536598","33819.5686964","37702.0215355","38469.7054108","39218.8001629","39985.582191","40752.1706787","41518.9171527","42285.0823873","43051.6461418","45360.6072334"
"Blocked","Female","ball","4","F_cad.wav","None","721.606184728","310","36935.8915458","43818.5088634","44584.9588434","45351.5689732","46119.0460143","46885.6069865","33052.2536598","33819.5686964","37702.0215355","38469.7054108","39218.8001629","39985.582191","40752.1706787","41518.9171527","42285.0823873","43051.6461418","46130.527332"
"Blocked","Female","ball","4","F_lash.wav","None","722.033457365","310","36935.8915458","43818.5088634","44584.9588434","45351.5689732","46119.0460143","46885.6069865","47651.8306541","33819.5686964","37702.0215355","38469.7054108","39218.8001629","39985.582191","40752.1706787","41518.9171527","42285.0823873","43051.6461418","46895.5999617"
"Blocked","Female","ball","4","F_park.wav","None","722.659834195","310","36935.8915458","43818.5088634","44584.9588434","45351.5689732","46119.0460143","46885.6069865","47651.8306541","48419.131469","37702.0215355","38469.7054108","39218.8001629","39985.582191","40752.1706787","41518.9171527","42285.0823873","43051.6461418","47660.650332"
"Blocked","Female","cave","8","F_cad.wav","None","719.926157966","310","51535.4162906","43818.5088634","44584.9588434","45351.5689732","46119.0460143","46885.6069865","47651.8306541","48419.131469","37702.0215355","38469.7054108","39218.8001629","39985.582191","40752.1706787","41518.9171527","42285.0823873","43051.6461418","48428.9871734"
"Blocked","Female","cave","8","F_knife.wav","None","721.623498481","310","51535.4162906","43818.5088634","44584.9588434","45351.5689732","46119.0460143","46885.6069865","47651.8306541","48419.131469","52302.301581","38469.7054108","39218.8001629","39985.582191","40752.1706787","41518.9171527","42285.0823873","43051.6461418","51545.4797568"
"Blocked","Female","cave","8","F_knife.wav","None","720.371671021","310","51535.4162906","43818.5088634","44584.9588434","45351.5689732","46119.0460143","46885.6069865","47651.8306541","48419.131469","52302.301581","53069.1649211","39218.8001629","39985.582191","40752.1706787","41518.9171527","42285.0823873","43051.6461418","52312.3842161"
"Blocked","Female","cave","8","F_cave.wav","None","719.238874502","310","51535.4162906","43818.5088634","44584.9588434","45351.5689732","46119.0460143","46885.6069865","47651.8306541","48419.131469","52302.301581","53069.1649211","53818.5008247","39985.582191","40752.1706787","41518.9171527","42285.0823873","43051.6461418","53078.7949315"
"Blocked","Female","cave","8","F_jolt.wav","space","487.845002208","310","51535.4162906","43818.5088634","44584.9588434","45351.5689732","46119.0460143","46885.6069865","47651.8306541","48419.131469","52302.301581","53069.1649211","53818.5008247","54585.2287482","40752.1706787","41518.9171527","42285.0823873","43051.6461418","53827.3467817"
"Blocked","Female","cave","8","F_lash.wav","None","733.836928848","310","51535.4162906","43818.5088634","44584.9588434","45351.5689732","46119.0460143","46885.6069865","47651.8306541","48419.131469","52302.301581","53069.1649211","53818.5008247","54585.2287482","55351.7343788","41518.9171527","42285.0823873","43051.6461418","54594.6262637"
"Blocked","Female","cave","8","F_dime.wav","None","732.539344579","310","51535.4162906","43818.5088634","44584.9588434","45351.5689732","46119.0460143","46885.6069865","47651.8306541","48419.131469","52302.301581","53069.1649211","53818.5008247","54585.2287482","55351.7343788","56118.4555008","42285.0823873","43051.6461418","55361.3745924"
"Blocked","Female","cave","8","F_cling.wav","None","731.395727023","310","51535.4162906","43818.5088634","44584.9588434","45351.5689732","46119.0460143","46885.6069865","47651.8306541","48419.131469","52302.301581","53069.1649211","53818.5008247","54585.2287482","55351.7343788","56118.4555008","56885.0733596","43051.6461418","56127.7639749"
"Blocked","Female","cave","8","F_dime.wav","None","730.458016042","310","51535.4162906","43818.5088634","44584.9588434","45351.5689732","46119.0460143","46885.6069865","47651.8306541","48419.131469","52302.301581","53069.1649211","53818.5008247","54585.2287482","55351.7343788","56118.4555008","56885.0733596","57651.8402384","56894.2801175"
"Blocked","Female","cave","8","F_cad.wav","None","728.89671009","310","51535.4162906","58418.473247","44584.9588434","45351.5689732","46119.0460143","46885.6069865","47651.8306541","48419.131469","52302.301581","53069.1649211","53818.5008247","54585.2287482","55351.7343788","56118.4555008","56885.0733596","57651.8402384","57661.269289"
"Blocked","Female","cave","8","F_cave.wav","None","727.755256463","310","51535.4162906","58418.473247","59185.1300616","45351.5689732","46119.0460143","46885.6069865","47651.8306541","48419.131469","52302.301581","53069.1649211","53818.5008247","54585.2287482","55351.7343788","56118.4555008","56885.0733596","57651.8402384","58427.9709333"
"Blocked","Female","cave","8","F_gnash.wav","space","504.515729379","310","51535.4162906","58418.473247","59185.1300616","59951.648368","46119.0460143","46885.6069865","47651.8306541","48419.131469","52302.301581","53069.1649211","53818.5008247","54585.2287482","55351.7343788","56118.4555008","56885.0733596","57651.8402384","59194.5408708"
"Blocked","Female","cave","8","F_cave.wav","None","725.704844575","310","51535.4162906","58418.473247","59185.1300616","59951.648368","60718.2510779","46885.6069865","47651.8306541","48419.131469","52302.301581","53069.1649211","53818.5008247","54585.2287482","55351.7343788","56118.4555008","56885.0733596","57651.8402384","59961.0492843"
"Blocked","Female","cave","8","F_jaw.wav","None","724.922027439","310","51535.4162906","58418.473247","59185.1300616","59951.648368","60718.2510779","61485.0878287","47651.8306541","48419.131469","52302.301581","53069.1649211","53818.5008247","54585.2287482","55351.7343788","56118.4555008","56885.0733596","57651.8402384","60727.551823"
"Blocked","Female","cave","8","F_cave.wav","space","36.1273805611","310","51535.4162906","58418.473247","59185.1300616","59951.648368","60718.2510779","61485.0878287","62251.9109766","48419.131469","52302.301581","53069.1649211","53818.5008247","54585.2287482","55351.7343788","56118.4555008","56885.0733596","57651.8402384","61494.8616032"
"Blocked","Female","cave","8","F_dime.wav","space","637.473751325","310","51535.4162906","58418.473247","59185.1300616","59951.648368","60718.2510779","61485.0878287","62251.9109766","63017.9556352","52302.301581","53069.1649211","53818.5008247","54585.2287482","55351.7343788","56118.4555008","56885.0733596","57651.8402384","62261.4819361"
"Blocked","Female","done","19","F_gnash.wav","None","721.698317211","310","66135.0161633","58418.473247","59185.1300616","59951.648368","60718.2510779","61485.0878287","62251.9109766","63017.9556352","52302.301581","53069.1649211","53818.5008247","54585.2287482","55351.7343788","56118.4555008","56885.0733596","57651.8402384","63026.8686824"
"Blocked","Female","done","19","F_done.wav","None","721.964821685","310","66135.0161633","58418.473247","59185.1300616","59951.648368","60718.2510779","61485.0878287","62251.9109766","63017.9556352","66901.6420608","53069.1649211","53818.5008247","54585.2287482","55351.7343788","56118.4555008","56885.0733596","57651.8402384","66144.4059494"
"Blocked","Female","done","19","F_cad.wav","space","411.357711535","310","66135.0161633","58418.473247","59185.1300616","59951.648368","60718.2510779","61485.0878287","62251.9109766","63017.9556352","66901.6420608","67667.8317203","53818.5008247","54585.2287482","55351.7343788","56118.4555008","56885.0733596","57651.8402384","66911.4526268"
"Blocked","Female","done","19","F_romp.wav","None","720.365178771","310","66135.0161633","58418.473247","59185.1300616","59951.648368","60718.2510779","61485.0878287","62251.9109766","63017.9556352","66901.6420608","67667.8317203","68417.8069867","54585.2287482","55351.7343788","56118.4555008","56885.0733596","57651.8402384","67676.8365903"
"Blocked","Female","done","19","F_park.wav","None","735.502425116","310","66135.0161633","58418.473247","59185.1300616","59951.648368","60718.2510779","61485.0878287","62251.9109766","63017.9556352","66901.6420608","67667.8317203","68417.8069867","69184.5203792","55351.7343788","56118.4555008","56885.0733596","57651.8402384","68427.1661649"
"Blocked","Female","done","19","F_done.wav","None","734.522666782","310","66135.0161633","58418.473247","59185.1300616","59951.648368","60718.2510779","61485.0878287","62251.9109766","63017.9556352","66901.6420608","67667.8317203","68417.8069867","69184.5203792","69951.2300617","56118.4555008","56885.0733596","57651.8402384","69194.2567443"
"Blocked","Female","done","19","F_bluff.wav","space","330.449915957","310","66135.0161633","58418.473247","59185.1300616","59951.648368","60718.2510779","61485.0878287","62251.9109766","63017.9556352","66901.6420608","67667.8317203","68417.8069867","69184.5203792","69951.2300617","70718.0380602","56885.0733596","57651.8402384","69960.2745054"
"Blocked","Female","done","19","F_done.wav","None","732.188128401","310","66135.0161633","58418.473247","59185.1300616","59951.648368","60718.2510779","61485.0878287","62251.9109766","63017.9556352","66901.6420608","67667.8317203","68417.8069867","69184.5203792","69951.2300617","70718.0380602","71484.4849482","57651.8402384","70727.2438901"
"Blocked","Female","done","19","F_jolt.wav","space","380.610498134","310","66135.0161633","58418.473247","59185.1300616","59951.648368","60718.2510779","61485.0878287","62251.9109766","63017.9556352","66901.6420608","67667.8317203","68417.8069867","69184.5203792","69951.2300617","70718.0380602","71484.4849482","72250.790237","71494.077859"
"Blocked","Female","done","19","F_park.wav","None","730.497280601","310","66135.0161633","73017.5404209","59185.1300616","59951.648368","60718.2510779","61485.0878287","62251.9109766","63017.9556352","66901.6420608","67667.8317203","68417.8069867","69184.5203792","69951.2300617","70718.0380602","71484.4849482","72250.790237","72259.7332732"
"Blocked","Female","done","19","F_done.wav","None","729.138480499","310","66135.0161633","73017.5404209","73784.5738037","59951.648368","60718.2510779","61485.0878287","62251.9109766","63017.9556352","66901.6420608","67667.8317203","68417.8069867","69184.5203792","69951.2300617","70718.0380602","71484.4849482","72250.790237","73026.6974024"
"Blocked","Female","done","19","F_cad.wav","space","368.643475696","310","66135.0161633","73017.5404209","73784.5738037","74551.2649361","60718.2510779","61485.0878287","62251.9109766","63017.9556352","66901.6420608","67667.8317203","68417.8069867","69184.5203792","69951.2300617","70718.0380602","71484.4849482","72250.790237","73793.9598798"
"Blocked","Female","done","19","F_cling.wav","None","725.261495449","310","66135.0161633","73017.5404209","73784.5738037","74551.2649361","75318.2810056","61485.0878287","62251.9109766","63017.9556352","66901.6420608","67667.8317203","68417.8069867","69184.5203792","69951.2300617","70718.0380602","71484.4849482","72250.790237","74560.7397435"
"Blocked","Female","done","19","F_dime.wav","None","723.011978436","310","66135.0161633","73017.5404209","73784.5738037","74551.2649361","75318.2810056","76084.1590217","62251.9109766","63017.9556352","66901.6420608","67667.8317203","68417.8069867","69184.5203792","69951.2300617","70718.0380602","71484.4849482","72250.790237","75328.4307299"
"Blocked","Female","done","19","F_park.wav","space","389.367414173","310","66135.0161633","73017.5404209","73784.5738037","74551.2649361","75318.2810056","76084.1590217","76851.568664","63017.9556352","66901.6420608","67667.8317203","68417.8069867","69184.5203792","69951.2300617","70718.0380602","71484.4849482","72250.790237","76093.1740948"
"Blocked","Female","done","19","F_park.wav","None","720.5138891","310","66135.0161633","73017.5404209","73784.5738037","74551.2649361","75318.2810056","76084.1590217","76851.568664","77618.175393","66901.6420608","67667.8317203","68417.8069867","69184.5203792","69951.2300617","70718.0380602","71484.4849482","72250.790237","76861.8442207"
"Blocked","Female","tile","16","F_knife.wav","None","719.66521861","310","80734.5977952","73017.5404209","73784.5738037","74551.2649361","75318.2810056","76084.1590217","76851.568664","77618.175393","66901.6420608","67667.8317203","68417.8069867","69184.5203792","69951.2300617","70718.0380602","71484.4849482","72250.790237","77628.6707693"
"Blocked","Female","tile","16","F_dime.wav","None","721.79663321","310","80734.5977952","73017.5404209","73784.5738037","74551.2649361","75318.2810056","76084.1590217","76851.568664","77618.175393","81500.6875931","67667.8317203","68417.8069867","69184.5203792","69951.2300617","70718.0380602","71484.4849482","72250.790237","80744.4921457"
"Blocked","Female","tile","16","F_jaw.wav","None","722.591816913","310","80734.5977952","73017.5404209","73784.5738037","74551.2649361","75318.2810056","76084.1590217","76851.568664","77618.175393","81500.6875931","82268.2808819","68417.8069867","69184.5203792","69951.2300617","70718.0380602","71484.4849482","72250.790237","81509.4064814"
"Blocked","Female","tile","16","F_tile.wav","None","719.705411233","310","80734.5977952","73017.5404209","73784.5738037","74551.2649361","75318.2810056","76084.1590217","76851.568664","77618.175393","81500.6875931","82268.2808819","83034.5193897","69184.5203792","69951.2300617","70718.0380602","71484.4849482","72250.790237","82278.0160098"
"Blocked","Female","tile","16","F_gnash.wav","space","341.790870298","310","80734.5977952","73017.5404209","73784.5738037","74551.2649361","75318.2810056","76084.1590217","76851.568664","77618.175393","81500.6875931","82268.2808819","83034.5193897","83783.6308368","69951.2300617","70718.0380602","71484.4849482","72250.790237","83044.5327708"
"Blocked","Female","tile","16","F_cling.wav","None","736.332545057","310","80734.5977952","73017.5404209","73784.5738037","74551.2649361","75318.2810056","76084.1590217","76851.568664","77618.175393","81500.6875931","82268.2808819","83034.5193897","83783.6308368","84550.757898","70718.0380602","71484.4849482","72250.790237","83792.3648744"
"Blocked","Female","tile","16","F_lash.wav","None","734.573370777","310","80734.5977952","73017.5404209","73784.5738037","74551.2649361","75318.2810056","76084.1590217","76851.568664","77618.175393","81500.6875931","82268.2808819","83034.5193897","83783.6308368","84550.757898","85317.2919722","71484.4849482","72250.790237","84559.8131628"
"Blocked","Female","tile","16","F_tile.wav","None","733.646790031","310","80734.5977952","73017.5404209","73784.5738037","74551.2649361","75318.2810056","76084.1590217","76851.568664","77618.175393","81500.6875931","82268.2808819","83034.5193897","83783.6308368","84550.757898","85317.2919722","86084.1862289","72250.790237","85326.3617679"
"Blocked","Female","tile","16","F_reek.wav","space","380.795381498","310","80734.5977952","73017.5404209","73784.5738037","74551.2649361","75318.2810056","76084.1590217","76851.568664","77618.175393","81500.6875931","82268.2808819","83034.5193897","83783.6308368","84550.757898","85317.2919722","86084.1862289","86850.8059429","86093.4443087"
"Blocked","Female","tile","16","F_romp.wav","None","730.790991802","310","80734.5977952","87617.6392934","73784.5738037","74551.2649361","75318.2810056","76084.1590217","76851.568664","77618.175393","81500.6875931","82268.2808819","83034.5193897","83783.6308368","84550.757898","85317.2919722","86084.1862289","86850.8059429","86860.4276059"
"Blocked","Female","tile","16","F_gnash.wav","None","730.36062764","310","80734.5977952","87617.6392934","88384.2191244","74551.2649361","75318.2810056","76084.1590217","76851.568664","77618.175393","81500.6875931","82268.2808819","83034.5193897","83783.6308368","84550.757898","85317.2919722","86084.1862289","86850.8059429","87626.6491101"
"Blocked","Female","tile","16","F_tile.wav","None","729.076646734","310","80734.5977952","87617.6392934","88384.2191244","89150.9668347","75318.2810056","76084.1590217","76851.568664","77618.175393","81500.6875931","82268.2808819","83034.5193897","83783.6308368","84550.757898","85317.2919722","86084.1862289","86850.8059429","88393.7032074"
"Blocked","Female","tile","16","F_jolt.wav","space","377.784998622","310","80734.5977952","87617.6392934","88384.2191244","89150.9668347","89917.1385625","76084.1590217","76851.568664","77618.175393","81500.6875931","82268.2808819","83034.5193897","83783.6308368","84550.757898","85317.2919722","86084.1862289","86850.8059429","89160.3352879"
"Blocked","Female","tile","16","F_tile.wav","None","727.444850374","310","80734.5977952","87617.6392934","88384.2191244","89150.9668347","89917.1385625","90684.105474","76851.568664","77618.175393","81500.6875931","82268.2808819","83034.5193897","83783.6308368","84550.757898","85317.2919722","86084.1862289","86850.8059429","89926.2785395"
"Blocked","Female","tile","16","F_bluff.wav","space","708.641163073","310","80734.5977952","87617.6392934","88384.2191244","89150.9668347","89917.1385625","90684.105474","91451.1620444","77618.175393","81500.6875931","82268.2808819","83034.5193897","83783.6308368","84550.757898","85317.2919722","86084.1862289","86850.8059429","90693.422914"
"Blocked","Female","tile","16","F_greet.wav","None","723.062064033","310","80734.5977952","87617.6392934","88384.2191244","89150.9668347","89917.1385625","90684.105474","91451.1620444","92217.8457566","81500.6875931","82268.2808819","83034.5193897","83783.6308368","84550.757898","85317.2919722","86084.1862289","86850.8059429","91461.2746686"
"Blocked","Female","done","22","F_lash.wav","None","722.664162982","310","95351.0031933","87617.6392934","88384.2191244","89150.9668347","89917.1385625","90684.105474","91451.1620444","92217.8457566","81500.6875931","82268.2808819","83034.5193897","83783.6308368","84550.757898","85317.2919722","86084.1862289","86850.8059429","92227.6173667"
"Blocked","Female","done","22","F_jolt.wav","None","721.689351369","310","95351.0031933","87617.6392934","88384.2191244","89150.9668347","89917.1385625","90684.105474","91451.1620444","92217.8457566","96116.8948133","82268.2808819","83034.5193897","83783.6308368","84550.757898","85317.2919722","86084.1862289","86850.8059429","95360.8910511"
"Blocked","Female","done","22","F_done.wav","None","722.574812826","310","95351.0031933","87617.6392934","88384.2191244","89150.9668347","89917.1385625","90684.105474","91451.1620444","92217.8457566","96116.8948133","96884.0997852","83034.5193897","83783.6308368","84550.757898","85317.2919722","86084.1862289","86850.8059429","96125.8332119"
"Blocked","Female","done","22","F_priest.wav","space","395.805559587","310","95351.0031933","87617.6392934","88384.2191244","89150.9668347","89917.1385625","90684.105474","91451.1620444","92217.8457566","96116.8948133","96884.0997852","97633.9711705","83783.6308368","84550.757898","85317.2919722","86084.1862289","86850.8059429","96894.1292427"
"Blocked","Female","done","22","F_gnash.wav","None","735.633512959","310","95351.0031933","87617.6392934","88384.2191244","89150.9668347","89917.1385625","90684.105474","91451.1620444","92217.8457566","96116.8948133","96884.0997852","97633.9711705","98400.06406","84550.757898","85317.2919722","86084.1862289","86850.8059429","97643.3439525"
"Blocked","Female","done","22","F_cling.wav","None","734.759181738","310","95351.0031933","87617.6392934","88384.2191244","89150.9668347","89917.1385625","90684.105474","91451.1620444","92217.8457566","96116.8948133","96884.0997852","97633.9711705","98400.06406","99166.6540937","85317.2919722","86084.1862289","86850.8059429","98410.0125153"
"Blocked","Female","done","22","F_lash.wav","None","735.222935677","310","95351.0031933","87617.6392934","88384.2191244","89150.9668347","89917.1385625","90684.105474","91451.1620444","92217.8457566","96116.8948133","96884.0997852","97633.9711705","98400.06406","99166.6540937","99933.6973699","86084.1862289","86850.8059429","99175.4045174"
"Blocked","Female","done","22","F_done.wav","None","733.596086036","310","95351.0031933","87617.6392934","88384.2191244","89150.9668347","89917.1385625","90684.105474","91451.1620444","92217.8457566","96116.8948133","96884.0997852","97633.9711705","98400.06406","99166.6540937","99933.6973699","100700.513716","86850.8059429","99943.0367616"
"Blocked","Female","done","22","F_greet.wav","space","347.815964837","310","95351.0031933","87617.6392934","88384.2191244","89150.9668347","89917.1385625","90684.105474","91451.1620444","92217.8457566","96116.8948133","96884.0997852","97633.9711705","98400.06406","99166.6540937","99933.6973699","100700.513716","101467.064176","100709.970283"
"Blocked","Female","done","22","F_jaw.wav","None","730.900128372","310","95351.0031933","102233.760873","88384.2191244","89150.9668347","89917.1385625","90684.105474","91451.1620444","92217.8457566","96116.8948133","96884.0997852","97633.9711705","98400.06406","99166.6540937","99933.6973699","100700.513716","101467.064176","101476.44747"
"Blocked","Female","done","22","F_done.wav","None","729.621403385","310","95351.0031933","102233.760873","103000.329575","89150.9668347","89917.1385625","90684.105474","91451.1620444","92217.8457566","96116.8948133","96884.0997852","97633.9711705","98400.06406","99166.6540937","99933.6973699","100700.513716","101467.064176","102243.406034"
"Blocked","Female","done","22","F_jolt.wav","space","368.143239524","310","95351.0031933","102233.760873","103000.329575","103767.119023","89917.1385625","90684.105474","91451.1620444","92217.8457566","96116.8948133","96884.0997852","97633.9711705","98400.06406","99166.6540937","99933.6973699","100700.513716","101467.064176","103009.594765"
"Blocked","Female","done","22","F_knife.wav","None","727.545021102","310","95351.0031933","102233.760873","103000.329575","103767.119023","104533.11947","90684.105474","91451.1620444","92217.8457566","96116.8948133","96884.0997852","97633.9711705","98400.06406","99166.6540937","99933.6973699","100700.513716","101467.064176","103776.342476"
"Blocked","Female","done","22","F_reek.wav","None","728.081121109","310","95351.0031933","102233.760873","103000.329575","103767.119023","104533.11947","105299.802565","91451.1620444","92217.8457566","96116.8948133","96884.0997852","97633.9711705","98400.06406","99166.6540937","99933.6973699","100700.513716","101467.064176","104541.749009"
"Blocked","Female","done","22","F_done.wav","None","727.032109164","310","95351.0031933","102233.760873","103000.329575","103767.119023","104533.11947","105299.802565","106066.922206","92217.8457566","96116.8948133","96884.0997852","97633.9711705","98400.06406","99166.6540937","99933.6973699","100700.513716","101467.064176","105308.783629"
"Blocked","Female","done","22","F_cad.wav","space","340.81265796","310","95351.0031933","102233.760873","103000.329575","103767.119023","104533.11947","105299.802565","106066.922206","106834.002582","96116.8948133","96884.0997852","97633.9711705","98400.06406","99166.6540937","99933.6973699","100700.513716","101467.064176","106076.838817"
"Blocked","Female","tile","15","F_jolt.wav","None","723.109676037","310","109967.301309","102233.760873","103000.329575","103767.119023","104533.11947","105299.802565","106066.922206","106834.002582","96116.8948133","96884.0997852","97633.9711705","98400.06406","99166.6540937","99933.6973699","100700.513716","101467.064176","106843.787796"
"Blocked","Female","tile","15","F_tile.wav","None","721.625353675","310","109967.301309","102233.760873","103000.329575","103767.119023","104533.11947","105299.802565","106066.922206","106834.002582","110733.239305","96884.0997852","97633.9711705","98400.06406","99166.6540937","99933.6973699","100700.513716","101467.064176","109977.657559"
"Blocked","Female","tile","15","F_priest.wav","space","395.186602604","310","109967.301309","102233.760873","103000.329575","103767.119023","104533.11947","105299.802565","106066.922206","106834.002582","110733.239305","111500.456952","97633.9711705","98400.06406","99166.6540937","99933.6973699","100700.513716","101467.064176","110742.266435"
"Blocked","Female","tile","15","F_reek.wav","None","721.299798228","310","109967.301309","102233.760873","103000.329575","103767.119023","104533.11947","105299.802565","106066.922206","106834.002582","110733.239305","111500.456952","112267.396966","98400.06406","99166.6540937","99933.6973699","100700.513716","101467.064176","111509.602804"
"Blocked","Female","tile","15","F_tile.wav","None","719.316785224","310","109967.301309","102233.760873","103000.329575","103767.119023","104533.11947","105299.802565","106066.922206","106834.002582","110733.239305","111500.456952","112267.396966","113033.04125","99166.6540937","99933.6973699","100700.513716","101467.064176","112277.598631"
"Blocked","Female","tile","15","F_cling.wav","space","383.315112907","310","109967.301309","102233.760873","103000.329575","103767.119023","104533.11947","105299.802565","106066.922206","106834.002582","110733.239305","111500.456952","112267.396966","113033.04125","113782.967359","99933.6973699","100700.513716","101467.064176","113042.101153"
"Blocked","Female","tile","15","F_greet.wav","None","735.198820475","310","109967.301309","102233.760873","103000.329575","103767.119023","104533.11947","105299.802565","106066.922206","106834.002582","110733.239305","111500.456952","112267.396966","113033.04125","113782.967359","114549.45413","100700.513716","101467.064176","113792.619321"
"Blocked","Female","tile","15","F_park.wav","None","735.563331749","310","109967.301309","102233.760873","103000.329575","103767.119023","104533.11947","105299.802565","106066.922206","106834.002582","110733.239305","111500.456952","112267.396966","113033.04125","113782.967359","114549.45413","115316.26522","101467.064176","114558.216921"
"Blocked","Female","tile","15","F_dime.wav","None","734.204840846","310","109967.301309","102233.760873","103000.329575","103767.119023","104533.11947","105299.802565","106066.922206","106834.002582","110733.239305","111500.456952","112267.396966","113033.04125","113782.967359","114549.45413","115316.26522","116083.102281","115325.429931"
"Blocked","Female","tile","15","F_tile.wav","space","396.825200412","310","109967.301309","116849.440341","103000.329575","103767.119023","104533.11947","105299.802565","106066.922206","106834.002582","110733.239305","111500.456952","112267.396966","113033.04125","113782.967359","114549.45413","115316.26522","116083.102281","116092.510617"
"Blocked","Female","tile","15","F_romp.wav","space","631.175660528","310","109967.301309","116849.440341","117616.301208","103767.119023","104533.11947","105299.802565","106066.922206","106834.002582","110733.239305","111500.456952","112267.396966","113033.04125","113782.967359","114549.45413","115316.26522","116083.102281","116858.14408"
"Blocked","Female","tile","15","F_tile.wav","None","731.115001254","310","109967.301309","116849.440341","117616.301208","118382.600931","104533.11947","105299.802565","106066.922206","106834.002582","110733.239305","111500.456952","112267.396966","113033.04125","113782.967359","114549.45413","115316.26522","116083.102281","117625.194158"
"Blocked","Female","tile","15","F_cad.wav","space","657.522773836","310","109967.301309","116849.440341","117616.301208","118382.600931","119149.977183","105299.802565","106066.922206","106834.002582","110733.239305","111500.456952","112267.396966","113033.04125","113782.967359","114549.45413","115316.26522","116083.102281","118391.7069"
"Blocked","Female","tile","15","F_jolt.wav","None","728.951124009","310","109967.301309","116849.440341","117616.301208","118382.600931","119149.977183","119916.367494","106066.922206","106834.002582","110733.239305","111500.456952","112267.396966","113033.04125","113782.967359","114549.45413","115316.26522","116083.102281","119159.411799"
"Blocked","Female","tile","15","F_jaw.wav","None","728.551986162","310","109967.301309","116849.440341","117616.301208","118382.600931","119149.977183","119916.367494","120682.937741","106834.002582","110733.239305","111500.456952","112267.396966","113033.04125","113782.967359","114549.45413","115316.26522","116083.102281","119925.740585"
"Blocked","Female","tile","15","F_priest.wav","None","727.819563355","310","109967.301309","116849.440341","117616.301208","118382.600931","119149.977183","119916.367494","120682.937741","121449.778511","110733.239305","111500.456952","112267.396966","113033.04125","113782.967359","114549.45413","115316.26522","116083.102281","120692.405747"
"Blocked","Female","cave","7","F_priest.wav","None","732.681562658","310","124582.774561","116849.440341","117616.301208","118382.600931","119149.977183","119916.367494","120682.937741","121449.778511","110733.239305","111500.456952","112267.396966","113033.04125","113782.967359","114549.45413","115316.26522","116083.102281","121453.56831"
"Blocked","Female","cave","7","F_cling.wav","None","723.216957878","310","124582.774561","116849.440341","117616.301208","118382.600931","119149.977183","119916.367494","120682.937741","121449.778511","125349.794031","111500.456952","112267.396966","113033.04125","113782.967359","114549.45413","115316.26522","116083.102281","124591.609697"
"Blocked","Female","cave","7","F_bluff.wav","None","720.630136784","310","124582.774561","116849.440341","117616.301208","118382.600931","119149.977183","119916.367494","120682.937741","121449.778511","125349.794031","126116.814738","112267.396966","113033.04125","113782.967359","114549.45413","115316.26522","116083.102281","125360.11349"
"Blocked","Female","cave","7","F_cad.wav","None","719.362232834","310","124582.774561","116849.440341","117616.301208","118382.600931","119149.977183","119916.367494","120682.937741","121449.778511","125349.794031","126116.814738","126882.990485","113033.04125","113782.967359","114549.45413","115316.26522","116083.102281","126127.275797"
"Blocked","Female","cave","7","F_cave.wav","None","720.01952678","310","124582.774561","116849.440341","117616.301208","118382.600931","119149.977183","119916.367494","120682.937741","121449.778511","125349.794031","126116.814738","126882.990485","127649.94503","113782.967359","114549.45413","115316.26522","116083.102281","126892.556498"
"Blocked","Female","cave","7","F_depth.wav","space","573.323868681","310","124582.774561","116849.440341","117616.301208","118382.600931","119149.977183","119916.367494","120682.937741","121449.778511","125349.794031","126116.814738","126882.990485","127649.94503","128399.507555","114549.45413","115316.26522","116083.102281","127659.66841"
"Blocked","Female","cave","7","F_cave.wav","None","734.560695011","310","124582.774561","116849.440341","117616.301208","118382.600931","119149.977183","119916.367494","120682.937741","121449.778511","125349.794031","126116.814738","126882.990485","127649.94503","128399.507555","129165.749155","115316.26522","116083.102281","128408.991947"
"Blocked","Female","cave","7","F_reek.wav","space","522.080265451","310","124582.774561","116849.440341","117616.301208","118382.600931","119149.977183","119916.367494","120682.937741","121449.778511","125349.794031","126116.814738","126882.990485","127649.94503","128399.507555","129165.749155","129932.849937","116083.102281","129174.840592"
"Blocked","Female","cave","7","F_gnash.wav","None","732.478129677","310","124582.774561","116849.440341","117616.301208","118382.600931","119149.977183","119916.367494","120682.937741","121449.778511","125349.794031","126116.814738","126882.990485","127649.94503","128399.507555","129165.749155","129932.849937","130699.485418","129942.57208"
"Blocked","Female","cave","7","F_priest.wav","None","731.727775186","310","124582.774561","131466.28105","117616.301208","118382.600931","119149.977183","119916.367494","120682.937741","121449.778511","125349.794031","126116.814738","126882.990485","127649.94503","128399.507555","129165.749155","129932.849937","130699.485418","130709.115429"
"Blocked","Female","cave","7","F_cave.wav","None","731.277006213","310","124582.774561","131466.28105","132232.811105","118382.600931","119149.977183","119916.367494","120682.937741","121449.778511","125349.794031","126116.814738","126882.990485","127649.94503","128399.507555","129165.749155","129932.849937","130699.485418","131475.728032"
"Blocked","Female","cave","7","F_bluff.wav","space","462.472391315","310","124582.774561","131466.28105","132232.811105","132999.374241","119149.977183","119916.367494","120682.937741","121449.778511","125349.794031","126116.814738","126882.990485","127649.94503","128399.507555","129165.749155","129932.849937","130699.485418","132242.365678"
"Blocked","Female","cave","7","F_dime.wav","None","728.490461595","310","124582.774561","131466.28105","132232.811105","132999.374241","133766.293849","119916.367494","120682.937741","121449.778511","125349.794031","126116.814738","126882.990485","127649.94503","128399.507555","129165.749155","129932.849937","130699.485418","133009.412974"
"Blocked","Female","cave","7","F_gnash.wav","None","728.109255433","310","124582.774561","131466.28105","132232.811105","132999.374241","133766.293849","134532.716004","120682.937741","121449.778511","125349.794031","126116.814738","126882.990485","127649.94503","128399.507555","129165.749155","129932.849937","130699.485418","133775.84224"
"Blocked","Female","cave","7","F_cave.wav","None","727.863465901","310","124582.774561","131466.28105","132232.811105","132999.374241","133766.293849","134532.716004","135298.863308","121449.778511","125349.794031","126116.814738","126882.990485","127649.94503","128399.507555","129165.749155","129932.849937","130699.485418","134542.000364"
"Blocked","Female","cave","7","F_gnash.wav","space","540.874677245","310","124582.774561","131466.28105","132232.811105","132999.374241","133766.293849","134532.716004","135298.863308","136065.636679","125349.794031","126116.814738","126882.990485","127649.94503","128399.507555","129165.749155","129932.849937","130699.485418","135307.884254"
"Blocked","Female","cave","12","F_priest.wav","None","725.822329056","310","139199.727807","131466.28105","132232.811105","132999.374241","133766.293849","134532.716004","135298.863308","136065.636679","125349.794031","126116.814738","126882.990485","127649.94503","128399.507555","129165.749155","129932.849937","130699.485418","136074.873426"
"Blocked","Female","cave","12","F_bluff.wav","None","721.558263525","310","139199.727807","131466.28105","132232.811105","132999.374241","133766.293849","134532.716004","135298.863308","136065.636679","139966.725017","126116.814738","126882.990485","127649.94503","128399.507555","129165.749155","129932.849937","130699.485418","139209.667297"
"Blocked","Female","cave","12","F_cave.wav","None","721.012579743","310","139199.727807","131466.28105","132232.811105","132999.374241","133766.293849","134532.716004","135298.863308","136065.636679","139966.725017","140732.272841","126882.990485","127649.94503","128399.507555","129165.749155","129932.849937","130699.485418","139976.155923"
"Blocked","Female","cave","12","F_park.wav","space","515.440850984","310","139199.727807","131466.28105","132232.811105","132999.374241","133766.293849","134532.716004","135298.863308","136065.636679","139966.725017","140732.272841","141498.876478","127649.94503","128399.507555","129165.749155","129932.849937","130699.485418","140741.160227"
"Blocked","Female","cave","12","F_cave.wav","None","721.392549109","310","139199.727807","131466.28105","132232.811105","132999.374241","133766.293849","134532.716004","135298.863308","136065.636679","139966.725017","140732.272841","141498.876478","142266.503466","128399.507555","129165.749155","129932.849937","130699.485418","141507.604641"
"Blocked","Female","cave","12","F_park.wav","space","524.089557584","310","139199.727807","131466.28105","132232.811105","132999.374241","133766.293849","134532.716004","135298.863308","136065.636679","139966.725017","140732.272841","141498.876478","142266.503466","143032.102303","129165.749155","129932.849937","130699.485418","142276.447902"
"Blocked","Female","cave","12","F_dime.wav","None","722.189587541","310","139199.727807","131466.28105","132232.811105","132999.374241","133766.293849","134532.716004","135298.863308","136065.636679","139966.725017","140732.272841","141498.876478","142266.503466","143032.102303","143799.482883","129932.849937","130699.485418","143040.914251"
"Blocked","Female","cave","12","F_cave.wav","None","719.793833327","310","139199.727807","131466.28105","132232.811105","132999.374241","133766.293849","134532.716004","135298.863308","136065.636679","139966.725017","140732.272841","141498.876478","142266.503466","143032.102303","143799.482883","144566.230902","130699.485418","143809.235325"
"Blocked","Female","cave","12","F_gnash.wav","space","552.472552285","310","139199.727807","131466.28105","132232.811105","132999.374241","133766.293849","134532.716004","135298.863308","136065.636679","139966.725017","140732.272841","141498.876478","142266.503466","143032.102303","143799.482883","144566.230902","145315.581028","144575.979943"
"Blocked","Female","cave","12","F_jolt.wav","None","735.056293663","310","139199.727807","146081.940113","132232.811105","132999.374241","133766.293849","134532.716004","135298.863308","136065.636679","139966.725017","140732.272841","141498.876478","142266.503466","143032.102303","143799.482883","144566.230902","145315.581028","145325.092936"
"Blocked","Female","cave","12","F_knife.wav","None","734.726100694","310","139199.727807","146081.940113","146848.463984","132999.374241","133766.293849","134532.716004","135298.863308","136065.636679","139966.725017","140732.272841","141498.876478","142266.503466","143032.102303","143799.482883","144566.230902","145315.581028","146091.530241"
"Blocked","Female","cave","12","F_bluff.wav","None","735.177488066","310","139199.727807","146081.940113","146848.463984","147615.772837","133766.293849","134532.716004","135298.863308","136065.636679","139966.725017","140732.272841","141498.876478","142266.503466","143032.102303","143799.482883","144566.230902","145315.581028","146857.229866"
"Blocked","Female","cave","12","F_cave.wav","None","733.519412111","310","139199.727807","146081.940113","146848.463984","147615.772837","148382.07658","134532.716004","135298.863308","136065.636679","139966.725017","140732.272841","141498.876478","142266.503466","143032.102303","143799.482883","144566.230902","145315.581028","147624.852835"
"Blocked","Female","cave","12","F_priest.wav","space","408.865186851","310","139199.727807","146081.940113","146848.463984","147615.772837","148382.07658","149149.146754","135298.863308","136065.636679","139966.725017","140732.272841","141498.876478","142266.503466","143032.102303","143799.482883","144566.230902","145315.581028","148391.511814"
"Blocked","Female","cave","12","F_bluff.wav","None","730.562824756","310","139199.727807","146081.940113","146848.463984","147615.772837","148382.07658","149149.146754","149915.614357","136065.636679","139966.725017","140732.272841","141498.876478","142266.503466","143032.102303","143799.482883","144566.230902","145315.581028","149158.703182"
"Blocked","Female","cave","12","F_cling.wav","None","730.034762993","310","139199.727807","146081.940113","146848.463984","147615.772837","148382.07658","149149.146754","149915.614357","150681.75053","139966.725017","140732.272841","141498.876478","142266.503466","143032.102303","143799.482883","144566.230902","145315.581028","149925.407609"
"Blocked","Female","done","20","F_lash.wav","None","731.015448458","310","153815.919569","146081.940113","146848.463984","147615.772837","148382.07658","149149.146754","149915.614357","150681.75053","139966.725017","140732.272841","141498.876478","142266.503466","143032.102303","143799.482883","144566.230902","145315.581028","150690.41655"
"Blocked","Female","done","20","F_jolt.wav","None","721.122952644","310","153815.919569","146081.940113","146848.463984","147615.772837","148382.07658","149149.146754","149915.614357","150681.75053","154582.353163","140732.272841","141498.876478","142266.503466","143032.102303","143799.482883","144566.230902","145315.581028","153825.755487"
"Blocked","Female","done","20","F_done.wav","None","720.475861337","310","153815.919569","146081.940113","146848.463984","147615.772837","148382.07658","149149.146754","149915.614357","150681.75053","154582.353163","155349.177547","141498.876478","142266.503466","143032.102303","143799.482883","144566.230902","145315.581028","154592.402098"
"Blocked","Female","done","20","F_jolt.wav","space","400.819979142","310","153815.919569","146081.940113","146848.463984","147615.772837","148382.07658","149149.146754","149915.614357","150681.75053","154582.353163","155349.177547","156115.914437","142266.503466","143032.102303","143799.482883","144566.230902","145315.581028","155359.372411"
"Blocked","Female","done","20","F_depth.wav","None","717.926140875","310","153815.919569","146081.940113","146848.463984","147615.772837","148382.07658","149149.146754","149915.614357","150681.75053","154582.353163","155349.177547","156115.914437","156865.244157","143032.102303","143799.482883","144566.230902","145315.581028","156126.24688"
"Blocked","Female","done","20","F_done.wav","None","735.671540722","310","153815.919569","146081.940113","146848.463984","147615.772837","148382.07658","149149.146754","149915.614357","150681.75053","154582.353163","155349.177547","156115.914437","156865.244157","157631.521002","143799.482883","144566.230902","145315.581028","156874.645073"
"Blocked","Female","done","20","F_jolt.wav","space","471.935759764","310","153815.919569","146081.940113","146848.463984","147615.772837","148382.07658","149149.146754","149915.614357","150681.75053","154582.353163","155349.177547","156115.914437","156865.244157","157631.521002","158398.557477","144566.230902","145315.581028","157640.151468"
"Blocked","Female","done","20","F_bluff.wav","None","733.355861157","310","153815.919569","146081.940113","146848.463984","147615.772837","148382.07658","149149.146754","149915.614357","150681.75053","154582.353163","155349.177547","156115.914437","156865.244157","157631.521002","158398.557477","159165.383407","145315.581028","158408.224588"
"Blocked","Female","done","20","F_done.wav","None","732.444739435","310","153815.919569","146081.940113","146848.463984","147615.772837","148382.07658","149149.146754","149915.614357","150681.75053","154582.353163","155349.177547","156115.914437","156865.244157","157631.521002","158398.557477","159165.383407","159931.789485","159175.216542"
"Blocked","Female","done","20","F_jolt.wav","space","434.57726622","310","153815.919569","160698.657153","146848.463984","147615.772837","148382.07658","149149.146754","149915.614357","150681.75053","154582.353163","155349.177547","156115.914437","156865.244157","157631.521002","158398.557477","159165.383407","159931.789485","159941.441138"
"Blocked","Female","done","20","F_depth.wav","None","730.58106564","310","153815.919569","160698.657153","161465.307784","147615.772837","148382.07658","149149.146754","149915.614357","150681.75053","154582.353163","155349.177547","156115.914437","156865.244157","157631.521002","158398.557477","159165.383407","159931.789485","160708.203997"
"Blocked","Female","done","20","F_depth.wav","None","730.444412678","310","153815.919569","160698.657153","161465.307784","162231.454778","148382.07658","149149.146754","149915.614357","150681.75053","154582.353163","155349.177547","156115.914437","156865.244157","157631.521002","158398.557477","159165.383407","159931.789485","161474.575448"
"Blocked","Female","done","20","F_reek.wav","None","730.718336999","310","153815.919569","160698.657153","161465.307784","162231.454778","162998.536701","149149.146754","149915.614357","150681.75053","154582.353163","155349.177547","156115.914437","156865.244157","157631.521002","158398.557477","159165.383407","159931.789485","162240.384829"
"Blocked","Female","done","20","F_done.wav","None","728.973384481","310","153815.919569","160698.657153","161465.307784","162231.454778","162998.536701","163765.278846","149915.614357","150681.75053","154582.353163","155349.177547","156115.914437","156865.244157","157631.521002","158398.557477","159165.383407","159931.789485","163008.38684"
"Blocked","Female","done","20","F_romp.wav","space","513.335715979","310","153815.919569","160698.657153","161465.307784","162231.454778","162998.536701","163765.278846","164531.761908","150681.75053","154582.353163","155349.177547","156115.914437","156865.244157","157631.521002","158398.557477","159165.383407","159931.789485","163774.553621"
"Blocked","Female","done","20","F_gnash.wav","None","727.3987839","310","153815.919569","160698.657153","161465.307784","162231.454778","162998.536701","163765.278846","164531.761908","165298.505289","154582.353163","155349.177547","156115.914437","156865.244157","157631.521002","158398.557477","159165.383407","159931.789485","164541.09728"
"Blocked","Female","cave","10","F_cling.wav","None","726.641937159","310","168432.15647","160698.657153","161465.307784","162231.454778","162998.536701","163765.278846","164531.761908","165298.505289","154582.353163","155349.177547","156115.914437","156865.244157","157631.521002","158398.557477","159165.383407","159931.789485","165308.076249"
"Blocked","Female","cave","10","F_gnash.wav","None","720.980425831","310","168432.15647","160698.657153","161465.307784","162231.454778","162998.536701","163765.278846","164531.761908","165298.505289","169198.015317","155349.177547","156115.914437","156865.244157","157631.521002","158398.557477","159165.383407","159931.789485","168442.446557"
"Blocked","Female","cave","10","F_romp.wav","None","722.736199386","310","168432.15647","160698.657153","161465.307784","162231.454778","162998.536701","163765.278846","164531.761908","165298.505289","169198.015317","169965.547082","156115.914437","156865.244157","157631.521002","158398.557477","159165.383407","159931.789485","169206.950006"
"Blocked","Female","cave","10","F_cad.wav","None","720.512961503","310","168432.15647","160698.657153","161465.307784","162231.454778","162998.536701","163765.278846","164531.761908","165298.505289","169198.015317","169965.547082","170732.186582","156865.244157","157631.521002","158398.557477","159165.383407","159931.789485","169975.354556"
"Blocked","Female","cave","10","F_priest.wav","None","720.304581337","310","168432.15647","160698.657153","161465.307784","162231.454778","162998.536701","163765.278846","164531.761908","165298.505289","169198.015317","169965.547082","170732.186582","171498.656658","157631.521002","158398.557477","159165.383407","159931.789485","170741.885538"
"Blocked","Female","cave","10","F_cave.wav","None","720.503068063","310","168432.15647","160698.657153","161465.307784","162231.454778","162998.536701","163765.278846","164531.761908","165298.505289","169198.015317","169965.547082","170732.186582","171498.656658","172264.800561","158398.557477","159165.383407","159931.789485","171507.836828"
"Blocked","Female","cave","10","F_priest.wav","space","461.521386169","310","168432.15647","160698.657153","161465.307784","162231.454778","162998.536701","163765.278846","164531.761908","165298.505289","169198.015317","169965.547082","170732.186582","171498.656658","172264.800561","173014.694825","159165.383407","159931.789485","172274.13315"
"Blocked","Female","cave","10","F_reek.wav","None","735.486038961","310","168432.15647","160698.657153","161465.307784","162231.454778","162998.536701","163765.278846","164531.761908","165298.505289","169198.015317","169965.547082","170732.186582","171498.656658","172264.800561","173014.694825","173781.131201","159931.789485","173023.9696"
"Blocked","Female","cave","10","F_knife.wav","None","735.473363195","310","168432.15647","160698.657153","161465.307784","162231.454778","162998.536701","163765.278846","164531.761908","165298.505289","169198.015317","169965.547082","170732.186582","171498.656658","172264.800561","173014.694825","173781.131201","174547.602514","173790.265305"
"Blocked","Female","cave","10","F_cave.wav","None","735.392978881","310","168432.15647","175314.710407","161465.307784","162231.454778","162998.536701","163765.278846","164531.761908","165298.505289","169198.015317","169965.547082","170732.186582","171498.656658","172264.800561","173014.694825","173781.131201","174547.602514","174556.665509"
"Blocked","Female","cave","10","F_romp.wav","space","483.478602022","310","168432.15647","175314.710407","176081.39783","162231.454778","162998.536701","163765.278846","164531.761908","165298.505289","169198.015317","169965.547082","170732.186582","171498.656658","172264.800561","173014.694825","173781.131201","174547.602514","175324.084425"
"Blocked","Female","cave","10","F_cave.wav","None","732.678471133","310","168432.15647","175314.710407","176081.39783","176848.129154","162998.536701","163765.278846","164531.761908","165298.505289","169198.015317","169965.547082","170732.186582","171498.656658","172264.800561","173014.694825","173781.131201","174547.602514","176090.944983"
"Blocked","Female","cave","10","F_depth.wav","space","573.850384448","310","168432.15647","175314.710407","176081.39783","176848.129154","177614.939935","163765.278846","164531.761908","165298.505289","169198.015317","169965.547082","170732.186582","171498.656658","172264.800561","173014.694825","173781.131201","174547.602514","176857.649718"
"Blocked","Female","cave","10","F_greet.wav","None","731.257837266","310","168432.15647","175314.710407","176081.39783","176848.129154","177614.939935","178381.393624","164531.761908","165298.505289","169198.015317","169965.547082","170732.186582","171498.656658","172264.800561","173014.694825","173781.131201","174547.602514","177624.02457"
"Blocked","Female","cave","10","F_cave.wav","None","730.575191323","310","168432.15647","175314.710407","176081.39783","176848.129154","177614.939935","178381.393624","179148.080429","165298.505289","169198.015317","169965.547082","170732.186582","171498.656658","172264.800561","173014.694825","173781.131201","174547.602514","178390.966748"
"Blocked","Female","cave","10","F_priest.wav","space","537.794113159","310","168432.15647","175314.710407","176081.39783","176848.129154","177614.939935","178381.393624","179148.080429","179914.814845","169198.015317","169965.547082","170732.186582","171498.656658","172264.800561","173014.694825","173781.131201","174547.602514","179157.659117"
"Blocked","Female","ball","2","F_dime.wav","None","728.283009026","310","183048.300619","175314.710407","176081.39783","176848.129154","177614.939935","178381.393624","179148.080429","179914.814845","169198.015317","169965.547082","170732.186582","171498.656658","172264.800561","173014.694825","173781.131201","174547.602514","179923.953894"
"Blocked","Female","ball","2","F_ball.wav","None","722.338607535","310","183048.300619","175314.710407","176081.39783","176848.129154","177614.939935","178381.393624","179148.080429","179914.814845","183815.106144","169965.547082","170732.186582","171498.656658","172264.800561","173014.694825","173781.131201","174547.602514","183057.814073"
"Blocked","Female","ball","2","F_priest.wav","space","438.457652461","310","183048.300619","175314.710407","176081.39783","176848.129154","177614.939935","178381.393624","179148.080429","179914.814845","183815.106144","184581.939494","170732.186582","171498.656658","172264.800561","173014.694825","173781.131201","174547.602514","183824.842818"
"Blocked","Female","ball","2","F_park.wav","None","719.459930435","310","183048.300619","175314.710407","176081.39783","176848.129154","177614.939935","178381.393624","179148.080429","179914.814845","183815.106144","184581.939494","185348.367523","171498.656658","172264.800561","173014.694825","173781.131201","174547.602514","184591.706776"
"Blocked","Female","ball","2","F_knife.wav","None","719.075323548","310","183048.300619","175314.710407","176081.39783","176848.129154","177614.939935","178381.393624","179148.080429","179914.814845","183815.106144","184581.939494","185348.367523","186114.341073","172264.800561","173014.694825","173781.131201","174547.602514","185358.456651"
"Blocked","Female","ball","2","F_ball.wav","None","720.708356705","310","183048.300619","175314.710407","176081.39783","176848.129154","177614.939935","178381.393624","179148.080429","179914.814845","183815.106144","184581.939494","185348.367523","186114.341073","186880.973463","173014.694825","173781.131201","174547.602514","186123.264632"
"Blocked","Female","ball","2","F_reek.wav","space","612.286023796","310","183048.300619","175314.710407","176081.39783","176848.129154","177614.939935","178381.393624","179148.080429","179914.814845","183815.106144","184581.939494","185348.367523","186114.341073","186880.973463","187630.570925","173781.131201","174547.602514","186889.918664"
"Blocked","Female","ball","2","F_park.wav","None","736.552983057","310","183048.300619","175314.710407","176081.39783","176848.129154","177614.939935","178381.393624","179148.080429","179914.814845","183815.106144","184581.939494","185348.367523","186114.341073","186880.973463","187630.570925","188397.117675","174547.602514","187639.244674"
"Blocked","Female","ball","2","F_lash.wav","None","735.985965934","310","183048.300619","175314.710407","176081.39783","176848.129154","177614.939935","178381.393624","179148.080429","179914.814845","183815.106144","184581.939494","185348.367523","186114.341073","186880.973463","187630.570925","188397.117675","189163.917325","188406.271256"
"Blocked","Female","ball","2","F_ball.wav","None","735.605378635","310","183048.300619","189930.548788","176081.39783","176848.129154","177614.939935","178381.393624","179148.080429","179914.814845","183815.106144","184581.939494","185348.367523","186114.341073","186880.973463","187630.570925","188397.117675","189163.917325","189172.956822"
"Blocked","Female","ball","2","F_greet.wav","space","387.944616843","310","183048.300619","189930.548788","190697.175922","176848.129154","177614.939935","178381.393624","179148.080429","179914.814845","183815.106144","184581.939494","185348.367523","186114.341073","186880.973463","187630.570925","188397.117675","189163.917325","189939.176781"
"Blocked","Female","ball","2","F_park.wav","None","733.966161963","310","183048.300619","189930.548788","190697.175922","191464.059049","177614.939935","178381.393624","179148.080429","179914.814845","183815.106144","184581.939494","185348.367523","186114.341073","186880.973463","187630.570925","188397.117675","189163.917325","190706.004566"
"Blocked","Female","ball","2","F_gnash.wav","None","733.327108435","310","183048.300619","189930.548788","190697.175922","191464.059049","192230.55324","178381.393624","179148.080429","179914.814845","183815.106144","184581.939494","185348.367523","186114.341073","186880.973463","187630.570925","188397.117675","189163.917325","191473.121115"
"Blocked","Female","ball","2","F_cling.wav","None","733.81034052","310","183048.300619","189930.548788","190697.175922","191464.059049","192230.55324","192997.133381","179148.080429","179914.814845","183815.106144","184581.939494","185348.367523","186114.341073","186880.973463","187630.570925","188397.117675","189163.917325","192239.270274"
"Blocked","Female","ball","2","F_ball.wav","None","733.602578752","310","183048.300619","189930.548788","190697.175922","191464.059049","192230.55324","192997.133381","193764.422138","179914.814845","183815.106144","184581.939494","185348.367523","186114.341073","186880.973463","187630.570925","188397.117675","189163.917325","193005.960478"
"Blocked","Female","ball","2","F_greet.wav","space","392.478587106","310","183048.300619","189930.548788","190697.175922","191464.059049","192230.55324","192997.133381","193764.422138","194530.912928","183815.106144","184581.939494","185348.367523","186114.341073","186880.973463","187630.570925","188397.117675","189163.917325","193773.535526"
"Blocked","Female","ball","1","F_priest.wav","None","730.25767412","310","197664.44446","189930.548788","190697.175922","191464.059049","192230.55324","192997.133381","193764.422138","194530.912928","183815.106144","184581.939494","185348.367523","186114.341073","186880.973463","187630.570925","188397.117675","189163.917325","194540.450497"
"Blocked","Female","ball","1","F_cling.wav","None","720.392694697","310","197664.44446","189930.548788","190697.175922","191464.059049","192230.55324","192997.133381","193764.422138","194530.912928","198430.446762","184581.939494","185348.367523","186114.341073","186880.973463","187630.570925","188397.117675","189163.917325","197675.126883"
"Blocked","Female","ball","1","F_cad.wav","None","722.272444982","310","197664.44446","189930.548788","190697.175922","191464.059049","192230.55324","192997.133381","193764.422138","194530.912928","198430.446762","199197.183033","185348.367523","186114.341073","186880.973463","187630.570925","188397.117675","189163.917325","198439.654448"
"Blocked","Female","ball","1","F_ball.wav","None","722.283884417","310","197664.44446","189930.548788","190697.175922","191464.059049","192230.55324","192997.133381","193764.422138","194530.912928","198430.446762","199197.183033","199964.713561","186114.341073","186880.973463","187630.570925","188397.117675","189163.917325","199206.05125"
"Blocked","Female","ball","1","F_lash.wav","space","336.335575208","310","197664.44446","189930.548788","190697.175922","191464.059049","192230.55324","192997.133381","193764.422138","194530.912928","198430.446762","199197.183033","199964.713561","200731.084084","186880.973463","187630.570925","188397.117675","189163.917325","199974.475278"
"Blocked","Female","ball","1","F_ball.wav","None","719.21815956","310","197664.44446","189930.548788","190697.175922","191464.059049","192230.55324","192997.133381","193764.422138","194530.912928","198430.446762","199197.183033","199964.713561","200731.084084","201497.73657","187630.570925","188397.117675","189163.917325","200741.201037"
"Blocked","Female","ball","1","F_knife.wav","space","515.841225628","310","197664.44446","189930.548788","190697.175922","191464.059049","192230.55324","192997.133381","193764.422138","194530.912928","198430.446762","199197.183033","199964.713561","200731.084084","201497.73657","202246.919745","188397.117675","189163.917325","201506.923541"
"Blocked","Female","ball","1","F_ball.wav","None","735.82550697","310","197664.44446","189930.548788","190697.175922","191464.059049","192230.55324","192997.133381","193764.422138","194530.912928","198430.446762","199197.183033","199964.713561","200731.084084","201497.73657","202246.919745","203013.764843","189163.917325","202256.450203"
"Blocked","Female","ball","1","F_jolt.wav","space","391.900131013","310","197664.44446","189930.548788","190697.175922","191464.059049","192230.55324","192997.133381","193764.422138","194530.912928","198430.446762","199197.183033","199964.713561","200731.084084","201497.73657","202246.919745","203013.764843","203780.338491","203022.85659"
"Blocked","Female","ball","1","F_lash.wav","None","733.761800919","310","197664.44446","204547.167513","190697.175922","191464.059049","192230.55324","192997.133381","193764.422138","194530.912928","198430.446762","199197.183033","199964.713561","200731.084084","201497.73657","202246.919745","203013.764843","203780.338491","203790.116285"
"Blocked","Female","ball","1","F_park.wav","None","733.959051315","310","197664.44446","204547.167513","205314.000863","191464.059049","192230.55324","192997.133381","193764.422138","194530.912928","198430.446762","199197.183033","199964.713561","200731.084084","201497.73657","202246.919745","203013.764843","203780.338491","204556.243801"
"Blocked","Female","ball","1","F_ball.wav","None","732.846659143","310","197664.44446","204547.167513","205314.000863","206080.145693","192230.55324","192997.133381","193764.422138","194530.912928","198430.446762","199197.183033","199964.713561","200731.084084","201497.73657","202246.919745","203013.764843","203780.338491","205323.747431"
"Blocked","Female","ball","1","F_cad.wav","space","381.855833344","310","197664.44446","204547.167513","205314.000863","206080.145693","206846.96142","192997.133381","193764.422138","194530.912928","198430.446762","199197.183033","199964.713561","200731.084084","201497.73657","202246.919745","203013.764843","203780.338491","206088.791926"
"Blocked","Female","ball","1","F_knife.wav","None","734.757326543","310","197664.44446","204547.167513","205314.000863","206080.145693","206846.96142","207613.877938","193764.422138","194530.912928","198430.446762","199197.183033","199964.713561","200731.084084","201497.73657","202246.919745","203013.764843","203780.338491","206855.737196"
"Blocked","Female","ball","1","F_cling.wav","None","733.599487226","310","197664.44446","204547.167513","205314.000863","206080.145693","206846.96142","207613.877938","208380.046264","194530.912928","198430.446762","199197.183033","199964.713561","200731.084084","201497.73657","202246.919745","203013.764843","203780.338491","207623.245772"
"Blocked","Female","ball","1","F_lash.wav","None","734.170213807","310","197664.44446","204547.167513","205314.000863","206080.145693","206846.96142","207613.877938","208380.046264","209147.177345","198430.446762","199197.183033","199964.713561","200731.084084","201497.73657","202246.919745","203013.764843","203780.338491","208389.079887"
"Blocked","Female","cave","11","F_depth.wav","None","733.059677295","310","212280.591392","204547.167513","205314.000863","206080.145693","206846.96142","207613.877938","208380.046264","209147.177345","198430.446762","199197.183033","199964.713561","200731.084084","201497.73657","202246.919745","203013.764843","203780.338491","209156.65308"
"Blocked","Female","cave","11","F_priest.wav","None","721.541568171","310","212280.591392","204547.167513","205314.000863","206080.145693","206846.96142","207613.877938","208380.046264","209147.177345","213047.461224","199197.183033","199964.713561","200731.084084","201497.73657","202246.919745","203013.764843","203780.338491","212290.666298"
"Blocked","Female","cave","11","F_dime.wav","None","721.195607912","310","212280.591392","204547.167513","205314.000863","206080.145693","206846.96142","207613.877938","208380.046264","209147.177345","213047.461224","213814.029925","199964.713561","200731.084084","201497.73657","202246.919745","203013.764843","203780.338491","213057.264369"
"Blocked","Female","cave","11","F_gnash.wav","None","720.584379509","310","212280.591392","204547.167513","205314.000863","206080.145693","206846.96142","207613.877938","208380.046264","209147.177345","213047.461224","213814.029925","214580.873787","200731.084084","201497.73657","202246.919745","203013.764843","203780.338491","213824.073914"
"Blocked","Female","cave","11","F_greet.wav","None","720.376927406","310","212280.591392","204547.167513","205314.000863","206080.145693","206846.96142","207613.877938","208380.046264","209147.177345","213047.461224","213814.029925","214580.873787","215347.309236","201497.73657","202246.919745","203013.764843","203780.338491","214590.55512"
"Blocked","Female","cave","11","F_cling.wav","None","719.882255886","310","212280.591392","204547.167513","205314.000863","206080.145693","206846.96142","207613.877938","208380.046264","209147.177345","213047.461224","213814.029925","214580.873787","215347.309236","216113.430569","202246.919745","203013.764843","203780.338491","215357.580774"
"Blocked","Female","cave","11","F_cave.wav","None","721.642048564","310","212280.591392","204547.167513","205314.000863","206080.145693","206846.96142","207613.877938","208380.046264","209147.177345","213047.461224","213814.029925","214580.873787","215347.309236","216113.430569","216880.167149","203013.764843","203780.338491","216122.37917"
"Blocked","Female","cave","11","F_dime.wav","space","413.046086207","310","212280.591392","204547.167513","205314.000863","206080.145693","206846.96142","207613.877938","208380.046264","209147.177345","213047.461224","213814.029925","214580.873787","215347.309236","216113.430569","216880.167149","217646.566117","203780.338491","216889.264152"
"Blocked","Female","cave","11","F_park.wav","None","720.366105903","310","212280.591392","204547.167513","205314.000863","206080.145693","206846.96142","207613.877938","208380.046264","209147.177345","213047.461224","213814.029925","214580.873787","215347.309236","216113.430569","216880.167149","217646.566117","218396.80325","217655.420421"
"Blocked","Female","cave","11","F_cave.wav","None","736.1816708","310","212280.591392","219163.454499","205314.000863","206080.145693","206846.96142","207613.877938","208380.046264","209147.177345","213047.461224","213814.029925","214580.873787","215347.309236","216113.430569","216880.167149","217646.566117","218396.80325","218406.108014"
"Blocked","Female","cave","11","F_bluff.wav","space","505.838046782","310","212280.591392","219163.454499","219930.175621","206080.145693","206846.96142","207613.877938","208380.046264","209147.177345","213047.461224","213814.029925","214580.873787","215347.309236","216113.430569","216880.167149","217646.566117","218396.80325","219172.357962"
"Blocked","Female","cave","11","F_gnash.wav","None","734.246578999","310","212280.591392","219163.454499","219930.175621","220696.71526","206846.96142","207613.877938","208380.046264","209147.177345","213047.461224","213814.029925","214580.873787","215347.309236","216113.430569","216880.167149","217646.566117","218396.80325","219939.671452"
"Blocked","Female","cave","11","F_cave.wav","None","734.612326138","310","212280.591392","219163.454499","219930.175621","220696.71526","221463.060741","207613.877938","208380.046264","209147.177345","213047.461224","213814.029925","214580.873787","215347.309236","216113.430569","216880.167149","217646.566117","218396.80325","220705.749192"
"Blocked","Female","cave","11","F_lash.wav","space","469.909463078","310","212280.591392","219163.454499","219930.175621","220696.71526","221463.060741","222229.947268","208380.046264","209147.177345","213047.461224","213814.029925","214580.873787","215347.309236","216113.430569","216880.167149","217646.566117","218396.80325","221472.24833"
"Blocked","Female","cave","11","F_cave.wav","None","732.153501362","310","212280.591392","219163.454499","219930.175621","220696.71526","221463.060741","222229.947268","222996.78371","209147.177345","213047.461224","213814.029925","214580.873787","215347.309236","216113.430569","216880.167149","217646.566117","218396.80325","222239.67374"
"Blocked","Female","cave","11","F_greet.wav","space","487.925076857","310","212280.591392","219163.454499","219930.175621","220696.71526","221463.060741","222229.947268","222996.78371","223763.533894","213047.461224","213814.029925","214580.873787","215347.309236","216113.430569","216880.167149","217646.566117","218396.80325","223006.208432"
"Blocked","Female","ball","5","F_gnash.wav","None","730.064443313","310","226897.232995","219163.454499","219930.175621","220696.71526","221463.060741","222229.947268","222996.78371","223763.533894","213047.461224","213814.029925","214580.873787","215347.309236","216113.430569","216880.167149","217646.566117","218396.80325","223773.062497"
"Blocked","Female","ball","5","F_ball.wav","None","721.514361445","310","226897.232995","219163.454499","219930.175621","220696.71526","221463.060741","222229.947268","222996.78371","223763.533894","227663.723785","213814.029925","214580.873787","215347.309236","216113.430569","216880.167149","217646.566117","218396.80325","226907.286568"
"Blocked","Female","ball","5","F_lash.wav","space","580.10457363","310","226897.232995","219163.454499","219930.175621","220696.71526","221463.060741","222229.947268","222996.78371","223763.533894","227663.723785","228429.713721","214580.873787","215347.309236","216113.430569","216880.167149","217646.566117","218396.80325","227673.867945"
"Blocked","Female","ball","5","F_priest.wav","None","721.465821844","310","226897.232995","219163.454499","219930.175621","220696.71526","221463.060741","222229.947268","222996.78371","223763.533894","227663.723785","228429.713721","229196.334981","215347.309236","216113.430569","216880.167149","217646.566117","218396.80325","228439.018795"
"Blocked","Female","ball","5","F_ball.wav","None","722.274609376","310","226897.232995","219163.454499","219930.175621","220696.71526","221463.060741","222229.947268","222996.78371","223763.533894","227663.723785","228429.713721","229196.334981","229963.065688","216113.430569","216880.167149","217646.566117","218396.80325","229205.172282"
"Blocked","Female","ball","5","F_reek.wav","space","449.895067606","310","226897.232995","219163.454499","219930.175621","220696.71526","221463.060741","222229.947268","222996.78371","223763.533894","227663.723785","228429.713721","229196.334981","229963.065688","230729.467437","216880.167149","217646.566117","218396.80325","229972.008105"
"Blocked","Female","ball","5","F_ball.wav","None","721.22219624","310","226897.232995","219163.454499","219930.175621","220696.71526","221463.060741","222229.947268","222996.78371","223763.533894","227663.723785","228429.713721","229196.334981","229963.065688","230729.467437","231496.796386","217646.566117","218396.80325","230738.569696"
"Blocked","Female","ball","5","F_depth.wav","space","475.926518906","310","226897.232995","219163.454499","219930.175621","220696.71526","221463.060741","222229.947268","222996.78371","223763.533894","227663.723785","228429.713721","229196.334981","229963.065688","230729.467437","231496.796386","232245.747992","218396.80325","231505.950894"
"Blocked","Female","ball","5","F_jolt.wav","None","736.534432508","310","226897.232995","219163.454499","219930.175621","220696.71526","221463.060741","222229.947268","222996.78371","223763.533894","227663.723785","228429.713721","229196.334981","229963.065688","230729.467437","231496.796386","232245.747992","233012.939052","232254.939292"
"Blocked","Female","ball","5","F_knife.wav","None","735.676796641","310","226897.232995","233779.443136","219930.175621","220696.71526","221463.060741","222229.947268","222996.78371","223763.533894","227663.723785","228429.713721","229196.334981","229963.065688","230729.467437","231496.796386","232245.747992","233012.939052","233022.282771"
"Blocked","Female","ball","5","F_lash.wav","None","735.587756149","310","226897.232995","233779.443136","234545.982776","220696.71526","221463.060741","222229.947268","222996.78371","223763.533894","227663.723785","228429.713721","229196.334981","229963.065688","230729.467437","231496.796386","232245.747992","233012.939052","233788.981014"
"Blocked","Female","ball","5","F_romp.wav","None","735.806338489","310","226897.232995","233779.443136","234545.982776","235312.879196","221463.060741","222229.947268","222996.78371","223763.533894","227663.723785","228429.713721","229196.334981","229963.065688","230729.467437","231496.796386","232245.747992","233012.939052","234555.314438"
"Blocked","Female","ball","5","F_greet.wav","None","735.101432074","310","226897.232995","233779.443136","234545.982776","235312.879196","236079.399976","222229.947268","222996.78371","223763.533894","227663.723785","228429.713721","229196.334981","229963.065688","230729.467437","231496.796386","232245.747992","233012.939052","235322.528376"
"Blocked","Female","ball","5","F_park.wav","None","735.529941041","310","226897.232995","233779.443136","234545.982776","235312.879196","236079.399976","236845.802344","222996.78371","223763.533894","227663.723785","228429.713721","229196.334981","229963.065688","230729.467437","231496.796386","232245.747992","233012.939052","236088.763792"
"Blocked","Female","ball","5","F_ball.wav","None","736.110870261","310","226897.232995","233779.443136","234545.982776","235312.879196","236079.399976","236845.802344","237612.507389","223763.533894","227663.723785","228429.713721","229196.334981","229963.065688","230729.467437","231496.796386","232245.747992","233012.939052","236854.827929"
"Blocked","Female","ball","5","F_cad.wav","space","472.193916328","310","226897.232995","233779.443136","234545.982776","235312.879196","236079.399976","236845.802344","237612.507389","238379.631668","227663.723785","228429.713721","229196.334981","229963.065688","230729.467437","231496.796386","232245.747992","233012.939052","237621.509167"
"Blocked","Female","ball","6","F_jolt.wav","None","733.703986742","310","241513.133829","233779.443136","234545.982776","235312.879196","236079.399976","236845.802344","237612.507389","238379.631668","227663.723785","228429.713721","229196.334981","229963.065688","230729.467437","231496.796386","232245.747992","233012.939052","238388.878308"
"Blocked","Female","ball","6","F_ball.wav","None","721.124498639","310","241513.133829","233779.443136","234545.982776","235312.879196","236079.399976","236845.802344","237612.507389","238379.631668","242279.903799","228429.713721","229196.334981","229963.065688","230729.467437","231496.796386","232245.747992","233012.939052","241523.042401"
"Blocked","Female","ball","6","F_cad.wav","space","419.815970119","310","241513.133829","233779.443136","234545.982776","235312.879196","236079.399976","236845.802344","237612.507389","238379.631668","242279.903799","243045.885078","229196.334981","229963.065688","230729.467437","231496.796386","232245.747992","233012.939052","242289.71962"
"Blocked","Female","ball","6","F_lash.wav","None","721.19622631","310","241513.133829","233779.443136","234545.982776","235312.879196","236079.399976","236845.802344","237612.507389","238379.631668","242279.903799","243045.885078","243813.216191","229963.065688","230729.467437","231496.796386","232245.747992","233012.939052","243054.629627"
"Blocked","Female","ball","6","F_priest.wav","None","719.392531086","310","241513.133829","233779.443136","234545.982776","235312.879196","236079.399976","236845.802344","237612.507389","238379.631668","242279.903799","243045.885078","243813.216191","244579.715329","230729.467437","231496.796386","232245.747992","233012.939052","243823.160627"
"Blocked","Female","ball","6","F_priest.wav","None","719.825987238","310","241513.133829","233779.443136","234545.982776","235312.879196","236079.399976","236845.802344","237612.507389","238379.631668","242279.903799","243045.885078","243813.216191","244579.715329","245346.487155","231496.796386","232245.747992","233012.939052","244589.705831"
"Blocked","Female","ball","6","F_ball.wav","None","719.132210594","310","241513.133829","233779.443136","234545.982776","235312.879196","236079.399976","236845.802344","237612.507389","238379.631668","242279.903799","243045.885078","243813.216191","244579.715329","245346.487155","246112.559948","232245.747992","233012.939052","245356.996134"
"Blocked","Female","ball","6","F_gnash.wav","space","411.896903068","310","241513.133829","233779.443136","234545.982776","235312.879196","236079.399976","236845.802344","237612.507389","238379.631668","242279.903799","243045.885078","243813.216191","244579.715329","245346.487155","246112.559948","246879.692265","233012.939052","246121.48598"
"Blocked","Female","ball","6","F_ball.wav","None","718.743893784","310","241513.133829","233779.443136","234545.982776","235312.879196","236079.399976","236845.802344","237612.507389","238379.631668","242279.903799","243045.885078","243813.216191","244579.715329","245346.487155","246112.559948","246879.692265","247646.54231","246889.591253"
"Blocked","Female","ball","6","F_gnash.wav","space","588.822225109","310","241513.133829","248395.818235","234545.982776","235312.879196","236079.399976","236845.802344","237612.507389","238379.631668","242279.903799","243045.885078","243813.216191","244579.715329","245346.487155","246112.559948","246879.692265","247646.54231","247656.566822"
"Blocked","Female","ball","6","F_lash.wav","None","734.51864766","310","241513.133829","248395.818235","249162.503493","235312.879196","236079.399976","236845.802344","237612.507389","238379.631668","242279.903799","243045.885078","243813.216191","244579.715329","245346.487155","246112.559948","246879.692265","247646.54231","248405.416711"
"Blocked","Female","ball","6","F_ball.wav","None","734.798755497","310","241513.133829","248395.818235","249162.503493","249928.821768","236079.399976","236845.802344","237612.507389","238379.631668","242279.903799","243045.885078","243813.216191","244579.715329","245346.487155","246112.559948","246879.692265","247646.54231","249171.87813"
"Blocked","Female","ball","6","F_depth.wav","space","387.459220365","310","241513.133829","248395.818235","249162.503493","249928.821768","250695.86288","236845.802344","237612.507389","238379.631668","242279.903799","243045.885078","243813.216191","244579.715329","245346.487155","246112.559948","246879.692265","247646.54231","249937.861883"
"Blocked","Female","ball","6","F_cling.wav","None","733.683890197","310","241513.133829","248395.818235","249162.503493","249928.821768","250695.86288","251462.410248","237612.507389","238379.631668","242279.903799","243045.885078","243813.216191","244579.715329","245346.487155","246112.559948","246879.692265","247646.54231","250704.969467"
"Blocked","Female","ball","6","F_dime.wav","None","733.307631221","310","241513.133829","248395.818235","249162.503493","249928.821768","250695.86288","251462.410248","252228.642573","238379.631668","242279.903799","243045.885078","243813.216191","244579.715329","245346.487155","246112.559948","246879.692265","247646.54231","251472.13301"
"Blocked","Female","ball","6","F_dime.wav","None","735.477073118","310","241513.133829","248395.818235","249162.503493","249928.821768","250695.86288","251462.410248","252228.642573","252995.439441","242279.903799","243045.885078","243813.216191","244579.715329","245346.487155","246112.559948","246879.692265","247646.54231","252237.310757"
"Blocked","Female","tile","18","F_lash.wav","None","670.190683566","310","256129.369492","248395.818235","249162.503493","249928.821768","250695.86288","251462.410248","252228.642573","252995.439441","242279.903799","243045.885078","243813.216191","244579.715329","245346.487155","246112.559948","246879.692265","247646.54231","253069.769965"
"Blocked","Female","tile","18","F_tile.wav","None","721.270117443","310","256129.369492","248395.818235","249162.503493","249928.821768","250695.86288","251462.410248","252228.642573","252995.439441","256896.183055","243045.885078","243813.216191","244579.715329","245346.487155","246112.559948","246879.692265","247646.54231","256139.421519"
"Blocked","Female","tile","18","F_knife.wav","space","515.630989801","310","256129.369492","248395.818235","249162.503493","249928.821768","250695.86288","251462.410248","252228.642573","252995.439441","256896.183055","257662.927365","243813.216191","244579.715329","245346.487155","246112.559948","246879.692265","247646.54231","256905.464942"
"Blocked","Female","tile","18","F_greet.wav","None","719.301635399","310","256129.369492","248395.818235","249162.503493","249928.821768","250695.86288","251462.410248","252228.642573","252995.439441","256896.183055","257662.927365","258429.007269","244579.715329","245346.487155","246112.559948","246879.692265","247646.54231","257673.316078"
"Blocked","Female","tile","18","F_jaw.wav","None","721.178294625","310","256129.369492","248395.818235","249162.503493","249928.821768","250695.86288","251462.410248","252228.642573","252995.439441","256896.183055","257662.927365","258429.007269","259196.143606","245346.487155","246112.559948","246879.692265","247646.54231","258438.301213"
"Blocked","Female","tile","18","F_tile.wav","None","720.301180612","310","256129.369492","248395.818235","249162.503493","249928.821768","250695.86288","251462.410248","252228.642573","252995.439441","256896.183055","257662.927365","258429.007269","259196.143606","259962.586165","246112.559948","246879.692265","247646.54231","259206.036719"
"Blocked","Female","tile","18","F_cad.wav","space","359.915930312","310","256129.369492","248395.818235","249162.503493","249928.821768","250695.86288","251462.410248","252228.642573","252995.439441","256896.183055","257662.927365","258429.007269","259196.143606","259962.586165","260728.658031","246879.692265","247646.54231","259973.102256"
"Blocked","Female","tile","18","F_jaw.wav","None","720.792760141","310","256129.369492","248395.818235","249162.503493","249928.821768","250695.86288","251462.410248","252228.642573","252995.439441","256896.183055","257662.927365","258429.007269","259196.143606","259962.586165","260728.658031","261495.33185","247646.54231","260737.834181"
"Blocked","Female","tile","18","F_depth.wav","None","721.477879211","310","256129.369492","248395.818235","249162.503493","249928.821768","250695.86288","251462.410248","252228.642573","252995.439441","256896.183055","257662.927365","258429.007269","259196.143606","259962.586165","260728.658031","261495.33185","262262.131192","261504.015802"
"Blocked","Female","tile","18","F_tile.wav","None","721.107803751","310","256129.369492","263029.402944","249162.503493","249928.821768","250695.86288","251462.410248","252228.642573","252995.439441","256896.183055","257662.927365","258429.007269","259196.143606","259962.586165","260728.658031","261495.33185","262262.131192","262271.342278"
"Blocked","Female","tile","18","F_jolt.wav","space","406.060092617","310","256129.369492","263029.402944","263795.890025","249928.821768","250695.86288","251462.410248","252228.642573","252995.439441","256896.183055","257662.927365","258429.007269","259196.143606","259962.586165","260728.658031","261495.33185","262262.131192","263038.880844"
"Blocked","Female","tile","18","F_tile.wav","None","718.69133506","310","256129.369492","263029.402944","263795.890025","264562.636808","250695.86288","251462.410248","252228.642573","252995.439441","256896.183055","257662.927365","258429.007269","259196.143606","259962.586165","260728.658031","261495.33185","262262.131192","263805.906807"
"Blocked","Female","tile","18","F_depth.wav","space","600.135045592","310","256129.369492","263029.402944","263795.890025","264562.636808","265311.836368","251462.410248","252228.642573","252995.439441","256896.183055","257662.927365","258429.007269","259196.143606","259962.586165","260728.658031","261495.33185","262262.131192","264572.733664"
"Blocked","Female","tile","18","F_gnash.wav","None","735.600740649","310","256129.369492","263029.402944","263795.890025","264562.636808","265311.836368","266078.643438","252228.642573","252995.439441","256896.183055","257662.927365","258429.007269","259196.143606","259962.586165","260728.658031","261495.33185","262262.131192","265321.337764"
"Blocked","Female","tile","18","F_park.wav","None","735.545400064","310","256129.369492","263029.402944","263795.890025","264562.636808","265311.836368","266078.643438","266845.488537","252995.439441","256896.183055","257662.927365","258429.007269","259196.143606","259962.586165","260728.658031","261495.33185","262262.131192","266088.052393"
"Blocked","Female","tile","18","F_bluff.wav","None","735.343202949","310","256129.369492","263029.402944","263795.890025","264562.636808","265311.836368","266078.643438","266845.488537","267629.064033","256896.183055","257662.927365","258429.007269","259196.143606","259962.586165","260728.658031","261495.33185","262262.131192","266855.235414"
"Blocked","Female","tile","17","F_romp.wav","None","718.534895219","310","270744.690015","263029.402944","263795.890025","264562.636808","265311.836368","266078.643438","266845.488537","267629.064033","256896.183055","257662.927365","258429.007269","259196.143606","259962.586165","260728.658031","261495.33185","262262.131192","267639.005995"
"Blocked","Female","tile","17","F_tile.wav","None","727.635608055","310","270744.690015","263029.402944","263795.890025","264562.636808","265311.836368","266078.643438","266845.488537","267629.064033","271511.958675","257662.927365","258429.007269","259196.143606","259962.586165","260728.658031","261495.33185","262262.131192","270753.566579"
"Blocked","Female","tile","17","F_depth.wav","space","443.452285137","310","270744.690015","263029.402944","263795.890025","264562.636808","265311.836368","266078.643438","266845.488537","267629.064033","271511.958675","272278.127002","258429.007269","259196.143606","259962.586165","260728.658031","261495.33185","262262.131192","271521.224484"
"Blocked","Female","tile","17","F_greet.wav","None","725.831604097","310","270744.690015","263029.402944","263795.890025","264562.636808","265311.836368","266078.643438","266845.488537","267629.064033","271511.958675","272278.127002","273044.924797","259196.143606","259962.586165","260728.658031","261495.33185","262262.131192","272287.126616"
"Blocked","Female","tile","17","F_jolt.wav","None","725.899930578","310","270744.690015","263029.402944","263795.890025","264562.636808","265311.836368","266078.643438","266845.488537","267629.064033","271511.958675","272278.127002","273044.924797","273811.943341","259962.586165","260728.658031","261495.33185","262262.131192","273053.821458"
