"Condition","Talker","Target","Trial","current_stimulus","response_response","response_time_response","subject_nr","time_Audio1","time_Audio10","time_Audio11","time_Audio12","time_Audio13","time_Audio14","time_Audio15","time_Audio16","time_Audio2","time_Audio3","time_Audio4","time_Audio5","time_Audio6","time_Audio7","time_Audio8","time_Audio9","time_response"
"Blocked","Male","ball","1","M_dime.wav","NA","NA","433","47557.9960306","NA","NA","NA","NA","NA","NA","NA","NA","NA","NA","NA","NA","NA","NA","NA","NA"
"Blocked","Male","ball","1","M_dime.wav","None","740.036374813","433","47557.9960306","NA","NA","NA","NA","NA","NA","NA","48324.6458073","NA","NA","NA","NA","NA","NA","NA","47565.2502463"
"Blocked","Male","ball","1","M_ball.wav","None","739.018885215","433","47557.9960306","NA","NA","NA","NA","NA","NA","NA","48324.6458073","49091.2649015","NA","NA","NA","NA","NA","NA","48330.0371579"
"Blocked","Male","ball","1","M_cad.wav","None","736.456751725","433","47557.9960306","NA","NA","NA","NA","NA","NA","NA","48324.6458073","49091.2649015","49857.8351959","NA","NA","NA","NA","NA","49096.5078074"
"Blocked","Male","ball","1","M_knife.wav","space","7.28256054572","433","47557.9960306","NA","NA","NA","NA","NA","NA","NA","48324.6458073","49091.2649015","49857.8351959","50624.5352334","NA","NA","NA","NA","49863.0757641"
"Blocked","Male","ball","1","M_greet.wav","None","730.809713667","433","47557.9960306","NA","NA","NA","NA","NA","NA","NA","48324.6458073","49091.2649015","49857.8351959","50624.5352334","51391.5084912","NA","NA","NA","50629.5072568"
"Blocked","Male","ball","1","M_park.wav","None","726.95657815","433","47557.9960306","NA","NA","NA","NA","NA","NA","NA","48324.6458073","49091.2649015","49857.8351959","50624.5352334","51391.5084912","52141.1341649","NA","NA","51397.1406263"
"Blocked","Male","ball","1","M_depth.wav","None","741.411242296","433","47557.9960306","NA","NA","NA","NA","NA","NA","NA","48324.6458073","49091.2649015","49857.8351959","50624.5352334","51391.5084912","52141.1341649","52907.7199467","NA","52146.5696399"
"Blocked","Male","ball","1","M_priest.wav","None","739.122913445","433","47557.9960306","NA","NA","NA","NA","NA","NA","NA","48324.6458073","49091.2649015","49857.8351959","50624.5352334","51391.5084912","52141.1341649","52907.7199467","53674.3504372","52912.8471358"
"Blocked","Male","ball","1","M_ball.wav","None","736.251617407","433","47557.9960306","54441.0569034","NA","NA","NA","NA","NA","NA","48324.6458073","49091.2649015","49857.8351959","50624.5352334","51391.5084912","52141.1341649","52907.7199467","53674.3504372","53679.5407446"
"Blocked","Male","ball","1","M_park.wav","space","511.532815064","433","47557.9960306","54441.0569034","55207.5868723","NA","NA","NA","NA","NA","48324.6458073","49091.2649015","49857.8351959","50624.5352334","51391.5084912","52141.1341649","52907.7199467","53674.3504372","54446.3424726"
"Blocked","Male","ball","1","M_cling.wav","None","730.466069846","433","47557.9960306","54441.0569034","55207.5868723","55974.5554546","NA","NA","NA","NA","48324.6458073","49091.2649015","49857.8351959","50624.5352334","51391.5084912","52141.1341649","52907.7199467","53674.3504372","55212.7932515"
"Blocked","Male","ball","1","M_ball.wav","None","726.878264762","433","47557.9960306","54441.0569034","55207.5868723","55974.5554546","56724.2150252","NA","NA","NA","48324.6458073","49091.2649015","49857.8351959","50624.5352334","51391.5084912","52141.1341649","52907.7199467","53674.3504372","55980.1352835"
"Blocked","Male","ball","1","M_jaw.wav","space","444.518179807","433","47557.9960306","54441.0569034","55207.5868723","55974.5554546","56724.2150252","57490.8314895","NA","NA","48324.6458073","49091.2649015","49857.8351959","50624.5352334","51391.5084912","52141.1341649","52907.7199467","53674.3504372","56729.2864014"
"Blocked","Male","ball","1","M_ball.wav","None","738.345916074","433","47557.9960306","54441.0569034","55207.5868723","55974.5554546","56724.2150252","57490.8314895","58257.4514603","NA","48324.6458073","49091.2649015","49857.8351959","50624.5352334","51391.5084912","52141.1341649","52907.7199467","53674.3504372","57495.9887766"
"Blocked","Male","ball","1","M_priest.wav","space","486.828448098","433","47557.9960306","54441.0569034","55207.5868723","55974.5554546","56724.2150252","57490.8314895","58257.4514603","59024.1266596","48324.6458073","49091.2649015","49857.8351959","50624.5352334","51391.5084912","52141.1341649","52907.7199467","53674.3504372","58262.7399516"
"Blocked","Male","tile","13","M_priest.wav","None","732.617642487","433","62140.7279872","54441.0569034","55207.5868723","55974.5554546","56724.2150252","57490.8314895","58257.4514603","59024.1266596","48324.6458073","49091.2649015","49857.8351959","50624.5352334","51391.5084912","52141.1341649","52907.7199467","53674.3504372","59029.2079711"
"Blocked","Male","tile","13","M_lash.wav","None","741.457119915","433","62140.7279872","54441.0569034","55207.5868723","55974.5554546","56724.2150252","57490.8314895","58257.4514603","59024.1266596","62907.2547418","49091.2649015","49857.8351959","50624.5352334","51391.5084912","52141.1341649","52907.7199467","53674.3504372","62145.7382907"
"Blocked","Male","tile","13","M_romp.wav","None","738.763782279","433","62140.7279872","54441.0569034","55207.5868723","55974.5554546","56724.2150252","57490.8314895","58257.4514603","59024.1266596","62907.2547418","63673.8460756","49857.8351959","50624.5352334","51391.5084912","52141.1341649","52907.7199467","53674.3504372","62912.2273496"
"Blocked","Male","tile","13","M_greet.wav","None","735.985994761","433","62140.7279872","54441.0569034","55207.5868723","55974.5554546","56724.2150252","57490.8314895","58257.4514603","59024.1266596","62907.2547418","63673.8460756","64440.5092942","50624.5352334","51391.5084912","52141.1341649","52907.7199467","53674.3504372","63679.0515781"
"Blocked","Male","tile","13","M_gnash.wav","None","733.299085838","433","62140.7279872","54441.0569034","55207.5868723","55974.5554546","56724.2150252","57490.8314895","58257.4514603","59024.1266596","62907.2547418","63673.8460756","64440.5092942","65207.170175","51391.5084912","52141.1341649","52907.7199467","53674.3504372","64445.6256714"
"Blocked","Male","tile","13","M_lash.wav","None","730.667989814","433","62140.7279872","54441.0569034","55207.5868723","55974.5554546","56724.2150252","57490.8314895","58257.4514603","59024.1266596","62907.2547418","63673.8460756","64440.5092942","65207.170175","65974.0075532","52141.1341649","52907.7199467","53674.3504372","65212.3420729"
"Blocked","Male","tile","13","M_tile.wav","None","727.008007838","433","62140.7279872","54441.0569034","55207.5868723","55974.5554546","56724.2150252","57490.8314895","58257.4514603","59024.1266596","62907.2547418","63673.8460756","64440.5092942","65207.170175","65974.0075532","66723.727612","52907.7199467","53674.3504372","65979.9421299"
"Blocked","Male","tile","13","M_cling.wav","space","516.163240165","433","62140.7279872","54441.0569034","55207.5868723","55974.5554546","56724.2150252","57490.8314895","58257.4514603","59024.1266596","62907.2547418","63673.8460756","64440.5092942","65207.170175","65974.0075532","66723.727612","67490.3417386","53674.3504372","66728.8413593"
"Blocked","Male","tile","13","M_tile.wav","None","738.849108806","433","62140.7279872","54441.0569034","55207.5868723","55974.5554546","56724.2150252","57490.8314895","58257.4514603","59024.1266596","62907.2547418","63673.8460756","64440.5092942","65207.170175","65974.0075532","66723.727612","67490.3417386","68256.9736902","67495.6091905"
"Blocked","Male","tile","13","M_bluff.wav","space","582.805886828","433","62140.7279872","69023.5965832","55207.5868723","55974.5554546","56724.2150252","57490.8314895","58257.4514603","59024.1266596","62907.2547418","63673.8460756","64440.5092942","65207.170175","65974.0075532","66723.727612","67490.3417386","68256.9736902","68262.0418521"
"Blocked","Male","tile","13","M_tile.wav","None","733.60211189","433","62140.7279872","69023.5965832","69790.2609706","55974.5554546","56724.2150252","57490.8314895","58257.4514603","59024.1266596","62907.2547418","63673.8460756","64440.5092942","65207.170175","65974.0075532","66723.727612","67490.3417386","68256.9736902","69028.7939037"
"Blocked","Male","tile","13","M_dime.wav","space","609.312338333","433","62140.7279872","69023.5965832","69790.2609706","70557.2044225","56724.2150252","57490.8314895","58257.4514603","59024.1266596","62907.2547418","63673.8460756","64440.5092942","65207.170175","65974.0075532","66723.727612","67490.3417386","68256.9736902","69795.4641354"
"Blocked","Male","tile","13","M_jolt.wav","None","727.243532427","433","62140.7279872","69023.5965832","69790.2609706","70557.2044225","71306.8227908","57490.8314895","58257.4514603","59024.1266596","62907.2547418","63673.8460756","64440.5092942","65207.170175","65974.0075532","66723.727612","67490.3417386","68256.9736902","70563.0013664"
"Blocked","Male","tile","13","M_tile.wav","None","742.504415357","433","62140.7279872","69023.5965832","69790.2609706","70557.2044225","71306.8227908","72073.4740286","58257.4514603","59024.1266596","62907.2547418","63673.8460756","64440.5092942","65207.170175","65974.0075532","66723.727612","67490.3417386","68256.9736902","71311.7018902"
"Blocked","Male","tile","13","M_jaw.wav","space","566.148512571","433","62140.7279872","69023.5965832","69790.2609706","70557.2044225","71306.8227908","72073.4740286","72840.1129934","59024.1266596","62907.2547418","63673.8460756","64440.5092942","65207.170175","65974.0075532","66723.727612","67490.3417386","68256.9736902","72078.4714746"
"Blocked","Male","tile","13","M_depth.wav","None","736.70045831","433","62140.7279872","69023.5965832","69790.2609706","70557.2044225","71306.8227908","72073.4740286","72840.1129934","73606.7785496","62907.2547418","63673.8460756","64440.5092942","65207.170175","65974.0075532","66723.727612","67490.3417386","68256.9736902","72845.0964131"
"Blocked","Male","tile","14","M_priest.wav","None","733.923547432","433","76706.5959742","69023.5965832","69790.2609706","70557.2044225","71306.8227908","72073.4740286","72840.1129934","73606.7785496","62907.2547418","63673.8460756","64440.5092942","65207.170175","65974.0075532","66723.727612","67490.3417386","68256.9736902","73611.8540168"
"Blocked","Male","tile","14","M_lash.wav","None","740.883795792","433","76706.5959742","69023.5965832","69790.2609706","70557.2044225","71306.8227908","72073.4740286","72840.1129934","73606.7785496","77473.2229582","63673.8460756","64440.5092942","65207.170175","65974.0075532","66723.727612","67490.3417386","68256.9736902","76712.0913532"
"Blocked","Male","tile","14","M_tile.wav","None","738.68809882","433","76706.5959742","69023.5965832","69790.2609706","70557.2044225","71306.8227908","72073.4740286","72840.1129934","73606.7785496","77473.2229582","78239.8718583","64440.5092942","65207.170175","65974.0075532","66723.727612","67490.3417386","68256.9736902","77478.2095923"
"Blocked","Male","tile","14","M_cling.wav","space","415.147445405","433","76706.5959742","69023.5965832","69790.2609706","70557.2044225","71306.8227908","72073.4740286","72840.1129934","73606.7785496","77473.2229582","78239.8718583","79006.5096542","65207.170175","65974.0075532","66723.727612","67490.3417386","68256.9736902","78244.9511243"
"Blocked","Male","tile","14","M_tile.wav","None","733.163790697","433","76706.5959742","69023.5965832","69790.2609706","70557.2044225","71306.8227908","72073.4740286","72840.1129934","73606.7785496","77473.2229582","78239.8718583","79006.5096542","79773.0971893","65974.0075532","66723.727612","67490.3417386","68256.9736902","79011.5485946"
"Blocked","Male","tile","14","M_jaw.wav","space","577.72574418","433","76706.5959742","69023.5965832","69790.2609706","70557.2044225","71306.8227908","72073.4740286","72840.1129934","73606.7785496","77473.2229582","78239.8718583","79006.5096542","79773.0971893","80540.0637261","66723.727612","67490.3417386","68256.9736902","79778.1974947"
"Blocked","Male","tile","14","M_tile.wav","None","726.451047703","433","76706.5959742","69023.5965832","69790.2609706","70557.2044225","71306.8227908","72073.4740286","72840.1129934","73606.7785496","77473.2229582","78239.8718583","79006.5096542","79773.0971893","80540.0637261","81289.7130691","67490.3417386","68256.9736902","80545.9386911"
"Blocked","Male","tile","14","M_depth.wav","space","557.21377334","433","76706.5959742","69023.5965832","69790.2609706","70557.2044225","71306.8227908","72073.4740286","72840.1129934","73606.7785496","77473.2229582","78239.8718583","79006.5096542","79773.0971893","80540.0637261","81289.7130691","82056.342683","68256.9736902","81294.6561633"
"Blocked","Male","tile","14","M_knife.wav","None","738.793295906","433","76706.5959742","69023.5965832","69790.2609706","70557.2044225","71306.8227908","72073.4740286","72840.1129934","73606.7785496","77473.2229582","78239.8718583","79006.5096542","79773.0971893","80540.0637261","81289.7130691","82056.342683","82823.0208045","82061.3582463"
"Blocked","Male","tile","14","M_park.wav","None","736.112815692","433","76706.5959742","83589.5913911","69790.2609706","70557.2044225","71306.8227908","72073.4740286","72840.1129934","73606.7785496","77473.2229582","78239.8718583","79006.5096542","79773.0971893","80540.0637261","81289.7130691","82056.342683","82823.0208045","82828.177215"
"Blocked","Male","tile","14","M_jolt.wav","None","733.615553741","433","76706.5959742","83589.5913911","84356.2025956","70557.2044225","71306.8227908","72073.4740286","72840.1129934","73606.7785496","77473.2229582","78239.8718583","79006.5096542","79773.0971893","80540.0637261","81289.7130691","82056.342683","82823.0208045","83594.6849756"
"Blocked","Male","tile","14","M_tile.wav","None","730.93478131","433","76706.5959742","83589.5913911","84356.2025956","85123.2044903","71306.8227908","72073.4740286","72840.1129934","73606.7785496","77473.2229582","78239.8718583","79006.5096542","79773.0971893","80540.0637261","81289.7130691","82056.342683","82823.0208045","84361.3373823"
"Blocked","Male","tile","14","M_gnash.wav","space","514.670025957","433","76706.5959742","83589.5913911","84356.2025956","85123.2044903","85872.8257808","72073.4740286","72840.1129934","73606.7785496","77473.2229582","78239.8718583","79006.5096542","79773.0971893","80540.0637261","81289.7130691","82056.342683","82823.0208045","85128.7521755"
"Blocked","Male","tile","14","M_priest.wav","None","742.296651108","433","76706.5959742","83589.5913911","84356.2025956","85123.2044903","85872.8257808","86639.5106232","72840.1129934","73606.7785496","77473.2229582","78239.8718583","79006.5096542","79773.0971893","80540.0637261","81289.7130691","82056.342683","82823.0208045","85877.7016657"
"Blocked","Male","tile","14","M_dime.wav","None","739.24505895","433","76706.5959742","83589.5913911","84356.2025956","85123.2044903","85872.8257808","86639.5106232","87406.0797487","73606.7785496","77473.2229582","78239.8718583","79006.5096542","79773.0971893","80540.0637261","81289.7130691","82056.342683","82823.0208045","86644.7903481"
"Blocked","Male","tile","14","M_jaw.wav","None","736.85270187","433","76706.5959742","83589.5913911","84356.2025956","85123.2044903","85872.8257808","86639.5106232","87406.0797487","88172.7321554","77473.2229582","78239.8718583","79006.5096542","79773.0971893","80540.0637261","81289.7130691","82056.342683","82823.0208045","87411.3048296"
"Blocked","Male","tile","17","M_greet.wav","None","734.493072774","433","91289.214844","83589.5913911","84356.2025956","85123.2044903","85872.8257808","86639.5106232","87406.0797487","88172.7321554","77473.2229582","78239.8718583","79006.5096542","79773.0971893","80540.0637261","81289.7130691","82056.342683","82823.0208045","88177.8824294"
"Blocked","Male","tile","17","M_gnash.wav","None","741.533095588","433","91289.214844","83589.5913911","84356.2025956","85123.2044903","85872.8257808","86639.5106232","87406.0797487","88172.7321554","92055.854101","78239.8718583","79006.5096542","79773.0971893","80540.0637261","81289.7130691","82056.342683","82823.0208045","91294.2643042"
"Blocked","Male","tile","17","M_romp.wav","None","738.637837992","433","91289.214844","83589.5913911","84356.2025956","85123.2044903","85872.8257808","86639.5106232","87406.0797487","88172.7321554","92055.854101","92822.4787473","79006.5096542","79773.0971893","80540.0637261","81289.7130691","82056.342683","82823.0208045","92061.2223668"
"Blocked","Male","tile","17","M_tile.wav","None","736.523084332","433","91289.214844","83589.5913911","84356.2025956","85123.2044903","85872.8257808","86639.5106232","87406.0797487","88172.7321554","92055.854101","92822.4787473","93589.1758626","79773.0971893","80540.0637261","81289.7130691","82056.342683","82823.0208045","92827.6725612"
"Blocked","Male","tile","17","M_park.wav","space","496.505703435","433","91289.214844","83589.5913911","84356.2025956","85123.2044903","85872.8257808","86639.5106232","87406.0797487","88172.7321554","92055.854101","92822.4787473","93589.1758626","94355.7750863","80540.0637261","81289.7130691","82056.342683","82823.0208045","93594.317078"
"Blocked","Male","tile","17","M_bluff.wav","None","731.117707357","433","91289.214844","83589.5913911","84356.2025956","85123.2044903","85872.8257808","86639.5106232","87406.0797487","88172.7321554","92055.854101","92822.4787473","93589.1758626","94355.7750863","95122.6086657","81289.7130691","82056.342683","82823.0208045","94360.9414321"
"Blocked","Male","tile","17","M_tile.wav","None","727.853967743","433","91289.214844","83589.5913911","84356.2025956","85123.2044903","85872.8257808","86639.5106232","87406.0797487","88172.7321554","92055.854101","92822.4787473","93589.1758626","94355.7750863","95122.6086657","95872.3521017","82056.342683","82823.0208045","95128.2478139"
"Blocked","Male","tile","17","M_reek.wav","space","573.279413984","433","91289.214844","83589.5913911","84356.2025956","85123.2044903","85872.8257808","86639.5106232","87406.0797487","88172.7321554","92055.854101","92822.4787473","93589.1758626","94355.7750863","95122.6086657","95872.3521017","96638.9641827","82823.0208045","95877.3986397"
"Blocked","Male","tile","17","M_reek.wav","None","740.140695259","433","91289.214844","83589.5913911","84356.2025956","85123.2044903","85872.8257808","86639.5106232","87406.0797487","88172.7321554","92055.854101","92822.4787473","93589.1758626","94355.7750863","95122.6086657","95872.3521017","96638.9641827","97405.6405509","96643.8356845"
"Blocked","Male","tile","17","M_tile.wav","None","737.407032077","433","91289.214844","98172.2175663","84356.2025956","85123.2044903","85872.8257808","86639.5106232","87406.0797487","88172.7321554","92055.854101","92822.4787473","93589.1758626","94355.7750863","95122.6086657","95872.3521017","96638.9641827","97405.6405509","97410.7902405"
"Blocked","Male","tile","17","M_greet.wav","space","561.042947294","433","91289.214844","98172.2175663","98938.8375371","85123.2044903","85872.8257808","86639.5106232","87406.0797487","88172.7321554","92055.854101","92822.4787473","93589.1758626","94355.7750863","95122.6086657","95872.3521017","96638.9641827","97405.6405509","98177.4514136"
"Blocked","Male","tile","17","M_lash.wav","None","732.539621313","433","91289.214844","98172.2175663","98938.8375371","99705.5007557","85872.8257808","86639.5106232","87406.0797487","88172.7321554","92055.854101","92822.4787473","93589.1758626","94355.7750863","95122.6086657","95872.3521017","96638.9641827","97405.6405509","98943.5471523"
"Blocked","Male","tile","17","M_tile.wav","None","729.630337439","433","91289.214844","98172.2175663","98938.8375371","99705.5007557","100472.457942","86639.5106232","87406.0797487","88172.7321554","92055.854101","92822.4787473","93589.1758626","94355.7750863","95122.6086657","95872.3521017","96638.9641827","97405.6405509","99710.6022299"
"Blocked","Male","tile","17","M_jolt.wav","space","588.41347598","433","91289.214844","98172.2175663","98938.8375371","99705.5007557","100472.457942","101222.076018","87406.0797487","88172.7321554","92055.854101","92822.4787473","93589.1758626","94355.7750863","95122.6086657","95872.3521017","96638.9641827","97405.6405509","100477.858351"
"Blocked","Male","tile","17","M_lash.wav","None","740.976135457","433","91289.214844","98172.2175663","98938.8375371","99705.5007557","100472.457942","101222.076018","101988.731054","88172.7321554","92055.854101","92822.4787473","93589.1758626","94355.7750863","95122.6086657","95872.3521017","96638.9641827","97405.6405509","101227.38175"
"Blocked","Male","tile","17","M_dime.wav","None","738.873070364","433","91289.214844","98172.2175663","98938.8375371","99705.5007557","100472.457942","101222.076018","101988.731054","102755.431092","92055.854101","92822.4787473","93589.1758626","94355.7750863","95122.6086657","95872.3521017","96638.9641827","97405.6405509","101993.772332"
"Blocked","Male","done","24","M_depth.wav","None","736.425192597","433","105871.892449","98172.2175663","98938.8375371","99705.5007557","100472.457942","101222.076018","101988.731054","102755.431092","92055.854101","92822.4787473","93589.1758626","94355.7750863","95122.6086657","95872.3521017","96638.9641827","97405.6405509","102760.351101"
"Blocked","Male","done","24","M_knife.wav","None","741.233576104","433","105871.892449","98172.2175663","98938.8375371","99705.5007557","100472.457942","101222.076018","101988.731054","102755.431092","106638.49401","92822.4787473","93589.1758626","94355.7750863","95122.6086657","95872.3521017","96638.9641827","97405.6405509","105877.329385"
"Blocked","Male","done","24","M_jolt.wav","None","738.90959713","433","105871.892449","98172.2175663","98938.8375371","99705.5007557","100472.457942","101222.076018","101988.731054","102755.431092","106638.49401","107405.132975","93589.1758626","94355.7750863","95122.6086657","95872.3521017","96638.9641827","97405.6405509","106643.73078"
"Blocked","Male","done","24","M_done.wav","None","736.579481661","433","105871.892449","98172.2175663","98938.8375371","99705.5007557","100472.457942","101222.076018","101988.731054","102755.431092","106638.49401","107405.132975","108171.751485","94355.7750863","95122.6086657","95872.3521017","96638.9641827","97405.6405509","107410.243216"
"Blocked","Male","done","24","M_romp.wav","space","688.919064869","433","105871.892449","98172.2175663","98938.8375371","99705.5007557","100472.457942","101222.076018","101988.731054","102755.431092","106638.49401","107405.132975","108171.751485","108938.396294","95122.6086657","95872.3521017","96638.9641827","97405.6405509","108176.779905"
"Blocked","Male","done","24","M_lash.wav","None","730.938872312","433","105871.892449","98172.2175663","98938.8375371","99705.5007557","100472.457942","101222.076018","101988.731054","102755.431092","106638.49401","107405.132975","108171.751485","108938.396294","109705.441144","95872.3521017","96638.9641827","97405.6405509","108943.484326"
"Blocked","Male","done","24","M_done.wav","None","727.317462599","433","105871.892449","98172.2175663","98938.8375371","99705.5007557","100472.457942","101222.076018","101988.731054","102755.431092","106638.49401","107405.132975","108171.751485","108938.396294","109705.441144","110455.006914","96638.9641827","97405.6405509","109711.078831"
"Blocked","Male","done","24","M_bluff.wav","None","742.441881532","433","105871.892449","98172.2175663","98938.8375371","99705.5007557","100472.457942","101222.076018","101988.731054","102755.431092","106638.49401","107405.132975","108171.751485","108938.396294","109705.441144","110455.006914","111221.604384","97405.6405509","110460.15485"
"Blocked","Male","done","24","M_priest.wav","space","30.7231013976","433","105871.892449","98172.2175663","98938.8375371","99705.5007557","100472.457942","101222.076018","101988.731054","102755.431092","106638.49401","107405.132975","108171.751485","108938.396294","109705.441144","110455.006914","111221.604384","111988.295947","111226.772775"
"Blocked","Male","done","24","M_romp.wav","None","737.107512592","433","105871.892449","112754.88056","98938.8375371","99705.5007557","100472.457942","101222.076018","101988.731054","102755.431092","106638.49401","107405.132975","108171.751485","108938.396294","109705.441144","110455.006914","111221.604384","111988.295947","111993.486547"
"Blocked","Male","done","24","M_jaw.wav","None","734.721292007","433","105871.892449","112754.88056","113521.574169","99705.5007557","100472.457942","101222.076018","101988.731054","102755.431092","106638.49401","107405.132975","108171.751485","108938.396294","109705.441144","110455.006914","111221.604384","111988.295947","112759.906059"
"Blocked","Male","done","24","M_done.wav","None","732.161496231","433","105871.892449","112754.88056","113521.574169","114288.106768","100472.457942","101222.076018","101988.731054","102755.431092","106638.49401","107405.132975","108171.751485","108938.396294","109705.441144","110455.006914","111221.604384","111988.295947","113526.701066"
"Blocked","Male","done","24","M_jaw.wav","space","715.908254115","433","105871.892449","112754.88056","113521.574169","114288.106768","115038.084852","101222.076018","101988.731054","102755.431092","106638.49401","107405.132975","108171.751485","108938.396294","109705.441144","110455.006914","111221.604384","111988.295947","114293.284218"
"Blocked","Male","done","24","M_romp.wav","None","743.459663347","433","105871.892449","112754.88056","113521.574169","114288.106768","115038.084852","115804.749532","101988.731054","102755.431092","106638.49401","107405.132975","108171.751485","108938.396294","109705.441144","110455.006914","111221.604384","111988.295947","115043.24097"
"Blocked","Male","done","24","M_done.wav","None","740.913601632","433","105871.892449","112754.88056","113521.574169","114288.106768","115038.084852","115804.749532","116571.389665","102755.431092","106638.49401","107405.132975","108171.751485","108938.396294","109705.441144","110455.006914","111221.604384","111988.295947","115810.046497"
"Blocked","Male","done","24","M_gnash.wav","space","648.630041716","433","105871.892449","112754.88056","113521.574169","114288.106768","115038.084852","115804.749532","116571.389665","117338.01022","106638.49401","107405.132975","108171.751485","108938.396294","109705.441144","110455.006914","111221.604384","111988.295947","116576.387111"
"Blocked","Male","ball","4","M_dime.wav","None","735.82878356","433","120437.831152","112754.88056","113521.574169","114288.106768","115038.084852","115804.749532","116571.389665","117338.01022","106638.49401","107405.132975","108171.751485","108938.396294","109705.441144","110455.006914","111221.604384","111988.295947","117342.997439"
"Blocked","Male","ball","4","M_ball.wav","None","741.199387052","433","120437.831152","112754.88056","113521.574169","114288.106768","115038.084852","115804.749532","116571.389665","117338.01022","121204.530897","107405.132975","108171.751485","108938.396294","109705.441144","110455.006914","111221.604384","111988.295947","120443.270718"
"Blocked","Male","ball","4","M_greet.wav","space","543.055122103","433","120437.831152","112754.88056","113521.574169","114288.106768","115038.084852","115804.749532","116571.389665","117338.01022","121204.530897","121971.112296","108171.751485","108938.396294","109705.441144","110455.006914","111221.604384","111988.295947","121209.62565"
"Blocked","Male","ball","4","M_reek.wav","None","735.90651252","433","120437.831152","112754.88056","113521.574169","114288.106768","115038.084852","115804.749532","116571.389665","117338.01022","121204.530897","121971.112296","122737.747169","108938.396294","109705.441144","110455.006914","111221.604384","111988.295947","121976.157373"
"Blocked","Male","ball","4","M_knife.wav","None","733.44080969","433","120437.831152","112754.88056","113521.574169","114288.106768","115038.084852","115804.749532","116571.389665","117338.01022","121204.530897","121971.112296","122737.747169","123504.384965","109705.441144","110455.006914","111221.604384","111988.295947","122742.78348"
"Blocked","Male","ball","4","M_ball.wav","None","730.875461843","433","120437.831152","112754.88056","113521.574169","114288.106768","115038.084852","115804.749532","116571.389665","117338.01022","121204.530897","121971.112296","122737.747169","123504.384965","124271.310884","110455.006914","111221.604384","111988.295947","123509.650664"
"Blocked","Male","ball","4","M_romp.wav","space","547.452652547","433","120437.831152","112754.88056","113521.574169","114288.106768","115038.084852","115804.749532","116571.389665","117338.01022","121204.530897","121971.112296","122737.747169","123504.384965","124271.310884","125020.955552","111221.604384","111988.295947","124277.001462"
"Blocked","Male","ball","4","M_depth.wav","None","742.350126297","433","120437.831152","112754.88056","113521.574169","114288.106768","115038.084852","115804.749532","116571.389665","117338.01022","121204.530897","121971.112296","122737.747169","123504.384965","124271.310884","125020.955552","125787.614972","111988.295947","125026.039201"
"Blocked","Male","ball","4","M_jolt.wav","None","740.174299885","433","120437.831152","112754.88056","113521.574169","114288.106768","115038.084852","115804.749532","116571.389665","117338.01022","121204.530897","121971.112296","122737.747169","123504.384965","124271.310884","125020.955552","125787.614972","126554.221208","125792.527091"
"Blocked","Male","ball","4","M_priest.wav","None","737.394466865","433","120437.831152","127320.85579","113521.574169","114288.106768","115038.084852","115804.749532","116571.389665","117338.01022","121204.530897","121971.112296","122737.747169","123504.384965","124271.310884","125020.955552","125787.614972","126554.221208","126559.38434"
"Blocked","Male","ball","4","M_dime.wav","None","735.373221731","433","120437.831152","127320.85579","128087.457936","114288.106768","115038.084852","115804.749532","116571.389665","117338.01022","121204.530897","121971.112296","122737.747169","123504.384965","124271.310884","125020.955552","125787.614972","126554.221208","127325.785442"
"Blocked","Male","ball","4","M_bluff.wav","None","733.013592631","433","120437.831152","127320.85579","128087.457936","128854.124076","115038.084852","115804.749532","116571.389665","117338.01022","121204.530897","121971.112296","122737.747169","123504.384965","124271.310884","125020.955552","125787.614972","126554.221208","128092.500967"
"Blocked","Male","ball","4","M_ball.wav","None","730.481557199","433","120437.831152","127320.85579","128087.457936","128854.124076","129620.916746","115804.749532","116571.389665","117338.01022","121204.530897","121971.112296","122737.747169","123504.384965","124271.310884","125020.955552","125787.614972","126554.221208","128859.237532"
"Blocked","Male","ball","4","M_jaw.wav","space","541.320539032","433","120437.831152","127320.85579","128087.457936","128854.124076","129620.916746","130370.709274","116571.389665","117338.01022","121204.530897","121971.112296","122737.747169","123504.384965","124271.310884","125020.955552","125787.614972","126554.221208","129626.624564"
"Blocked","Male","ball","4","M_ball.wav","None","741.756931609","433","120437.831152","127320.85579","128087.457936","128854.124076","129620.916746","130370.709274","131137.318141","117338.01022","121204.530897","121971.112296","122737.747169","123504.384965","124271.310884","125020.955552","125787.614972","126554.221208","130376.068189"
"Blocked","Male","ball","4","M_greet.wav","space","553.600837837","433","120437.831152","127320.85579","128087.457936","128854.124076","129620.916746","130370.709274","131137.318141","131903.961489","121204.530897","121971.112296","122737.747169","123504.384965","124271.310884","125020.955552","125787.614972","126554.221208","131142.291041"
"Blocked","Male","ball","2","M_depth.wav","None","737.156312352","433","135020.795419","127320.85579","128087.457936","128854.124076","129620.916746","130370.709274","131137.318141","131903.961489","121204.530897","121971.112296","122737.747169","123504.384965","124271.310884","125020.955552","125787.614972","126554.221208","131909.009195"
"Blocked","Male","ball","2","M_bluff.wav","None","723.964597673","433","135020.795419","127320.85579","128087.457936","128854.124076","129620.916746","130370.709274","131137.318141","131903.961489","135770.435411","121971.112296","122737.747169","123504.384965","124271.310884","125020.955552","125787.614972","126554.221208","135026.298395"
"Blocked","Male","ball","2","M_ball.wav","None","738.82339396","433","135020.795419","127320.85579","128087.457936","128854.124076","129620.916746","130370.709274","131137.318141","131903.961489","135770.435411","136537.06444","122737.747169","123504.384965","124271.310884","125020.955552","125787.614972","126554.221208","135775.741727"
"Blocked","Male","ball","2","M_park.wav","space","560.768558229","433","135020.795419","127320.85579","128087.457936","128854.124076","129620.916746","130370.709274","131137.318141","131903.961489","135770.435411","136537.06444","137303.751036","123504.384965","124271.310884","125020.955552","125787.614972","126554.221208","136542.676997"
"Blocked","Male","ball","2","M_park.wav","None","734.025822378","433","135020.795419","127320.85579","128087.457936","128854.124076","129620.916746","130370.709274","131137.318141","131903.961489","135770.435411","136537.06444","137303.751036","138070.374806","124271.310884","125020.955552","125787.614972","126554.221208","137308.756664"
"Blocked","Male","ball","2","M_priest.wav","None","731.579990112","433","135020.795419","127320.85579","128087.457936","128854.124076","129620.916746","130370.709274","131137.318141","131903.961489","135770.435411","136537.06444","137303.751036","138070.374806","138836.957373","125020.955552","125787.614972","126554.221208","138075.471604"
"Blocked","Male","ball","2","M_lash.wav","None","729.266530845","433","135020.795419","127320.85579","128087.457936","128854.124076","129620.916746","130370.709274","131137.318141","131903.961489","135770.435411","136537.06444","137303.751036","138070.374806","138836.957373","139586.940425","125787.614972","126554.221208","138842.076672"
"Blocked","Male","ball","2","M_bluff.wav","None","743.562230506","433","135020.795419","127320.85579","128087.457936","128854.124076","129620.916746","130370.709274","131137.318141","131903.961489","135770.435411","136537.06444","137303.751036","138070.374806","138836.957373","139586.940425","140353.566532","126554.221208","139592.030795"
"Blocked","Male","ball","2","M_lash.wav","None","741.204939121","433","135020.795419","127320.85579","128087.457936","128854.124076","129620.916746","130370.709274","131137.318141","131903.961489","135770.435411","136537.06444","137303.751036","138070.374806","138836.957373","139586.940425","140353.566532","141120.265401","140358.703364"
"Blocked","Male","ball","2","M_ball.wav","None","738.826900531","433","135020.795419","141886.793908","128087.457936","128854.124076","129620.916746","130370.709274","131137.318141","131903.961489","135770.435411","136537.06444","137303.751036","138070.374806","138836.957373","139586.940425","140353.566532","141120.265401","141125.437883"
"Blocked","Male","ball","2","M_priest.wav","space","522.943484615","433","135020.795419","141886.793908","142653.462387","128854.124076","129620.916746","130370.709274","131137.318141","131903.961489","135770.435411","136537.06444","137303.751036","138070.374806","138836.957373","139586.940425","140353.566532","141120.265401","141892.064867"
"Blocked","Male","ball","2","M_priest.wav","None","733.84289633","433","135020.795419","141886.793908","142653.462387","143420.211516","129620.916746","130370.709274","131137.318141","131903.961489","135770.435411","136537.06444","137303.751036","138070.374806","138836.957373","139586.940425","140353.566532","141120.265401","142658.495191"
"Blocked","Male","ball","2","M_ball.wav","None","731.485604949","433","135020.795419","141886.793908","142653.462387","143420.211516","144186.725706","130370.709274","131137.318141","131903.961489","135770.435411","136537.06444","137303.751036","138070.374806","138836.957373","139586.940425","140353.566532","141120.265401","143425.258347"
"Blocked","Male","ball","2","M_dime.wav","space","622.784578576","433","135020.795419","141886.793908","142653.462387","143420.211516","144186.725706","144953.603409","131137.318141","131903.961489","135770.435411","136537.06444","137303.751036","138070.374806","138836.957373","139586.940425","140353.566532","141120.265401","144192.041665"
"Blocked","Male","ball","2","M_ball.wav","None","726.413352084","433","135020.795419","141886.793908","142653.462387","143420.211516","144186.725706","144953.603409","145703.304766","131903.961489","135770.435411","136537.06444","137303.751036","138070.374806","138836.957373","139586.940425","140353.566532","141120.265401","144959.453828"
"Blocked","Male","ball","2","M_jaw.wav","space","561.883062917","433","135020.795419","141886.793908","142653.462387","143420.211516","144186.725706","144953.603409","145703.304766","146469.922984","135770.435411","136537.06444","137303.751036","138070.374806","138836.957373","139586.940425","140353.566532","141120.265401","145708.844562"
"Blocked","Male","tile","15","M_gnash.wav","None","739.70354292","433","149586.485447","141886.793908","142653.462387","143420.211516","144186.725706","144953.603409","145703.304766","146469.922984","135770.435411","136537.06444","137303.751036","138070.374806","138836.957373","139586.940425","140353.566532","141120.265401","146474.863156"
"Blocked","Male","tile","15","M_knife.wav","None","741.754886112","433","149586.485447","141886.793908","142653.462387","143420.211516","144186.725706","144953.603409","145703.304766","146469.922984","150353.07269","136537.06444","137303.751036","138070.374806","138836.957373","139586.940425","140353.566532","141120.265401","149591.600948"
"Blocked","Male","tile","15","M_dime.wav","None","739.241844596","433","149586.485447","141886.793908","142653.462387","143420.211516","144186.725706","144953.603409","145703.304766","146469.922984","150353.07269","151119.692076","137303.751036","138070.374806","138836.957373","139586.940425","140353.566532","141120.265401","150358.490632"
"Blocked","Male","tile","15","M_greet.wav","None","737.692525279","433","149586.485447","141886.793908","142653.462387","143420.211516","144186.725706","144953.603409","145703.304766","146469.922984","150353.07269","151119.692076","151886.387146","138070.374806","138836.957373","139586.940425","140353.566532","141120.265401","151124.721082"
"Blocked","Male","tile","15","M_tile.wav","None","735.471990109","433","149586.485447","141886.793908","142653.462387","143420.211516","144186.725706","144953.603409","145703.304766","146469.922984","150353.07269","151119.692076","151886.387146","152652.946629","138836.957373","139586.940425","140353.566532","141120.265401","151891.372904"
"Blocked","Male","tile","15","M_depth.wav","space","660.023470638","433","149586.485447","141886.793908","142653.462387","143420.211516","144186.725706","144953.603409","145703.304766","146469.922984","150353.07269","151119.692076","151886.387146","152652.946629","153419.603711","139586.940425","140353.566532","141120.265401","152658.175508"
"Blocked","Male","tile","15","M_tile.wav","None","730.096711188","433","149586.485447","141886.793908","142653.462387","143420.211516","144186.725706","144953.603409","145703.304766","146469.922984","150353.07269","151119.692076","151886.387146","152652.946629","153419.603711","154186.502454","140353.566532","141120.265401","153424.999153"
"Blocked","Male","tile","15","M_dime.wav","space","669.909659078","433","149586.485447","141886.793908","142653.462387","143420.211516","144186.725706","144953.603409","145703.304766","146469.922984","150353.07269","151119.692076","151886.387146","152652.946629","153419.603711","154186.502454","154936.203811","141120.265401","154192.067672"
"Blocked","Male","tile","15","M_tile.wav","None","742.06229538","433","149586.485447","141886.793908","142653.462387","143420.211516","144186.725706","144953.603409","145703.304766","146469.922984","150353.07269","151119.692076","151886.387146","152652.946629","153419.603711","154186.502454","154936.203811","155702.841023","154941.182556"
"Blocked","Male","tile","15","M_lash.wav","space","529.836523729","433","149586.485447","156469.47502","142653.462387","143420.211516","144186.725706","144953.603409","145703.304766","146469.922984","150353.07269","151119.692076","151886.387146","152652.946629","153419.603711","154186.502454","154936.203811","155702.841023","155708.030746"
"Blocked","Male","tile","15","M_lash.wav","None","736.68000332","433","149586.485447","156469.47502","157236.093822","143420.211516","144186.725706","144953.603409","145703.304766","146469.922984","150353.07269","151119.692076","151886.387146","152652.946629","153419.603711","154186.502454","154936.203811","155702.841023","156474.610975"
"Blocked","Male","tile","15","M_lash.wav","None","734.323588575","433","149586.485447","156469.47502","157236.093822","158002.742137","144186.725706","144953.603409","145703.304766","146469.922984","150353.07269","151119.692076","151886.387146","152652.946629","153419.603711","154186.502454","154936.203811","155702.841023","157241.369748"
"Blocked","Male","tile","15","M_depth.wav","None","732.867485567","433","149586.485447","156469.47502","157236.093822","158002.742137","158769.361524","144953.603409","145703.304766","146469.922984","150353.07269","151119.692076","151886.387146","152652.946629","153419.603711","154186.502454","154936.203811","155702.841023","158007.867281"
"Blocked","Male","tile","15","M_tile.wav","None","730.95202195","433","149586.485447","156469.47502","157236.093822","158002.742137","158769.361524","159535.954903","145703.304766","146469.922984","150353.07269","151119.692076","151886.387146","152652.946629","153419.603711","154186.502454","154936.203811","155702.841023","158774.397834"
"Blocked","Male","tile","15","M_priest.wav","space","560.720342895","433","149586.485447","156469.47502","157236.093822","158002.742137","158769.361524","159535.954903","160285.92013","146469.922984","150353.07269","151119.692076","151886.387146","152652.946629","153419.603711","154186.502454","154936.203811","155702.841023","159540.854457"
"Blocked","Male","tile","15","M_reek.wav","None","742.906209784","433","149586.485447","156469.47502","157236.093822","158002.742137","158769.361524","159535.954903","160285.92013","161052.597375","150353.07269","151119.692076","151886.387146","152652.946629","153419.603711","154186.502454","154936.203811","155702.841023","160291.02774"
"Blocked","Male","cave","12","M_bluff.wav","None","740.977012098","433","164152.436131","156469.47502","157236.093822","158002.742137","158769.361524","159535.954903","160285.92013","161052.597375","150353.07269","151119.692076","151886.387146","152652.946629","153419.603711","154186.502454","154936.203811","155702.841023","161057.753493"
"Blocked","Male","cave","12","M_cave.wav","None","741.493938895","433","164152.436131","156469.47502","157236.093822","158002.742137","158769.361524","159535.954903","160285.92013","161052.597375","164919.067498","151119.692076","151886.387146","152652.946629","153419.603711","154186.502454","154936.203811","155702.841023","164157.47361"
"Blocked","Male","cave","12","M_cad.wav","space","617.023284791","433","164152.436131","156469.47502","157236.093822","158002.742137","158769.361524","159535.954903","160285.92013","161052.597375","164919.067498","165685.705586","151886.387146","152652.946629","153419.603711","154186.502454","154936.203811","155702.841023","164924.130108"
"Blocked","Male","cave","12","M_park.wav","None","736.027781382","433","164152.436131","156469.47502","157236.093822","158002.742137","158769.361524","159535.954903","160285.92013","161052.597375","164919.067498","165685.705586","166452.386337","152652.946629","153419.603711","154186.502454","154936.203811","155702.841023","165691.000506"
"Blocked","Male","cave","12","M_depth.wav","None","734.12868175","433","164152.436131","156469.47502","157236.093822","158002.742137","158769.361524","159535.954903","160285.92013","161052.597375","164919.067498","165685.705586","166452.386337","167218.92069","153419.603711","154186.502454","154936.203811","155702.841023","166457.365374"
"Blocked","Male","cave","12","M_romp.wav","None","731.923049498","433","164152.436131","156469.47502","157236.093822","158002.742137","158769.361524","159535.954903","160285.92013","161052.597375","164919.067498","165685.705586","166452.386337","167218.92069","167985.587415","154186.502454","154936.203811","155702.841023","167224.201876"
"Blocked","Male","cave","12","M_cad.wav","None","729.881057163","433","164152.436131","156469.47502","157236.093822","158002.742137","158769.361524","159535.954903","160285.92013","161052.597375","164919.067498","165685.705586","166452.386337","167218.92069","167985.587415","168752.414565","154936.203811","155702.841023","167990.634245"
"Blocked","Male","cave","12","M_cling.wav","None","726.973234352","433","164152.436131","156469.47502","157236.093822","158002.742137","158769.361524","159535.954903","160285.92013","161052.597375","164919.067498","165685.705586","166452.386337","167218.92069","167985.587415","168752.414565","169502.177872","155702.841023","168758.023908"
"Blocked","Male","cave","12","M_cave.wav","None","742.091809003","433","164152.436131","156469.47502","157236.093822","158002.742137","158769.361524","159535.954903","160285.92013","161052.597375","164919.067498","165685.705586","166452.386337","167218.92069","167985.587415","168752.414565","169502.177872","170268.860377","169507.311782"
"Blocked","Male","cave","12","M_romp.wav","space","594.766503378","433","164152.436131","171035.436223","157236.093822","158002.742137","158769.361524","159535.954903","160285.92013","161052.597375","164919.067498","165685.705586","166452.386337","167218.92069","167985.587415","168752.414565","169502.177872","170268.860377","170273.980845"
"Blocked","Male","cave","12","M_cave.wav","None","736.546753673","433","164152.436131","171035.436223","171802.067883","158002.742137","158769.361524","159535.954903","160285.92013","161052.597375","164919.067498","165685.705586","166452.386337","167218.92069","167985.587415","168752.414565","169502.177872","170268.860377","171040.700461"
"Blocked","Male","cave","12","M_park.wav","space","709.293695072","433","164152.436131","171035.436223","171802.067883","172568.717075","158769.361524","159535.954903","160285.92013","161052.597375","164919.067498","165685.705586","166452.386337","167218.92069","167985.587415","168752.414565","169502.177872","170268.860377","171807.347315"
"Blocked","Male","cave","12","M_priest.wav","None","731.684310555","433","164152.436131","171035.436223","171802.067883","172568.717075","173335.304902","159535.954903","160285.92013","161052.597375","164919.067498","165685.705586","166452.386337","167218.92069","167985.587415","168752.414565","169502.177872","170268.860377","172573.761567"
"Blocked","Male","cave","12","M_cave.wav","None","729.788133067","433","164152.436131","171035.436223","171802.067883","172568.717075","173335.304902","174102.111013","160285.92013","161052.597375","164919.067498","165685.705586","166452.386337","167218.92069","167985.587415","168752.414565","169502.177872","170268.860377","173340.369265"
"Blocked","Male","cave","12","M_cad.wav","space","644.094586205","433","164152.436131","171035.436223","171802.067883","172568.717075","173335.304902","174102.111013","174851.90997","161052.597375","164919.067498","165685.705586","166452.386337","167218.92069","167985.587415","168752.414565","169502.177872","170268.860377","174104.321029"
"Blocked","Male","cave","12","M_jolt.wav","None","740.972628886","433","164152.436131","171035.436223","171802.067883","172568.717075","173335.304902","174102.111013","174851.90997","175618.606793","164919.067498","165685.705586","166452.386337","167218.92069","167985.587415","168752.414565","169502.177872","170268.860377","174857.164564"
"Blocked","Male","cave","9","M_park.wav","None","739.026482785","433","178735.137405","171035.436223","171802.067883","172568.717075","173335.304902","174102.111013","174851.90997","175618.606793","164919.067498","165685.705586","166452.386337","167218.92069","167985.587415","168752.414565","169502.177872","170268.860377","175623.695118"
"Blocked","Male","cave","9","M_cave.wav","None","741.488386826","433","178735.137405","171035.436223","171802.067883","172568.717075","173335.304902","174102.111013","174851.90997","175618.606793","179501.690751","165685.705586","166452.386337","167218.92069","167985.587415","168752.414565","169502.177872","170268.860377","178740.227775"
"Blocked","Male","cave","9","M_lash.wav","space","601.144953402","433","178735.137405","171035.436223","171802.067883","172568.717075","173335.304902","174102.111013","174851.90997","175618.606793","179501.690751","180268.342281","166452.386337","167218.92069","167985.587415","168752.414565","169502.177872","170268.860377","179506.837811"
"Blocked","Male","cave","9","M_cave.wav","None","736.283468745","433","178735.137405","171035.436223","171802.067883","172568.717075","173335.304902","174102.111013","174851.90997","175618.606793","179501.690751","180268.342281","181035.016896","167218.92069","167985.587415","168752.414565","169502.177872","170268.860377","180273.500153"
"Blocked","Male","cave","9","M_reek.wav","space","563.636055482","433","178735.137405","171035.436223","171802.067883","172568.717075","173335.304902","174102.111013","174851.90997","175618.606793","179501.690751","180268.342281","181035.016896","181801.563229","167985.587415","168752.414565","169502.177872","170268.860377","181040.246652"
"Blocked","Male","cave","9","M_depth.wav","None","731.67028428","433","178735.137405","171035.436223","171802.067883","172568.717075","173335.304902","174102.111013","174851.90997","175618.606793","179501.690751","180268.342281","181035.016896","181801.563229","182568.225278","168752.414565","169502.177872","170268.860377","181806.601877"
"Blocked","Male","cave","9","M_jolt.wav","None","729.604330383","433","178735.137405","171035.436223","171802.067883","172568.717075","173335.304902","174102.111013","174851.90997","175618.606793","179501.690751","180268.342281","181035.016896","181801.563229","182568.225278","183335.187724","169502.177872","170268.860377","182573.280291"
"Blocked","Male","cave","9","M_cave.wav","None","726.332700982","433","178735.137405","171035.436223","171802.067883","172568.717075","173335.304902","174102.111013","174851.90997","175618.606793","179501.690751","180268.342281","181035.016896","181801.563229","182568.225278","183335.187724","184084.807261","170268.860377","183340.840314"
"Blocked","Male","cave","9","M_cad.wav","space","641.828465632","433","178735.137405","171035.436223","171802.067883","172568.717075","173335.304902","174102.111013","174851.90997","175618.606793","179501.690751","180268.342281","181035.016896","181801.563229","182568.225278","183335.187724","184084.807261","184851.417005","184089.802662"
"Blocked","Male","cave","9","M_jolt.wav","None","738.781022912","433","178735.137405","185618.070872","171802.067883","172568.717075","173335.304902","174102.111013","174851.90997","175618.606793","179501.690751","180268.342281","181035.016896","181801.563229","182568.225278","183335.187724","184084.807261","184851.417005","184856.662541"
"Blocked","Male","cave","9","M_lash.wav","None","736.770297488","433","178735.137405","185618.070872","186384.779384","172568.717075","173335.304902","174102.111013","174851.90997","175618.606793","179501.690751","180268.342281","181035.016896","181801.563229","182568.225278","183335.187724","184084.807261","184851.417005","185623.115949"
"Blocked","Male","cave","9","M_cave.wav","None","734.829703451","433","178735.137405","185618.070872","186384.779384","187151.311983","173335.304902","174102.111013","174851.90997","175618.606793","179501.690751","180268.342281","181035.016896","181801.563229","182568.225278","183335.187724","184084.807261","184851.417005","186389.595365"
"Blocked","Male","cave","9","M_priest.wav","space","486.751595781","433","178735.137405","185618.070872","186384.779384","187151.311983","187917.955331","174102.111013","174851.90997","175618.606793","179501.690751","180268.342281","181035.016896","181801.563229","182568.225278","183335.187724","184084.807261","184851.417005","187156.603396"
"Blocked","Male","cave","9","M_dime.wav","None","729.512282931","433","178735.137405","185618.070872","186384.779384","187151.311983","187917.955331","188684.929465","174851.90997","175618.606793","179501.690751","180268.342281","181035.016896","181801.563229","182568.225278","183335.187724","184084.807261","184851.417005","187923.036058"
"Blocked","Male","cave","9","M_jolt.wav","None","726.653259884","433","178735.137405","185618.070872","186384.779384","187151.311983","187917.955331","188684.929465","189434.550756","175618.606793","179501.690751","180268.342281","181035.016896","181801.563229","182568.225278","183335.187724","184084.807261","184851.417005","188690.515138"
"Blocked","Male","cave","9","M_knife.wav","None","741.922032594","433","178735.137405","185618.070872","186384.779384","187151.311983","187917.955331","188684.929465","189434.550756","190201.253423","179501.690751","180268.342281","181035.016896","181801.563229","182568.225278","183335.187724","184084.807261","184851.417005","189440.427474"
"Blocked","Male","done","22","M_romp.wav","None","740.594796018","433","193301.064711","185618.070872","186384.779384","187151.311983","187917.955331","188684.929465","189434.550756","190201.253423","179501.690751","180268.342281","181035.016896","181801.563229","182568.225278","183335.187724","184084.807261","184851.417005","190206.321001"
"Blocked","Male","done","22","M_lash.wav","None","741.473483904","433","193301.064711","185618.070872","186384.779384","187151.311983","187917.955331","188684.929465","189434.550756","190201.253423","194067.719456","180268.342281","181035.016896","181801.563229","182568.225278","183335.187724","184084.807261","184851.417005","193306.052514"
"Blocked","Male","done","22","M_dime.wav","None","739.01420979","433","193301.064711","185618.070872","186384.779384","187151.311983","187917.955331","188684.929465","189434.550756","190201.253423","194067.719456","194834.294426","181035.016896","181801.563229","182568.225278","183335.187724","184084.807261","184851.417005","194073.006194"
"Blocked","Male","done","22","M_knife.wav","None","737.180858338","433","193301.064711","185618.070872","186384.779384","187151.311983","187917.955331","188684.929465","189434.550756","190201.253423","194067.719456","194834.294426","195600.893649","181801.563229","182568.225278","183335.187724","184084.807261","184851.417005","194839.434764"
"Blocked","Male","done","22","M_cling.wav","None","735.251076225","433","193301.064711","185618.070872","186384.779384","187151.311983","187917.955331","188684.929465","189434.550756","190201.253423","194067.719456","194834.294426","195600.893649","196367.59807","182568.225278","183335.187724","184084.807261","184851.417005","195606.180972"
"Blocked","Male","done","22","M_done.wav","None","733.467108959","433","193301.064711","185618.070872","186384.779384","187151.311983","187917.955331","188684.929465","189434.550756","190201.253423","194067.719456","194834.294426","195600.893649","196367.59807","197134.250477","183335.187724","184084.807261","184851.417005","196372.719707"
"Blocked","Male","done","22","M_greet.wav","space","671.164718766","433","193301.064711","185618.070872","186384.779384","187151.311983","187917.955331","188684.929465","189434.550756","190201.253423","194067.719456","194834.294426","195600.893649","196367.59807","197134.250477","197901.084348","184084.807261","184851.417005","197139.314255"
"Blocked","Male","done","22","M_done.wav","None","727.748770656","433","193301.064711","185618.070872","186384.779384","187151.311983","187917.955331","188684.929465","189434.550756","190201.253423","194067.719456","194834.294426","195600.893649","196367.59807","197134.250477","197901.084348","198650.801193","184851.417005","197906.703334"
"Blocked","Male","done","22","M_cad.wav","None","743.180598849","433","193301.064711","185618.070872","186384.779384","187151.311983","187917.955331","188684.929465","189434.550756","190201.253423","194067.719456","194834.294426","195600.893649","196367.59807","197134.250477","197901.084348","198650.801193","199417.441326","198655.906466"
"Blocked","Male","done","22","M_bluff.wav","space","83.8081812944","433","193301.064711","200184.059836","186384.779384","187151.311983","187917.955331","188684.929465","189434.550756","190201.253423","194067.719456","194834.294426","195600.893649","196367.59807","197134.250477","197901.084348","198650.801193","199417.441326","199422.633679"
"Blocked","Male","done","22","M_done.wav","None","738.169126525","433","193301.064711","200184.059836","200950.707567","187151.311983","187917.955331","188684.929465","189434.550756","190201.253423","194067.719456","194834.294426","195600.893649","196367.59807","197134.250477","197901.084348","198650.801193","199417.441326","200189.097315"
"Blocked","Male","done","22","M_lash.wav","space","694.484867399","433","193301.064711","200184.059836","200950.707567","201717.323447","187917.955331","188684.929465","189434.550756","190201.253423","194067.719456","194834.294426","195600.893649","196367.59807","197134.250477","197901.084348","198650.801193","199417.441326","200955.811087"
"Blocked","Male","done","22","M_bluff.wav","None","732.942292383","433","193301.064711","200184.059836","200950.707567","201717.323447","202483.927931","188684.929465","189434.550756","190201.253423","194067.719456","194834.294426","195600.893649","196367.59807","197134.250477","197901.084348","198650.801193","199417.441326","201722.668044"
"Blocked","Male","done","22","M_depth.wav","None","731.277840703","433","193301.064711","200184.059836","200950.707567","201717.323447","202483.927931","203250.598747","189434.550756","190201.253423","194067.719456","194834.294426","195600.893649","196367.59807","197134.250477","197901.084348","198650.801193","199417.441326","202489.104212"
"Blocked","Male","done","22","M_done.wav","None","729.39568949","433","193301.064711","200184.059836","200950.707567","201717.323447","202483.927931","203250.598747","204017.340279","190201.253423","194067.719456","194834.294426","195600.893649","196367.59807","197134.250477","197901.084348","198650.801193","199417.441326","203255.611972"
"Blocked","Male","done","22","M_romp.wav","space","723.073344576","433","193301.064711","200184.059836","200950.707567","201717.323447","202483.927931","203250.598747","204017.340279","204767.158814","194067.719456","194834.294426","195600.893649","196367.59807","197134.250477","197901.084348","198650.801193","199417.441326","204022.980304"
"Blocked","Male","ball","5","M_lash.wav","None","741.028149572","433","207867.060104","200184.059836","200950.707567","201717.323447","202483.927931","203250.598747","204017.340279","204767.158814","194067.719456","194834.294426","195600.893649","196367.59807","197134.250477","197901.084348","198650.801193","199417.441326","204772.204475"
"Blocked","Male","ball","5","M_lash.wav","None","741.408320155","433","207867.060104","200184.059836","200950.707567","201717.323447","202483.927931","203250.598747","204017.340279","204767.158814","208633.674815","194834.294426","195600.893649","196367.59807","197134.250477","197901.084348","198650.801193","199417.441326","207872.160994"
"Blocked","Male","ball","5","M_ball.wav","None","739.380354094","433","207867.060104","200184.059836","200950.707567","201717.323447","202483.927931","203250.598747","204017.340279","204767.158814","208633.674815","209400.289526","195600.893649","196367.59807","197134.250477","197901.084348","198650.801193","199417.441326","208638.856356"
"Blocked","Male","ball","5","M_greet.wav","space","596.3511806","433","207867.060104","200184.059836","200950.707567","201717.323447","202483.927931","203250.598747","204017.340279","204767.158814","208633.674815","209400.289526","210166.943393","196367.59807","197134.250477","197901.084348","198650.801193","199417.441326","209405.247523"
"Blocked","Male","ball","5","M_ball.wav","None","735.020227065","433","207867.060104","200184.059836","200950.707567","201717.323447","202483.927931","203250.598747","204017.340279","204767.158814","208633.674815","209400.289526","210166.943393","210933.597261","197134.250477","197901.084348","198650.801193","199417.441326","210171.852591"
"Blocked","Male","ball","5","M_park.wav","space","622.868444032","433","207867.060104","200184.059836","200950.707567","201717.323447","202483.927931","203250.598747","204017.340279","204767.158814","208633.674815","209400.289526","210166.943393","210933.597261","211700.173108","197901.084348","198650.801193","199417.441326","210938.639124"
"Blocked","Male","ball","5","M_ball.wav","None","729.687026978","433","207867.060104","200184.059836","200950.707567","201717.323447","202483.927931","203250.598747","204017.340279","204767.158814","208633.674815","209400.289526","210166.943393","210933.597261","211700.173108","212466.947952","198650.801193","199417.441326","211705.509522"
"Blocked","Male","ball","5","M_jolt.wav","None","727.391100561","433","207867.060104","200184.059836","200950.707567","201717.323447","202483.927931","203250.598747","204017.340279","204767.158814","208633.674815","209400.289526","210166.943393","210933.597261","211700.173108","212466.947952","213216.773208","199417.441326","212472.592945"
"Blocked","Male","ball","5","M_greet.wav","space","19.3562639615","433","207867.060104","200184.059836","200950.707567","201717.323447","202483.927931","203250.598747","204017.340279","204767.158814","208633.674815","209400.289526","210166.943393","210933.597261","211700.173108","212466.947952","213216.773208","213983.42766","213221.965853"
"Blocked","Male","ball","5","M_ball.wav","None","740.001309117","433","207867.060104","214750.012857","200950.707567","201717.323447","202483.927931","203250.598747","204017.340279","204767.158814","208633.674815","209400.289526","210166.943393","210933.597261","211700.173108","212466.947952","213216.773208","213983.42766","213988.458419"
"Blocked","Male","ball","5","M_greet.wav","space","502.198034683","433","207867.060104","214750.012857","215516.644809","201717.323447","202483.927931","203250.598747","204017.340279","204767.158814","208633.674815","209400.289526","210166.943393","210933.597261","211700.173108","212466.947952","213216.773208","213983.42766","214755.015271"
"Blocked","Male","ball","5","M_bluff.wav","None","734.984576939","433","207867.060104","214750.012857","215516.644809","216283.245202","202483.927931","203250.598747","204017.340279","204767.158814","208633.674815","209400.289526","210166.943393","210933.597261","211700.173108","212466.947952","213216.773208","213983.42766","215521.79333"
"Blocked","Male","ball","5","M_knife.wav","None","733.470907744","433","207867.060104","214750.012857","215516.644809","216283.245202","217049.90316","203250.598747","204017.340279","204767.158814","208633.674815","209400.289526","210166.943393","210933.597261","211700.173108","212466.947952","213216.773208","213983.42766","216288.272161"
"Blocked","Male","ball","5","M_jaw.wav","None","731.377777935","433","207867.060104","214750.012857","215516.644809","216283.245202","217049.90316","217816.57836","204017.340279","204767.158814","208633.674815","209400.289526","210166.943393","210933.597261","211700.173108","212466.947952","213216.773208","213983.42766","217055.1598"
"Blocked","Male","ball","5","M_romp.wav","None","730.028040871","433","207867.060104","214750.012857","215516.644809","216283.245202","217049.90316","217816.57836","218583.544896","204767.158814","208633.674815","209400.289526","210166.943393","210933.597261","211700.173108","212466.947952","213216.773208","213983.42766","217821.55389"
"Blocked","Male","ball","5","M_gnash.wav","None","727.283273543","433","207867.060104","214750.012857","215516.644809","216283.245202","217049.90316","217816.57836","218583.544896","219333.130245","208633.674815","209400.289526","210166.943393","210933.597261","211700.173108","212466.947952","213216.773208","213983.42766","218589.226708"
"Blocked","Male","cave","8","M_cling.wav","None","743.504664322","433","222449.676344","214750.012857","215516.644809","216283.245202","217049.90316","217816.57836","218583.544896","219333.130245","208633.674815","209400.289526","210166.943393","210933.597261","211700.173108","212466.947952","213216.773208","213983.42766","219337.993564"
"Blocked","Male","cave","8","M_lash.wav","None","741.692936717","433","222449.676344","214750.012857","215516.644809","216283.245202","217049.90316","217816.57836","218583.544896","219333.130245","223216.281412","209400.289526","210166.943393","210933.597261","211700.173108","212466.947952","213216.773208","213983.42766","222454.730187"
"Blocked","Male","cave","8","M_reek.wav","None","739.704419564","433","222449.676344","214750.012857","215516.644809","216283.245202","217049.90316","217816.57836","218583.544896","219333.130245","223216.281412","223982.891739","210166.943393","210933.597261","211700.173108","212466.947952","213216.773208","213983.42766","223221.399542"
"Blocked","Male","cave","8","M_priest.wav","None","738.185198301","433","222449.676344","214750.012857","215516.644809","216283.245202","217049.90316","217816.57836","218583.544896","219333.130245","223216.281412","223982.891739","224749.552036","210933.597261","211700.173108","212466.947952","213216.773208","213983.42766","223987.865224"
"Blocked","Male","cave","8","M_cave.wav","None","735.971091843","433","222449.676344","214750.012857","215516.644809","216283.245202","217049.90316","217816.57836","218583.544896","219333.130245","223216.281412","223982.891739","224749.552036","225516.153305","211700.173108","212466.947952","213216.773208","213983.42766","224754.920302"
"Blocked","Male","cave","8","M_cad.wav","space","639.119348434","433","222449.676344","214750.012857","215516.644809","216283.245202","217049.90316","217816.57836","218583.544896","219333.130245","223216.281412","223982.891739","224749.552036","225516.153305","226282.84516","212466.947952","213216.773208","213983.42766","225521.192245"
"Blocked","Male","cave","8","M_depth.wav","None","731.652751427","433","222449.676344","214750.012857","215516.644809","216283.245202","217049.90316","217816.57836","218583.544896","219333.130245","223216.281412","223982.891739","224749.552036","225516.153305","226282.84516","227049.490262","213216.773208","213983.42766","226287.811924"
"Blocked","Male","cave","8","M_depth.wav","None","729.846283677","433","222449.676344","214750.012857","215516.644809","216283.245202","217049.90316","217816.57836","218583.544896","219333.130245","223216.281412","223982.891739","224749.552036","225516.153305","226282.84516","227049.490262","227816.637387","213983.42766","227054.428973"
"Blocked","Male","cave","8","M_cave.wav","None","727.317754812","433","222449.676344","214750.012857","215516.644809","216283.245202","217049.90316","217816.57836","218583.544896","219333.130245","223216.281412","223982.891739","224749.552036","225516.153305","226282.84516","227049.490262","227816.637387","228566.052374","227822.076368"
"Blocked","Male","cave","8","M_jolt.wav","space","500.519848934","433","222449.676344","229332.715885","215516.644809","216283.245202","217049.90316","217816.57836","218583.544896","219333.130245","223216.281412","223982.891739","224749.552036","225516.153305","226282.84516","227049.490262","227816.637387","228566.052374","228571.464472"
"Blocked","Male","cave","8","M_cave.wav","None","739.737439759","433","222449.676344","229332.715885","230099.324459","216283.245202","217049.90316","217816.57836","218583.544896","219333.130245","223216.281412","223982.891739","224749.552036","225516.153305","226282.84516","227049.490262","227816.637387","228566.052374","229338.070709"
"Blocked","Male","cave","8","M_bluff.wav","space","615.732574977","433","222449.676344","229332.715885","230099.324459","230865.966931","217049.90316","217816.57836","218583.544896","219333.130245","223216.281412","223982.891739","224749.552036","225516.153305","226282.84516","227049.490262","227816.637387","228566.052374","230104.253235"
"Blocked","Male","cave","8","M_depth.wav","None","735.232666735","433","222449.676344","229332.715885","230099.324459","230865.966931","231632.541316","217816.57836","218583.544896","219333.130245","223216.281412","223982.891739","224749.552036","225516.153305","226282.84516","227049.490262","227816.637387","228566.052374","230871.234675"
"Blocked","Male","cave","8","M_cave.wav","None","733.972054979","433","222449.676344","229332.715885","230099.324459","230865.966931","231632.541316","232399.172683","218583.544896","219333.130245","223216.281412","223982.891739","224749.552036","225516.153305","226282.84516","227049.490262","227816.637387","228566.052374","231637.38798"
"Blocked","Male","cave","8","M_priest.wav","space","531.522599256","433","222449.676344","229332.715885","230099.324459","230865.966931","231632.541316","232399.172683","233165.832395","219333.130245","223216.281412","223982.891739","224749.552036","225516.153305","226282.84516","227049.490262","227816.637387","228566.052374","232404.289353"
"Blocked","Male","cave","8","M_jaw.wav","None","729.057597742","433","222449.676344","229332.715885","230099.324459","230865.966931","231632.541316","232399.172683","233165.832395","233915.783888","223216.281412","223982.891739","224749.552036","225516.153305","226282.84516","227049.490262","227816.637387","228566.052374","233170.890037"
"Blocked","Male","cave","11","M_lash.wav","None","743.669180876","433","237015.631995","229332.715885","230099.324459","230865.966931","231632.541316","232399.172683","233165.832395","233915.783888","223216.281412","223982.891739","224749.552036","225516.153305","226282.84516","227049.490262","227816.637387","228566.052374","233920.887115"
"Blocked","Male","cave","11","M_cave.wav","None","741.949792937","433","237015.631995","229332.715885","230099.324459","230865.966931","231632.541316","232399.172683","233165.832395","233915.783888","237782.275343","223982.891739","224749.552036","225516.153305","226282.84516","227049.490262","227816.637387","228566.052374","237020.630318"
"Blocked","Male","cave","11","M_cad.wav","space","611.88762146","433","237015.631995","229332.715885","230099.324459","230865.966931","231632.541316","232399.172683","233165.832395","233915.783888","237782.275343","238548.90145","224749.552036","225516.153305","226282.84516","227049.490262","227816.637387","228566.052374","237787.446656"
"Blocked","Male","cave","11","M_depth.wav","None","736.955853456","433","237015.631995","229332.715885","230099.324459","230865.966931","231632.541316","232399.172683","233165.832395","233915.783888","237782.275343","238548.90145","239315.592137","225516.153305","226282.84516","227049.490262","227816.637387","228566.052374","238554.059906"
"Blocked","Male","cave","11","M_reek.wav","None","735.287602991","433","237015.631995","229332.715885","230099.324459","230865.966931","231632.541316","232399.172683","233165.832395","233915.783888","237782.275343","238548.90145","239315.592137","240082.152788","226282.84516","227049.490262","227816.637387","228566.052374","239320.556855"
"Blocked","Male","cave","11","M_reek.wav","None","733.711399975","433","237015.631995","229332.715885","230099.324459","230865.966931","231632.541316","232399.172683","233165.832395","233915.783888","237782.275343","238548.90145","239315.592137","240082.152788","240848.792922","227049.490262","227816.637387","228566.052374","240087.117214"
"Blocked","Male","cave","11","M_cave.wav","None","731.949640984","433","237015.631995","229332.715885","230099.324459","230865.966931","231632.541316","232399.172683","233165.832395","233915.783888","237782.275343","238548.90145","239315.592137","240082.152788","240848.792922","241615.48507","227816.637387","228566.052374","240853.747412"
"Blocked","Male","cave","11","M_reek.wav","space","530.457186538","433","237015.631995","229332.715885","230099.324459","230865.966931","231632.541316","232399.172683","233165.832395","233915.783888","237782.275343","238548.90145","239315.592137","240082.152788","240848.792922","241615.48507","242365.38221","228566.052374","241620.601155"
"Blocked","Male","cave","11","M_jaw.wav","None","743.513430745","433","237015.631995","229332.715885","230099.324459","230865.966931","231632.541316","232399.172683","233165.832395","233915.783888","237782.275343","238548.90145","239315.592137","240082.152788","240848.792922","241615.48507","242365.38221","243132.046013","242370.558784"
"Blocked","Male","cave","11","M_jaw.wav","None","741.511471744","433","237015.631995","243898.6879","230099.324459","230865.966931","231632.541316","232399.172683","233165.832395","233915.783888","237782.275343","238548.90145","239315.592137","240082.152788","240848.792922","241615.48507","242365.38221","243132.046013","243137.392363"
"Blocked","Male","cave","11","M_knife.wav","None","739.984068485","433","237015.631995","243898.6879","244665.278065","230865.966931","231632.541316","232399.172683","233165.832395","233915.783888","237782.275343","238548.90145","239315.592137","240082.152788","240848.792922","241615.48507","242365.38221","243132.046013","243903.637131"
"Blocked","Male","cave","11","M_cave.wav","None","738.467769366","433","237015.631995","243898.6879","244665.278065","245431.923459","231632.541316","232399.172683","233165.832395","233915.783888","237782.275343","238548.90145","239315.592137","240082.152788","240848.792922","241615.48507","242365.38221","243132.046013","244670.016317"
"Blocked","Male","cave","11","M_greet.wav","space","625.859840078","433","237015.631995","243898.6879","244665.278065","245431.923459","246198.528819","232399.172683","233165.832395","233915.783888","237782.275343","238548.90145","239315.592137","240082.152788","240848.792922","241615.48507","242365.38221","243132.046013","245436.888177"
"Blocked","Male","cave","11","M_cave.wav","None","733.364834017","433","237015.631995","243898.6879","244665.278065","245431.923459","246198.528819","246965.133302","233165.832395","233915.783888","237782.275343","238548.90145","239315.592137","240082.152788","240848.792922","241615.48507","242365.38221","243132.046013","246203.834258"
"Blocked","Male","cave","11","M_priest.wav","space","612.509160914","433","237015.631995","243898.6879","244665.278065","245431.923459","246198.528819","246965.133302","247731.881555","233915.783888","237782.275343","238548.90145","239315.592137","240082.152788","240848.792922","241615.48507","242365.38221","243132.046013","246970.176041"
"Blocked","Male","cave","11","M_lash.wav","None","729.254257851","433","237015.631995","243898.6879","244665.278065","245431.923459","246198.528819","246965.133302","247731.881555","248498.822961","237782.275343","238548.90145","239315.592137","240082.152788","240848.792922","241615.48507","242365.38221","243132.046013","247736.706887"
"Blocked","Male","done","19","M_depth.wav","None","726.433514857","433","251598.309015","243898.6879","244665.278065","245431.923459","246198.528819","246965.133302","247731.881555","248498.822961","237782.275343","238548.90145","239315.592137","240082.152788","240848.792922","241615.48507","242365.38221","243132.046013","248504.339672"
"Blocked","Male","done","19","M_done.wav","None","741.408027941","433","251598.309015","243898.6879","244665.278065","245431.923459","246198.528819","246965.133302","247731.881555","248498.822961","252364.903856","238548.90145","239315.592137","240082.152788","240848.792922","241615.48507","242365.38221","243132.046013","251603.48179"
"Blocked","Male","done","19","M_depth.wav","space","580.182972797","433","251598.309015","243898.6879","244665.278065","245431.923459","246198.528819","246965.133302","247731.881555","248498.822961","252364.903856","253131.550418","239315.592137","240082.152788","240848.792922","241615.48507","242365.38221","243132.046013","252370.047117"
"Blocked","Male","done","19","M_greet.wav","None","736.915527908","433","251598.309015","243898.6879","244665.278065","245431.923459","246198.528819","246965.133302","247731.881555","248498.822961","252364.903856","253131.550418","253898.178279","240082.152788","240848.792922","241615.48507","242365.38221","243132.046013","253136.489421"
"Blocked","Male","done","19","M_depth.wav","None","735.215718316","433","251598.309015","243898.6879","244665.278065","245431.923459","246198.528819","246965.133302","247731.881555","248498.822961","252364.903856","253131.550418","253898.178279","254664.822211","240848.792922","241615.48507","242365.38221","243132.046013","253903.219265"
"Blocked","Male","done","19","M_romp.wav","None","733.518538651","433","251598.309015","243898.6879","244665.278065","245431.923459","246198.528819","246965.133302","247731.881555","248498.822961","252364.903856","253131.550418","253898.178279","254664.822211","255431.436045","241615.48507","242365.38221","243132.046013","254669.941218"
"Blocked","Male","done","19","M_romp.wav","None","731.792137572","433","251598.309015","243898.6879","244665.278065","245431.923459","246198.528819","246965.133302","247731.881555","248498.822961","252364.903856","253131.550418","253898.178279","254664.822211","255431.436045","256198.042574","242365.38221","243132.046013","255436.586027"
"Blocked","Male","done","19","M_cad.wav","None","730.390970817","433","251598.309015","243898.6879","244665.278065","245431.923459","246198.528819","246965.133302","247731.881555","248498.822961","252364.903856","253131.550418","253898.178279","254664.822211","255431.436045","256198.042574","256964.938103","243132.046013","256202.977194"
"Blocked","Male","done","19","M_done.wav","None","727.989555096","433","251598.309015","243898.6879","244665.278065","245431.923459","246198.528819","246965.133302","247731.881555","248498.822961","252364.903856","253131.550418","253898.178279","254664.822211","255431.436045","256198.042574","256964.938103","257714.639168","256970.344065"
"Blocked","Male","done","19","M_cling.wav","space","654.032788763","433","251598.309015","258481.284854","244665.278065","245431.923459","246198.528819","246965.133302","247731.881555","248498.822961","252364.903856","253131.550418","253898.178279","254664.822211","255431.436045","256198.042574","256964.938103","257714.639168","257719.61236"
"Blocked","Male","done","19","M_done.wav","None","740.266347333","433","251598.309015","258481.284854","259247.924987","245431.923459","246198.528819","246965.133302","247731.881555","248498.822961","252364.903856","253131.550418","253898.178279","254664.822211","255431.436045","256198.042574","256964.938103","257714.639168","258486.722374"
"Blocked","Male","done","19","M_jaw.wav","space","736.640554413","433","251598.309015","258481.284854","259247.924987","260014.637006","246198.528819","246965.133302","247731.881555","248498.822961","252364.903856","253131.550418","253898.178279","254664.822211","255431.436045","256198.042574","256964.938103","257714.639168","259253.025877"
"Blocked","Male","done","19","M_bluff.wav","None","735.919077724","433","251598.309015","258481.284854","259247.924987","260014.637006","260781.152072","246965.133302","247731.881555","248498.822961","252364.903856","253131.550418","253898.178279","254664.822211","255431.436045","256198.042574","256964.938103","257714.639168","260019.811534"
"Blocked","Male","done","19","M_dime.wav","None","734.564080805","433","251598.309015","258481.284854","259247.924987","260014.637006","260781.152072","261547.813829","247731.881555","248498.822961","252364.903856","253131.550418","253898.178279","254664.822211","255431.436045","256198.042574","256964.938103","257714.639168","260786.160037"
"Blocked","Male","done","19","M_done.wav","None","733.053625965","433","251598.309015","258481.284854","259247.924987","260014.637006","260781.152072","261547.813829","262314.500717","248498.822961","252364.903856","253131.550418","253898.178279","254664.822211","255431.436045","256198.042574","256964.938103","257714.639168","261552.829977"
"Blocked","Male","done","19","M_cad.wav","None","731.322841675","433","251598.309015","258481.284854","259247.924987","260014.637006","260781.152072","261547.813829","262314.500717","263081.083869","252364.903856","253131.550418","253898.178279","254664.822211","255431.436045","256198.042574","256964.938103","257714.639168","262319.557483"
"Blocked","Male","done","20","M_gnash.wav","space","31.1696045864","433","266164.269634","258481.284854","259247.924987","260014.637006","260781.152072","261547.813829","262314.500717","263081.083869","252364.903856","253131.550418","253898.178279","254664.822211","255431.436045","256198.042574","256964.938103","257714.639168","263086.198493"
"Blocked","Male","done","20","M_done.wav","None","741.38465081","433","266164.269634","258481.284854","259247.924987","260014.637006","260781.152072","261547.813829","262314.500717","263081.083869","266930.882884","253131.550418","253898.178279","254664.822211","255431.436045","256198.042574","256964.938103","257714.639168","266169.413187"
"Blocked","Male","done","20","M_jolt.wav","space","716.740772172","433","266164.269634","258481.284854","259247.924987","260014.637006","260781.152072","261547.813829","262314.500717","263081.083869","266930.882884","267697.48503","253898.178279","254664.822211","255431.436045","256198.042574","256964.938103","257714.639168","266936.270728"
"Blocked","Male","done","20","M_knife.wav","None","736.798642254","433","266164.269634","258481.284854","259247.924987","260014.637006","260781.152072","261547.813829","262314.500717","263081.083869","266930.882884","267697.48503","268464.226854","254664.822211","255431.436045","256198.042574","256964.938103","257714.639168","267702.431923"
"Blocked","Male","done","20","M_romp.wav","None","734.857171581","433","266164.269634","258481.284854","259247.924987","260014.637006","260781.152072","261547.813829","262314.500717","263081.083869","266930.882884","267697.48503","268464.226854","269230.785752","255431.436045","256198.042574","256964.938103","257714.639168","268469.310503"
"Blocked","Male","done","20","M_dime.wav","None","733.261974645","433","266164.269634","258481.284854","259247.924987","260014.637006","260781.152072","261547.813829","262314.500717","263081.083869","266930.882884","267697.48503","268464.226854","269230.785752","269997.469133","256198.042574","256964.938103","257714.639168","269236.060217"
"Blocked","Male","done","20","M_done.wav","None","731.875418598","433","266164.269634","258481.284854","259247.924987","260014.637006","260781.152072","261547.813829","262314.500717","263081.083869","266930.882884","267697.48503","268464.226854","269230.785752","269997.469133","270764.025402","256964.938103","257714.639168","270002.550737"
"Blocked","Male","done","20","M_park.wav","space","643.508696878","433","266164.269634","258481.284854","259247.924987","260014.637006","260781.152072","261547.813829","262314.500717","263081.083869","266930.882884","267697.48503","268464.226854","269230.785752","269997.469133","270764.025402","271530.795863","257714.639168","270769.237333"
"Blocked","Male","done","20","M_jolt.wav","None","726.517672523","433","266164.269634","258481.284854","259247.924987","260014.637006","260781.152072","261547.813829","262314.500717","263081.083869","266930.882884","267697.48503","268464.226854","269230.785752","269997.469133","270764.025402","271530.795863","272280.643619","271536.632548"
"Blocked","Male","done","20","M_done.wav","None","742.66747084","433","266164.269634","273047.268558","259247.924987","260014.637006","260781.152072","261547.813829","262314.500717","263081.083869","266930.882884","267697.48503","268464.226854","269230.785752","269997.469133","270764.025402","271530.795863","272280.643619","272285.82253"
"Blocked","Male","done","20","M_depth.wav","None","741.018798719","433","266164.269634","273047.268558","273813.857846","260014.637006","260781.152072","261547.813829","262314.500717","263081.083869","266930.882884","267697.48503","268464.226854","269230.785752","269997.469133","270764.025402","271530.795863","272280.643619","273052.68913"
"Blocked","Male","done","20","M_done.wav","space","1.59198257828","433","266164.269634","273047.268558","273813.857846","274580.578923","260781.152072","261547.813829","262314.500717","263081.083869","266930.882884","267697.48503","268464.226854","269230.785752","269997.469133","270764.025402","271530.795863","272280.643619","273818.94208"
"Blocked","Male","done","20","M_dime.wav","space","642.864072506","433","266164.269634","273047.268558","273813.857846","274580.578923","275347.114444","261547.813829","262314.500717","263081.083869","266930.882884","267697.48503","268464.226854","269230.785752","269997.469133","270764.025402","271530.795863","272280.643619","274585.565265"
"Blocked","Male","done","20","M_reek.wav","None","734.030790019","433","266164.269634","273047.268558","273813.857846","274580.578923","275347.114444","276113.779416","262314.500717","263081.083869","266930.882884","267697.48503","268464.226854","269230.785752","269997.469133","270764.025402","271530.795863","272280.643619","275352.416085"
"Blocked","Male","done","20","M_priest.wav","None","732.630499908","433","266164.269634","273047.268558","273813.857846","274580.578923","275347.114444","276113.779416","276880.402601","263081.083869","266930.882884","267697.48503","268464.226854","269230.785752","269997.469133","270764.025402","271530.795863","272280.643619","276118.885273"
"Blocked","Male","done","20","M_cling.wav","None","731.267905419","433","266164.269634","273047.268558","273813.857846","274580.578923","275347.114444","276113.779416","276880.402601","277647.053839","266930.882884","267697.48503","268464.226854","269230.785752","269997.469133","270764.025402","271530.795863","272280.643619","276885.380469"
"Blocked","Male","done","23","M_dime.wav","None","729.712449607","433","280746.948992","273047.268558","273813.857846","274580.578923","275347.114444","276113.779416","276880.402601","277647.053839","266930.882884","267697.48503","268464.226854","269230.785752","269997.469133","270764.025402","271530.795863","272280.643619","277652.128137"
"Blocked","Male","done","23","M_bluff.wav","None","741.683878081","433","280746.948992","273047.268558","273813.857846","274580.578923","275347.114444","276113.779416","276880.402601","277647.053839","281513.511689","267697.48503","268464.226854","269230.785752","269997.469133","270764.025402","271530.795863","272280.643619","280752.022122"
"Blocked","Male","done","23","M_bluff.wav","None","740.265470693","433","280746.948992","273047.268558","273813.857846","274580.578923","275347.114444","276113.779416","276880.402601","277647.053839","281513.511689","282280.141887","268464.226854","269230.785752","269997.469133","270764.025402","271530.795863","272280.643619","281518.479329"
"Blocked","Male","done","23","M_dime.wav","None","738.782483983","433","280746.948992","273047.268558","273813.857846","274580.578923","275347.114444","276113.779416","276880.402601","277647.053839","281513.511689","282280.141887","283046.855659","269230.785752","269997.469133","270764.025402","271530.795863","272280.643619","282285.308818"
"Blocked","Male","done","23","M_done.wav","None","737.413752999","433","280746.948992","273047.268558","273813.857846","274580.578923","275347.114444","276113.779416","276880.402601","277647.053839","281513.511689","282280.141887","283046.855659","283813.423031","269997.469133","270764.025402","271530.795863","272280.643619","283051.980218"
"Blocked","Male","done","23","M_bluff.wav","None","736.062847074","433","280746.948992","273047.268558","273813.857846","274580.578923","275347.114444","276113.779416","276880.402601","277647.053839","281513.511689","282280.141887","283046.855659","283813.423031","284580.045632","270764.025402","271530.795863","272280.643619","283818.491778"
"Blocked","Male","done","23","M_done.wav","space","42.3955948136","433","280746.948992","273047.268558","273813.857846","274580.578923","275347.114444","276113.779416","276880.402601","277647.053839","281513.511689","282280.141887","283046.855659","283813.423031","284580.045632","285346.68635","271530.795863","272280.643619","284585.287077"
"Blocked","Male","done","23","M_jolt.wav","space","715.658995461","433","280746.948992","273047.268558","273813.857846","274580.578923","275347.114444","276113.779416","276880.402601","277647.053839","281513.511689","282280.141887","283046.855659","283813.423031","284580.045632","285346.68635","286113.75224","272280.643619","285351.848605"
"Blocked","Male","done","23","M_jaw.wav","None","727.786466276","433","280746.948992","273047.268558","273813.857846","274580.578923","275347.114444","276113.779416","276880.402601","277647.053839","281513.511689","282280.141887","283046.855659","283813.423031","284580.045632","285346.68635","286113.75224","286880.098114","286119.424408"
"Blocked","Male","done","23","M_priest.wav","None","729.749853017","433","280746.948992","287629.911389","273813.857846","274580.578923","275347.114444","276113.779416","276880.402601","277647.053839","281513.511689","282280.141887","283046.855659","283813.423031","284580.045632","285346.68635","286113.75224","286880.098114","286882.509173"
"Blocked","Male","done","23","M_jaw.wav","None","742.318274955","433","280746.948992","287629.911389","288396.622531","274580.578923","275347.114444","276113.779416","276880.402601","277647.053839","281513.511689","282280.141887","283046.855659","283813.423031","284580.045632","285346.68635","286113.75224","286880.098114","287634.969908"
"Blocked","Male","done","23","M_done.wav","None","740.88642572","433","280746.948992","287629.911389","288396.622531","289163.172078","275347.114444","276113.779416","276880.402601","277647.053839","281513.511689","282280.141887","283046.855659","283813.423031","284580.045632","285346.68635","286113.75224","286880.098114","288401.780402"
"Blocked","Male","done","23","M_greet.wav","space","579.113176871","433","280746.948992","287629.911389","288396.622531","289163.172078","289929.791464","276113.779416","276880.402601","277647.053839","281513.511689","282280.141887","283046.855659","283813.423031","284580.045632","285346.68635","286113.75224","286880.098114","289168.143517"
"Blocked","Male","done","23","M_dime.wav","None","736.538863897","433","280746.948992","287629.911389","288396.622531","289163.172078","289929.791464","290696.451468","276880.402601","277647.053839","281513.511689","282280.141887","283046.855659","283813.423031","284580.045632","285346.68635","286113.75224","286880.098114","289934.939693"
"Blocked","Male","done","23","M_done.wav","None","735.149385706","433","280746.948992","287629.911389","288396.622531","289163.172078","289929.791464","290696.451468","291463.064134","277647.053839","281513.511689","282280.141887","283046.855659","283813.423031","284580.045632","285346.68635","286113.75224","286880.098114","290701.54856"
"Blocked","Male","done","23","M_priest.wav","space","606.864168352","433","280746.948992","287629.911389","288396.622531","289163.172078","289929.791464","290696.451468","291463.064134","292229.651669","281513.511689","282280.141887","283046.855659","283813.423031","284580.045632","285346.68635","286113.75224","286880.098114","291468.211194"
"Blocked","Male","done","21","M_bluff.wav","None","730.909943111","433","295312.874253","287629.911389","288396.622531","289163.172078","289929.791464","290696.451468","291463.064134","292229.651669","281513.511689","282280.141887","283046.855659","283813.423031","284580.045632","285346.68635","286113.75224","286880.098114","292234.711941"
"Blocked","Male","done","21","M_depth.wav","None","741.478743759","433","295312.874253","287629.911389","288396.622531","289163.172078","289929.791464","290696.451468","291463.064134","292229.651669","296079.486627","282280.141887","283046.855659","283813.423031","284580.045632","285346.68635","286113.75224","286880.098114","295317.924882"
"Blocked","Male","done","21","M_greet.wav","None","739.895235391","433","295312.874253","287629.911389","288396.622531","289163.172078","289929.791464","290696.451468","291463.064134","292229.651669","296079.486627","296846.097831","283046.855659","283813.423031","284580.045632","285346.68635","286113.75224","286880.098114","296084.740637"
"Blocked","Male","done","21","M_done.wav","None","738.831575956","433","295312.874253","287629.911389","288396.622531","289163.172078","289929.791464","290696.451468","291463.064134","292229.651669","296079.486627","296846.097831","297612.77303","283813.423031","284580.045632","285346.68635","286113.75224","286880.098114","296851.480415"
"Blocked","Male","done","21","M_greet.wav","space","536.768719529","433","295312.874253","287629.911389","288396.622531","289163.172078","289929.791464","290696.451468","291463.064134","292229.651669","296079.486627","296846.097831","297612.77303","298379.398845","284580.045632","285346.68635","286113.75224","286880.098114","297617.702975"
"Blocked","Male","done","21","M_dime.wav","None","734.893698344","433","295312.874253","287629.911389","288396.622531","289163.172078","289929.791464","290696.451468","291463.064134","292229.651669","296079.486627","296846.097831","297612.77303","298379.398845","299146.026998","285346.68635","286113.75224","286880.098114","298384.578925"
"Blocked","Male","done","21","M_dime.wav","None","733.670197784","433","295312.874253","287629.911389","288396.622531","289163.172078","289929.791464","290696.451468","291463.064134","292229.651669","296079.486627","296846.097831","297612.77303","298379.398845","299146.026998","299912.674145","286113.75224","286880.098114","299151.003405"
"Blocked","Male","done","21","M_depth.wav","None","732.036428584","433","295312.874253","287629.911389","288396.622531","289163.172078","289929.791464","290696.451468","291463.064134","292229.651669","296079.486627","296846.097831","297612.77303","298379.398845","299146.026998","299912.674145","300679.270447","286880.098114","299917.767437"
"Blocked","Male","done","21","M_priest.wav","None","730.492076909","433","295312.874253","287629.911389","288396.622531","289163.172078","289929.791464","290696.451468","291463.064134","292229.651669","296079.486627","296846.097831","297612.77303","298379.398845","299146.026998","299912.674145","300679.270447","301445.920223","300684.59225"
"Blocked","Male","done","21","M_cling.wav","None","729.404748126","433","295312.874253","302212.918319","288396.622531","289163.172078","289929.791464","290696.451468","291463.064134","292229.651669","296079.486627","296846.097831","297612.77303","298379.398845","299146.026998","299912.674145","300679.270447","301445.920223","301450.87822"
"Blocked","Male","done","21","M_done.wav","None","727.017943118","433","295312.874253","302212.918319","302962.501622","289163.172078","289929.791464","290696.451468","291463.064134","292229.651669","296079.486627","296846.097831","297612.77303","298379.398845","299146.026998","299912.674145","300679.270447","301445.920223","302218.327203"
"Blocked","Male","done","21","M_romp.wav","space","586.296384608","433","295312.874253","302212.918319","302962.501622","303729.169808","289929.791464","290696.451468","291463.064134","292229.651669","296079.486627","296846.097831","297612.77303","298379.398845","299146.026998","299912.674145","300679.270447","301445.920223","302967.870472"
"Blocked","Male","done","21","M_done.wav","None","740.015043186","433","295312.874253","302212.918319","302962.501622","303729.169808","304495.788318","290696.451468","291463.064134","292229.651669","296079.486627","296846.097831","297612.77303","298379.398845","299146.026998","299912.674145","300679.270447","301445.920223","303734.220437"
"Blocked","Male","done","21","M_jolt.wav","space","725.132285337","433","295312.874253","302212.918319","302962.501622","303729.169808","304495.788318","305262.420562","291463.064134","292229.651669","296079.486627","296846.097831","297612.77303","298379.398845","299146.026998","299912.674145","300679.270447","301445.920223","304500.85385"
"Blocked","Male","done","21","M_done.wav","None","735.409456283","433","295312.874253","302212.918319","302962.501622","303729.169808","304495.788318","305262.420562","306029.033812","292229.651669","296079.486627","296846.097831","297612.77303","298379.398845","299146.026998","299912.674145","300679.270447","301445.920223","305267.450151"
"Blocked","Male","done","21","M_gnash.wav","None","733.872117744","433","295312.874253","302212.918319","302962.501622","303729.169808","304495.788318","305262.420562","306029.033812","306795.631574","296079.486627","296846.097831","297612.77303","298379.398845","299146.026998","299912.674145","300679.270447","301445.920223","306034.264737"
"Blocked","Male","cave","7","M_jaw.wav","space","0.0227927048691","433","309878.912017","302212.918319","302962.501622","303729.169808","304495.788318","305262.420562","306029.033812","306795.631574","296079.486627","296846.097831","297612.77303","298379.398845","299146.026998","299912.674145","300679.270447","301445.920223","306800.514472"
"Blocked","Male","cave","7","M_cling.wav","None","741.258414306","433","309878.912017","302212.918319","302962.501622","303729.169808","304495.788318","305262.420562","306029.033812","306795.631574","310645.482896","296846.097831","297612.77303","298379.398845","299146.026998","299912.674145","300679.270447","301445.920223","309884.055278"
"Blocked","Male","cave","7","M_cling.wav","None","740.064719586","433","309878.912017","302212.918319","302962.501622","303729.169808","304495.788318","305262.420562","306029.033812","306795.631574","310645.482896","311412.111341","297612.77303","298379.398845","299146.026998","299912.674145","300679.270447","301445.920223","310650.597227"
"Blocked","Male","cave","7","M_reek.wav","None","738.890018783","433","309878.912017","302212.918319","302962.501622","303729.169808","304495.788318","305262.420562","306029.033812","306795.631574","310645.482896","311412.111341","312178.702674","298379.398845","299146.026998","299912.674145","300679.270447","301445.920223","311417.090669"
"Blocked","Male","cave","7","M_park.wav","None","737.602231115","433","309878.912017","302212.918319","302962.501622","303729.169808","304495.788318","305262.420562","306029.033812","306795.631574","310645.482896","311412.111341","312178.702674","312945.379627","299146.026998","299912.674145","300679.270447","301445.920223","312183.90204"
"Blocked","Male","cave","7","M_cave.wav","None","736.183823727","433","309878.912017","302212.918319","302962.501622","303729.169808","304495.788318","305262.420562","306029.033812","306795.631574","310645.482896","311412.111341","312178.702674","312945.379627","313712.00252","299912.674145","300679.270447","301445.920223","312950.578701"
