"Condition","Talker","Target","Trial","current_stimulus","response_response","response_time_response","subject_nr","time_Audio1","time_Audio10","time_Audio11","time_Audio12","time_Audio13","time_Audio14","time_Audio15","time_Audio16","time_Audio2","time_Audio3","time_Audio4","time_Audio5","time_Audio6","time_Audio7","time_Audio8","time_Audio9","time_response"
"Mixed","Female","cave","23","F_lash.wav","NA","NA","423","34683.2582927","NA","NA","NA","NA","NA","NA","NA","NA","NA","NA","NA","NA","NA","NA","NA","NA"
"Mixed","Female","cave","23","F_cad.wav","None","739.823642929","423","34683.2582927","NA","NA","NA","NA","NA","NA","NA","35449.8566397","NA","NA","NA","NA","NA","NA","NA","34690.0826615"
"Mixed","Female","cave","23","F_cave.wav","None","738.40085233","423","34683.2582927","NA","NA","NA","NA","NA","NA","NA","35449.8566397","36216.5841454","NA","NA","NA","NA","NA","NA","35455.3035111"
"Mixed","Female","cave","23","M_greet.wav","space","530.084029095","423","34683.2582927","NA","NA","NA","NA","NA","NA","NA","35449.8566397","36216.5841454","36983.1395369","NA","NA","NA","NA","NA","36221.6452941"
"Mixed","Female","cave","23","M_jaw.wav","None","736.175349517","423","34683.2582927","NA","NA","NA","NA","NA","NA","NA","35449.8566397","36216.5841454","36983.1395369","37749.7370073","NA","NA","NA","NA","36985.1604898"
"Mixed","Female","cave","23","F_cave.wav","None","730.093204619","423","34683.2582927","NA","NA","NA","NA","NA","NA","NA","35449.8566397","36216.5841454","36983.1395369","37749.7370073","38516.6316594","NA","NA","NA","37754.9337434"
"Mixed","Female","cave","23","M_reek.wav","space","453.260934361","423","34683.2582927","NA","NA","NA","NA","NA","NA","NA","35449.8566397","36216.5841454","36983.1395369","37749.7370073","38516.6316594","39266.3493806","NA","NA","38522.3318804"
"Mixed","Female","cave","23","F_dime.wav","None","740.920906986","423","34683.2582927","NA","NA","NA","NA","NA","NA","NA","35449.8566397","36216.5841454","36983.1395369","37749.7370073","38516.6316594","39266.3493806","40032.9871765","NA","39271.4073149"
"Mixed","Female","cave","23","F_cave.wav","None","738.105423845","423","34683.2582927","NA","NA","NA","NA","NA","NA","NA","35449.8566397","36216.5841454","36983.1395369","37749.7370073","38516.6316594","39266.3493806","40032.9871765","40799.5975043","40038.088943"
"Mixed","Female","cave","23","M_priest.wav","space","522.492598216","423","34683.2582927","41566.2224427","NA","NA","NA","NA","NA","NA","35449.8566397","36216.5841454","36983.1395369","37749.7370073","38516.6316594","39266.3493806","40032.9871765","40799.5975043","40804.8526832"
"Mixed","Female","cave","23","M_park.wav","None","732.546050025","423","34683.2582927","41566.2224427","42332.9122528","NA","NA","NA","NA","NA","35449.8566397","36216.5841454","36983.1395369","37749.7370073","38516.6316594","39266.3493806","40032.9871765","40799.5975043","41571.0807949"
"Mixed","Female","cave","23","M_park.wav","None","729.601992667","423","34683.2582927","41566.2224427","42332.9122528","43082.8123155","NA","NA","NA","NA","35449.8566397","36216.5841454","36983.1395369","37749.7370073","38516.6316594","39266.3493806","40032.9871765","40799.5975043","42337.8004107"
"Mixed","Female","cave","23","M_cad.wav","None","743.250438029","423","34683.2582927","41566.2224427","42332.9122528","43082.8123155","43849.4951124","NA","NA","NA","35449.8566397","36216.5841454","36983.1395369","37749.7370073","38516.6316594","39266.3493806","40032.9871765","40799.5975043","43088.0683711"
"Mixed","Female","cave","23","M_cling.wav","None","740.589828377","423","34683.2582927","41566.2224427","42332.9122528","43082.8123155","43849.4951124","44616.1472268","NA","NA","35449.8566397","36216.5841454","36983.1395369","37749.7370073","38516.6316594","39266.3493806","40032.9871765","40799.5975043","43854.5483714"
"Mixed","Female","cave","23","F_cave.wav","None","737.834833561","423","34683.2582927","41566.2224427","42332.9122528","43082.8123155","43849.4951124","44616.1472268","45382.7476193","NA","35449.8566397","36216.5841454","36983.1395369","37749.7370073","38516.6316594","39266.3493806","40032.9871765","40799.5975043","44621.1575303"
"Mixed","Female","cave","23","F_cling.wav","space","419.27146342","423","34683.2582927","41566.2224427","42332.9122528","43082.8123155","43849.4951124","44616.1472268","45382.7476193","46149.4473646","35449.8566397","36216.5841454","36983.1395369","37749.7370073","38516.6316594","39266.3493806","40032.9871765","40799.5975043","45387.7681503"
"Mixed","Female","done","48","M_knife.wav","None","732.016558021","423","49315.8706169","41566.2224427","42332.9122528","43082.8123155","43849.4951124","44616.1472268","45382.7476193","46149.4473646","35449.8566397","36216.5841454","36983.1395369","37749.7370073","38516.6316594","39266.3493806","40032.9871765","40799.5975043","46154.7259207"
"Mixed","Female","done","48","F_done.wav","None","741.58773963","423","49315.8706169","41566.2224427","42332.9122528","43082.8123155","43849.4951124","44616.1472268","45382.7476193","46149.4473646","50082.5122116","36216.5841454","36983.1395369","37749.7370073","38516.6316594","39266.3493806","40032.9871765","40799.5975043","49321.0191377"
"Mixed","Female","done","48","M_priest.wav","space","559.048001431","423","49315.8706169","41566.2224427","42332.9122528","43082.8123155","43849.4951124","44616.1472268","45382.7476193","46149.4473646","50082.5122116","50849.121955","36983.1395369","37749.7370073","38516.6316594","39266.3493806","40032.9871765","40799.5975043","50087.5789124"
"Mixed","Female","done","48","F_lash.wav","None","736.032749022","423","49315.8706169","41566.2224427","42332.9122528","43082.8123155","43849.4951124","44616.1472268","45382.7476193","46149.4473646","50082.5122116","50849.121955","51615.8427397","37749.7370073","38516.6316594","39266.3493806","40032.9871765","40799.5975043","50854.2240137"
"Mixed","Female","done","48","M_cad.wav","None","733.273078779","423","49315.8706169","41566.2224427","42332.9122528","43082.8123155","43849.4951124","44616.1472268","45382.7476193","46149.4473646","50082.5122116","50849.121955","51615.8427397","52382.3917025","38516.6316594","39266.3493806","40032.9871765","40799.5975043","51620.8299583"
"Mixed","Female","done","48","F_done.wav","None","734.314529939","423","49315.8706169","41566.2224427","42332.9122528","43082.8123155","43849.4951124","44616.1472268","45382.7476193","46149.4473646","50082.5122116","50849.121955","51615.8427397","52382.3917025","53149.3988571","39266.3493806","40032.9871765","40799.5975043","52384.035407"
"Mixed","Female","done","48","M_reek.wav","space","419.51984543","423","49315.8706169","41566.2224427","42332.9122528","43082.8123155","43849.4951124","44616.1472268","45382.7476193","46149.4473646","50082.5122116","50849.121955","51615.8427397","52382.3917025","53149.3988571","53899.0067057","40032.9871765","40799.5975043","53154.8755343"
"Mixed","Female","done","48","M_priest.wav","None","742.175382245","423","49315.8706169","41566.2224427","42332.9122528","43082.8123155","43849.4951124","44616.1472268","45382.7476193","46149.4473646","50082.5122116","50849.121955","51615.8427397","52382.3917025","53149.3988571","53899.0067057","54665.6632033","40799.5975043","53903.9533065"
"Mixed","Female","done","48","F_done.wav","None","739.222266249","423","49315.8706169","41566.2224427","42332.9122528","43082.8123155","43849.4951124","44616.1472268","45382.7476193","46149.4473646","50082.5122116","50849.121955","51615.8427397","52382.3917025","53149.3988571","53899.0067057","54665.6632033","55432.2311601","54671.0390667"
"Mixed","Female","done","48","F_jolt.wav","space","536.966548495","423","49315.8706169","56198.931782","42332.9122528","43082.8123155","43849.4951124","44616.1472268","45382.7476193","46149.4473646","50082.5122116","50849.121955","51615.8427397","52382.3917025","53149.3988571","53899.0067057","54665.6632033","55432.2311601","55437.2356193"
"Mixed","Female","done","48","M_greet.wav","None","733.867150106","423","49315.8706169","56198.931782","56965.5225315","43082.8123155","43849.4951124","44616.1472268","45382.7476193","46149.4473646","50082.5122116","50849.121955","51615.8427397","52382.3917025","53149.3988571","53899.0067057","54665.6632033","55432.2311601","56203.9473454"
"Mixed","Female","done","48","F_gnash.wav","None","731.300341189","423","49315.8706169","56198.931782","56965.5225315","57732.6252401","43849.4951124","44616.1472268","45382.7476193","46149.4473646","50082.5122116","50849.121955","51615.8427397","52382.3917025","53149.3988571","53899.0067057","54665.6632033","55432.2311601","56970.5173476"
"Mixed","Female","done","48","M_greet.wav","None","727.266909555","423","49315.8706169","56198.931782","56965.5225315","57732.6252401","58482.1498077","44616.1472268","45382.7476193","46149.4473646","50082.5122116","50849.121955","51615.8427397","52382.3917025","53149.3988571","53899.0067057","54665.6632033","55432.2311601","57738.4625095"
"Mixed","Female","done","48","F_done.wav","None","742.328794664","423","49315.8706169","56198.931782","56965.5225315","57732.6252401","58482.1498077","59248.7785449","45382.7476193","46149.4473646","50082.5122116","50849.121955","51615.8427397","52382.3917025","53149.3988571","53899.0067057","54665.6632033","55432.2311601","58487.248652"
"Mixed","Female","done","48","M_lash.wav","space","464.062921884","423","49315.8706169","56198.931782","56965.5225315","57732.6252401","58482.1498077","59248.7785449","60015.3467939","46149.4473646","50082.5122116","50849.121955","51615.8427397","52382.3917025","53149.3988571","53899.0067057","54665.6632033","55432.2311601","59253.859272"
"Mixed","Female","done","48","F_priest.wav","None","736.91991112","423","49315.8706169","56198.931782","56965.5225315","57732.6252401","58482.1498077","59248.7785449","60015.3467939","60782.0120579","50082.5122116","50849.121955","51615.8427397","52382.3917025","53149.3988571","53899.0067057","54665.6632033","55432.2311601","60020.3176484"
"Mixed","Male","cave","18","F_romp.wav","None","734.180111439","423","63881.8926008","56198.931782","56965.5225315","57732.6252401","58482.1498077","59248.7785449","60015.3467939","60782.0120579","50082.5122116","50849.121955","51615.8427397","52382.3917025","53149.3988571","53899.0067057","54665.6632033","55432.2311601","60787.0036597"
"Mixed","Male","cave","18","F_greet.wav","None","741.464425268","423","63881.8926008","56198.931782","56965.5225315","57732.6252401","58482.1498077","59248.7785449","60015.3467939","60782.0120579","64648.4745838","50849.121955","51615.8427397","52382.3917025","53149.3988571","53899.0067057","54665.6632033","55432.2311601","63887.0557322"
"Mixed","Male","cave","18","M_cave.wav","None","739.042846773","423","63881.8926008","56198.931782","56965.5225315","57732.6252401","58482.1498077","59248.7785449","60015.3467939","60782.0120579","64648.4745838","65415.1489065","51615.8427397","52382.3917025","53149.3988571","53899.0067057","54665.6632033","55432.2311601","64653.4702766"
"Mixed","Male","cave","18","F_romp.wav","space","609.154250488","423","63881.8926008","56198.931782","56965.5225315","57732.6252401","58482.1498077","59248.7785449","60015.3467939","60782.0120579","64648.4745838","65415.1489065","66181.758942","52382.3917025","53149.3988571","53899.0067057","54665.6632033","55432.2311601","65420.2614849"
"Mixed","Male","cave","18","F_greet.wav","None","733.154147629","423","63881.8926008","56198.931782","56965.5225315","57732.6252401","58482.1498077","59248.7785449","60015.3467939","60782.0120579","64648.4745838","65415.1489065","66181.758942","66948.4449533","53149.3988571","53899.0067057","54665.6632033","55432.2311601","66186.7826874"
"Mixed","Male","cave","18","M_cave.wav","None","730.375483468","423","63881.8926008","56198.931782","56965.5225315","57732.6252401","58482.1498077","59248.7785449","60015.3467939","60782.0120579","64648.4745838","65415.1489065","66181.758942","66948.4449533","67715.4088602","53899.0067057","54665.6632033","55432.2311601","66953.4993811"
"Mixed","Male","cave","18","F_gnash.wav","space","476.624915112","423","63881.8926008","56198.931782","56965.5225315","57732.6252401","58482.1498077","59248.7785449","60015.3467939","60782.0120579","64648.4745838","65415.1489065","66181.758942","66948.4449533","67715.4088602","68464.9585582","54665.6632033","55432.2311601","67720.5921544"
"Mixed","Male","cave","18","F_knife.wav","None","741.045682419","423","63881.8926008","56198.931782","56965.5225315","57732.6252401","58482.1498077","59248.7785449","60015.3467939","60782.0120579","64648.4745838","65415.1489065","66181.758942","66948.4449533","67715.4088602","68464.9585582","69231.6588879","55432.2311601","68470.1161376"
"Mixed","Male","cave","18","F_knife.wav","None","738.649526555","423","63881.8926008","56198.931782","56965.5225315","57732.6252401","58482.1498077","59248.7785449","60015.3467939","60782.0120579","64648.4745838","65415.1489065","66181.758942","66948.4449533","67715.4088602","68464.9585582","69231.6588879","69998.2560661","69236.5400328"
"Mixed","Male","cave","18","M_park.wav","None","735.537738286","423","63881.8926008","70764.8523676","56965.5225315","57732.6252401","58482.1498077","59248.7785449","60015.3467939","60782.0120579","64648.4745838","65415.1489065","66181.758942","66948.4449533","67715.4088602","68464.9585582","69231.6588879","69998.2560661","70003.5293623"
"Mixed","Male","cave","18","M_priest.wav","None","733.221649093","423","63881.8926008","70764.8523676","71531.518216","57732.6252401","58482.1498077","59248.7785449","60015.3467939","60782.0120579","64648.4745838","65415.1489065","66181.758942","66948.4449533","67715.4088602","68464.9585582","69231.6588879","69998.2560661","70769.8091959"
"Mixed","Male","cave","18","M_cave.wav","None","730.795979602","423","63881.8926008","70764.8523676","71531.518216","72298.4727721","58482.1498077","59248.7785449","60015.3467939","60782.0120579","64648.4745838","65415.1489065","66181.758942","66948.4449533","67715.4088602","68464.9585582","69231.6588879","69998.2560661","71536.5229674"
"Mixed","Male","cave","18","F_priest.wav","space","541.587038316","423","63881.8926008","70764.8523676","71531.518216","72298.4727721","73048.1460767","59248.7785449","60015.3467939","60782.0120579","64648.4745838","65415.1489065","66181.758942","66948.4449533","67715.4088602","68464.9585582","69231.6588879","69998.2560661","72303.2902142"
"Mixed","Male","cave","18","M_cave.wav","None","741.839335996","423","63881.8926008","70764.8523676","71531.518216","72298.4727721","73048.1460767","73814.742086","60015.3467939","60782.0120579","64648.4745838","65415.1489065","66181.758942","66948.4449533","67715.4088602","68464.9585582","69231.6588879","69998.2560661","73053.0131952"
"Mixed","Male","cave","18","M_reek.wav","space","560.665991067","423","63881.8926008","70764.8523676","71531.518216","72298.4727721","73048.1460767","73814.742086","74581.3781286","60782.0120579","64648.4745838","65415.1489065","66181.758942","66948.4449533","67715.4088602","68464.9585582","69231.6588879","69998.2560661","73820.079377"
"Mixed","Male","cave","18","M_jolt.wav","None","735.961448774","423","63881.8926008","70764.8523676","71531.518216","72298.4727721","73048.1460767","73814.742086","74581.3781286","75348.0068659","64648.4745838","65415.1489065","66181.758942","66948.4449533","67715.4088602","68464.9585582","69231.6588879","69998.2560661","74586.3171318"
"Mixed","Male","done","41","F_greet.wav","None","733.490778306","423","78447.8257515","70764.8523676","71531.518216","72298.4727721","73048.1460767","73814.742086","74581.3781286","75348.0068659","64648.4745838","65415.1489065","66181.758942","66948.4449533","67715.4088602","68464.9585582","69231.6588879","69998.2560661","75353.027689"
"Mixed","Male","done","41","M_cad.wav","None","741.256661021","423","78447.8257515","70764.8523676","71531.518216","72298.4727721","73048.1460767","73814.742086","74581.3781286","75348.0068659","79214.5237436","65415.1489065","66181.758942","66948.4449533","67715.4088602","68464.9585582","69231.6588879","69998.2560661","78453.1609971"
"Mixed","Male","done","41","M_cling.wav","None","738.768165491","423","78447.8257515","70764.8523676","71531.518216","72298.4727721","73048.1460767","73814.742086","74581.3781286","75348.0068659","79214.5237436","79981.1019278","66181.758942","66948.4449533","67715.4088602","68464.9585582","69231.6588879","69998.2560661","79219.6138215"
"Mixed","Male","done","41","M_done.wav","None","736.248110836","423","78447.8257515","70764.8523676","71531.518216","72298.4727721","73048.1460767","73814.742086","74581.3781286","75348.0068659","79214.5237436","79981.1019278","80747.7803415","66948.4449533","67715.4088602","68464.9585582","69231.6588879","69998.2560661","79986.1803172"
"Mixed","Male","done","41","F_greet.wav","space","603.47331559","423","78447.8257515","70764.8523676","71531.518216","72298.4727721","73048.1460767","73814.742086","74581.3781286","75348.0068659","79214.5237436","79981.1019278","80747.7803415","81514.3307654","67715.4088602","68464.9585582","69231.6588879","69998.2560661","80752.6728826"
"Mixed","Male","done","41","F_lash.wav","None","730.935657955","423","78447.8257515","70764.8523676","71531.518216","72298.4727721","73048.1460767","73814.742086","74581.3781286","75348.0068659","79214.5237436","79981.1019278","80747.7803415","81514.3307654","82281.2146056","68464.9585582","69231.6588879","69998.2560661","81519.4228888"
"Mixed","Male","done","41","F_lash.wav","None","727.328858951","423","78447.8257515","70764.8523676","71531.518216","72298.4727721","73048.1460767","73814.742086","74581.3781286","75348.0068659","79214.5237436","79981.1019278","80747.7803415","81514.3307654","82281.2146056","83030.9147939","69231.6588879","69998.2560661","82287.0457385"
"Mixed","Male","done","41","M_done.wav","None","742.759810505","423","78447.8257515","70764.8523676","71531.518216","72298.4727721","73048.1460767","73814.742086","74581.3781286","75348.0068659","79214.5237436","79981.1019278","80747.7803415","81514.3307654","82281.2146056","83030.9147939","83797.5879477","69998.2560661","83036.0434441"
"Mixed","Male","done","41","F_depth.wav","space","737.313231339","423","78447.8257515","70764.8523676","71531.518216","72298.4727721","73048.1460767","73814.742086","74581.3781286","75348.0068659","79214.5237436","79981.1019278","80747.7803415","81514.3307654","82281.2146056","83030.9147939","83797.5879477","84564.2511662","83802.6230894"
"Mixed","Male","done","41","M_done.wav","None","737.211833036","423","78447.8257515","85330.8404546","71531.518216","72298.4727721","73048.1460767","73814.742086","74581.3781286","75348.0068659","79214.5237436","79981.1019278","80747.7803415","81514.3307654","82281.2146056","83030.9147939","83797.5879477","84564.2511662","84569.3088084"
"Mixed","Male","done","41","F_romp.wav","space","611.524399295","423","78447.8257515","85330.8404546","86097.4656853","72298.4727721","73048.1460767","73814.742086","74581.3781286","75348.0068659","79214.5237436","79981.1019278","80747.7803415","81514.3307654","82281.2146056","83030.9147939","83797.5879477","84564.2511662","85336.2814817"
"Mixed","Male","done","41","M_depth.wav","None","731.731941459","423","78447.8257515","85330.8404546","86097.4656853","86864.1052345","73048.1460767","73814.742086","74581.3781286","75348.0068659","79214.5237436","79981.1019278","80747.7803415","81514.3307654","82281.2146056","83030.9147939","83797.5879477","84564.2511662","86102.4090717"
"Mixed","Male","done","41","F_dime.wav","None","728.741422055","423","78447.8257515","85330.8404546","86097.4656853","86864.1052345","87614.1338715","73814.742086","74581.3781286","75348.0068659","79214.5237436","79981.1019278","80747.7803415","81514.3307654","82281.2146056","83030.9147939","83797.5879477","84564.2511662","86869.3463871"
"Mixed","Male","done","41","F_bluff.wav","None","742.804811482","423","78447.8257515","85330.8404546","86097.4656853","86864.1052345","87614.1338715","88380.6629637","74581.3781286","75348.0068659","79214.5237436","79981.1019278","80747.7803415","81514.3307654","82281.2146056","83030.9147939","83797.5879477","84564.2511662","87619.3016784"
"Mixed","Male","done","41","M_done.wav","None","740.619634218","423","78447.8257515","85330.8404546","86097.4656853","86864.1052345","87614.1338715","88380.6629637","89147.3083572","75348.0068659","79214.5237436","79981.1019278","80747.7803415","81514.3307654","82281.2146056","83030.9147939","83797.5879477","84564.2511662","88385.6145322"
"Mixed","Male","done","41","M_reek.wav","space","539.111984636","423","78447.8257515","85330.8404546","86097.4656853","86864.1052345","87614.1338715","88380.6629637","89147.3083572","89914.0057648","79214.5237436","79981.1019278","80747.7803415","81514.3307654","82281.2146056","83030.9147939","83797.5879477","84564.2511662","89152.3598629"
"Mixed","Female","tile","34","F_park.wav","None","735.087144098","423","93013.8424755","85330.8404546","86097.4656853","86864.1052345","87614.1338715","88380.6629637","89147.3083572","89914.0057648","79214.5237436","79981.1019278","80747.7803415","81514.3307654","82281.2146056","83030.9147939","83797.5879477","84564.2511662","89918.8682079"
"Mixed","Female","tile","34","M_jolt.wav","None","741.332636695","423","93013.8424755","85330.8404546","86097.4656853","86864.1052345","87614.1338715","88380.6629637","89147.3083572","89914.0057648","93780.4276729","79981.1019278","80747.7803415","81514.3307654","82281.2146056","83030.9147939","83797.5879477","84564.2511662","93018.9600216"
"Mixed","Female","tile","34","M_knife.wav","None","738.850569875","423","93013.8424755","85330.8404546","86097.4656853","86864.1052345","87614.1338715","88380.6629637","89147.3083572","89914.0057648","93780.4276729","94547.0344941","80747.7803415","81514.3307654","82281.2146056","83030.9147939","83797.5879477","84564.2511662","93785.5650895"
"Mixed","Female","tile","34","M_cling.wav","None","736.732017435","423","93013.8424755","85330.8404546","86097.4656853","86864.1052345","87614.1338715","88380.6629637","89147.3083572","89914.0057648","93780.4276729","94547.0344941","95313.7207976","81514.3307654","82281.2146056","83030.9147939","83797.5879477","84564.2511662","94552.0760645"
"Mixed","Female","tile","34","M_cling.wav","None","734.479923136","423","93013.8424755","85330.8404546","86097.4656853","86864.1052345","87614.1338715","88380.6629637","89147.3083572","89914.0057648","93780.4276729","94547.0344941","95313.7207976","96080.2966441","82281.2146056","83030.9147939","83797.5879477","84564.2511662","95318.5166159"
"Mixed","Female","tile","34","F_tile.wav","None","732.106267759","423","93013.8424755","85330.8404546","86097.4656853","86864.1052345","87614.1338715","88380.6629637","89147.3083572","89914.0057648","93780.4276729","94547.0344941","95313.7207976","96080.2966441","96846.9519729","83030.9147939","83797.5879477","84564.2511662","96085.3794167"
"Mixed","Female","tile","34","M_depth.wav","space","606.751373699","423","93013.8424755","85330.8404546","86097.4656853","86864.1052345","87614.1338715","88380.6629637","89147.3083572","89914.0057648","93780.4276729","94547.0344941","95313.7207976","96080.2966441","96846.9519729","97596.9169072","83797.5879477","84564.2511662","96852.0578303"
"Mixed","Female","tile","34","F_tile.wav","None","743.195793987","423","93013.8424755","85330.8404546","86097.4656853","86864.1052345","87614.1338715","88380.6629637","89147.3083572","89914.0057648","93780.4276729","94547.0344941","95313.7207976","96080.2966441","96846.9519729","97596.9169072","98363.5503199","84564.2511662","97602.1209486"
"Mixed","Female","tile","34","F_dime.wav","space","618.546889264","423","93013.8424755","85330.8404546","86097.4656853","86864.1052345","87614.1338715","88380.6629637","89147.3083572","89914.0057648","93780.4276729","94547.0344941","95313.7207976","96080.2966441","96846.9519729","97596.9169072","98363.5503199","99130.2439287","98368.2666559"
"Mixed","Female","tile","34","F_tile.wav","None","738.089936496","423","93013.8424755","99896.8478277","86097.4656853","86864.1052345","87614.1338715","88380.6629637","89147.3083572","89914.0057648","93780.4276729","94547.0344941","95313.7207976","96080.2966441","96846.9519729","97596.9169072","98363.5503199","99130.2439287","99135.2156599"
"Mixed","Female","tile","34","F_jolt.wav","space","676.490321283","423","93013.8424755","99896.8478277","100663.449389","86864.1052345","87614.1338715","88380.6629637","89147.3083572","89914.0057648","93780.4276729","94547.0344941","95313.7207976","96080.2966441","96846.9519729","97596.9169072","98363.5503199","99130.2439287","99902.18132"
"Mixed","Female","tile","34","F_tile.wav","None","732.932649318","423","93013.8424755","99896.8478277","100663.449389","101430.119621","87614.1338715","88380.6629637","89147.3083572","89914.0057648","93780.4276729","94547.0344941","95313.7207976","96080.2966441","96846.9519729","97596.9169072","98363.5503199","99130.2439287","100668.485407"
"Mixed","Female","tile","34","M_lash.wav","space","519.528670297","423","93013.8424755","99896.8478277","100663.449389","101430.119621","102197.004045","88380.6629637","89147.3083572","89914.0057648","93780.4276729","94547.0344941","95313.7207976","96080.2966441","96846.9519729","97596.9169072","98363.5503199","99130.2439287","101435.025019"
"Mixed","Female","tile","34","M_jaw.wav","None","726.727774486","423","93013.8424755","99896.8478277","100663.449389","101430.119621","102197.004045","102946.719721","89147.3083572","89914.0057648","93780.4276729","94547.0344941","95313.7207976","96080.2966441","96846.9519729","97596.9169072","98363.5503199","99130.2439287","102202.734657"
"Mixed","Female","tile","34","F_depth.wav","None","742.017586615","423","93013.8424755","99896.8478277","100663.449389","101430.119621","102197.004045","102946.719721","103713.346413","89914.0057648","93780.4276729","94547.0344941","95313.7207976","96080.2966441","96846.9519729","97596.9169072","98363.5503199","99130.2439287","102951.915581"
"Mixed","Female","tile","34","M_jolt.wav","None","739.565033423","423","93013.8424755","99896.8478277","100663.449389","101430.119621","102197.004045","102946.719721","103713.346413","104479.916707","93780.4276729","94547.0344941","95313.7207976","96080.2966441","96846.9519729","97596.9169072","98363.5503199","99130.2439287","103718.546655"
"Mixed","Female","tile","33","M_reek.wav","None","737.651907516","423","107596.463975","99896.8478277","100663.449389","101430.119621","102197.004045","102946.719721","103713.346413","104479.916707","93780.4276729","94547.0344941","95313.7207976","96080.2966441","96846.9519729","97596.9169072","98363.5503199","99130.2439287","104484.68009"
"Mixed","Female","tile","33","M_priest.wav","None","741.759269325","423","107596.463975","99896.8478277","100663.449389","101430.119621","102197.004045","102946.719721","103713.346413","104479.916707","108363.132746","94547.0344941","95313.7207976","96080.2966441","96846.9519729","97596.9169072","98363.5503199","99130.2439287","107601.466973"
"Mixed","Female","tile","33","M_jolt.wav","None","738.913395914","423","107596.463975","99896.8478277","100663.449389","101430.119621","102197.004045","102946.719721","103713.346413","104479.916707","108363.132746","109129.712683","95313.7207976","96080.2966441","96846.9519729","97596.9169072","98363.5503199","99130.2439287","108368.473544"
"Mixed","Female","tile","33","F_tile.wav","None","737.139071718","423","107596.463975","99896.8478277","100663.449389","101430.119621","102197.004045","102946.719721","103713.346413","104479.916707","108363.132746","109129.712683","109896.428793","96080.2966441","96846.9519729","97596.9169072","98363.5503199","99130.2439287","109134.862081"
"Mixed","Female","tile","33","M_knife.wav","space","588.544387911","423","107596.463975","99896.8478277","100663.449389","101430.119621","102197.004045","102946.719721","103713.346413","104479.916707","108363.132746","109129.712683","109896.428793","110662.935969","96846.9519729","97596.9169072","98363.5503199","99130.2439287","109901.352601"
"Mixed","Female","tile","33","F_romp.wav","None","732.090780411","423","107596.463975","99896.8478277","100663.449389","101430.119621","102197.004045","102946.719721","103713.346413","104479.916707","108363.132746","109129.712683","109896.428793","110662.935969","111429.598019","97596.9169072","98363.5503199","99130.2439287","110668.229428"
"Mixed","Female","tile","33","F_greet.wav","None","730.202784918","423","107596.463975","99896.8478277","100663.449389","101430.119621","102197.004045","102946.719721","103713.346413","104479.916707","108363.132746","109129.712683","109896.428793","110662.935969","111429.598019","112196.558127","98363.5503199","99130.2439287","111434.489099"
"Mixed","Female","tile","33","F_tile.wav","None","727.112620494","423","107596.463975","99896.8478277","100663.449389","101430.119621","102197.004045","102946.719721","103713.346413","104479.916707","108363.132746","109129.712683","109896.428793","110662.935969","111429.598019","112196.558127","112946.203086","99130.2439287","112202.023992"
"Mixed","Female","tile","33","M_priest.wav","space","570.534938875","423","107596.463975","99896.8478277","100663.449389","101430.119621","102197.004045","102946.719721","103713.346413","104479.916707","108363.132746","109129.712683","109896.428793","110662.935969","111429.598019","112196.558127","112946.203086","113712.901079","112951.049166"
"Mixed","Female","tile","33","F_lash.wav","None","739.108887166","423","107596.463975","114479.458223","100663.449389","101430.119621","102197.004045","102946.719721","103713.346413","104479.916707","108363.132746","109129.712683","109896.428793","110662.935969","111429.598019","112196.558127","112946.203086","113712.901079","113718.063626"
"Mixed","Female","tile","33","F_tile.wav","None","737.093194099","423","107596.463975","114479.458223","115246.05394","101430.119621","102197.004045","102946.719721","103713.346413","104479.916707","108363.132746","109129.712683","109896.428793","110662.935969","111429.598019","112196.558127","112946.203086","113712.901079","114484.479046"
"Mixed","Female","tile","33","M_greet.wav","space","550.650936196","423","107596.463975","114479.458223","115246.05394","116012.699626","102197.004045","102946.719721","103713.346413","104479.916707","108363.132746","109129.712683","109896.428793","110662.935969","111429.598019","112196.558127","112946.203086","113712.901079","115250.805342"
"Mixed","Female","tile","33","M_cad.wav","None","731.671745348","423","107596.463975","114479.458223","115246.05394","116012.699626","116779.352325","102946.719721","103713.346413","104479.916707","108363.132746","109129.712683","109896.428793","110662.935969","111429.598019","112196.558127","112946.203086","113712.901079","116018.039839"
"Mixed","Female","tile","33","M_dime.wav","None","729.672124058","423","107596.463975","114479.458223","115246.05394","116012.699626","116779.352325","117546.296069","103713.346413","104479.916707","108363.132746","109129.712683","109896.428793","110662.935969","111429.598019","112196.558127","112946.203086","113712.901079","116784.403831"
"Mixed","Female","tile","33","F_tile.wav","None","726.689786649","423","107596.463975","114479.458223","115246.05394","116012.699626","116779.352325","117546.296069","118295.943951","104479.916707","108363.132746","109129.712683","109896.428793","110662.935969","111429.598019","112196.558127","112946.203086","113712.901079","117551.72833"
"Mixed","Female","tile","33","F_depth.wav","space","428.306432101","423","107596.463975","114479.458223","115246.05394","116012.699626","116779.352325","117546.296069","118295.943951","119062.560415","108363.132746","109129.712683","109896.428793","110662.935969","111429.598019","112196.558127","112946.203086","113712.901079","118300.909253"
"Mixed","Female","ball","12","F_depth.wav","None","738.990832659","423","122196.104318","114479.458223","115246.05394","116012.699626","116779.352325","117546.296069","118295.943951","119062.560415","108363.132746","109129.712683","109896.428793","110662.935969","111429.598019","112196.558127","112946.203086","113712.901079","119067.54851"
"Mixed","Female","ball","12","F_romp.wav","None","724.340677259","423","122196.104318","114479.458223","115246.05394","116012.699626","116779.352325","117546.296069","118295.943951","119062.560415","122945.72444","109129.712683","109896.428793","110662.935969","111429.598019","112196.558127","112946.203086","113712.901079","122201.586547"
"Mixed","Female","ball","12","F_ball.wav","None","739.717276985","423","122196.104318","114479.458223","115246.05394","116012.699626","116779.352325","117546.296069","118295.943951","119062.560415","122945.72444","123712.376262","109896.428793","110662.935969","111429.598019","112196.558127","112946.203086","113712.901079","122950.667534"
"Mixed","Female","ball","12","F_cad.wav","space","570.922707025","423","122196.104318","114479.458223","115246.05394","116012.699626","116779.352325","117546.296069","118295.943951","119062.560415","122945.72444","123712.376262","124479.01172","110662.935969","111429.598019","112196.558127","112946.203086","113712.901079","123717.827809"
"Mixed","Female","ball","12","M_knife.wav","None","734.680966458","423","122196.104318","114479.458223","115246.05394","116012.699626","116779.352325","117546.296069","118295.943951","119062.560415","122945.72444","123712.376262","124479.01172","125245.605392","111429.598019","112196.558127","112946.203086","113712.901079","124483.895787"
"Mixed","Female","ball","12","F_ball.wav","None","732.382702326","423","122196.104318","114479.458223","115246.05394","116012.699626","116779.352325","117546.296069","118295.943951","119062.560415","122945.72444","123712.376262","124479.01172","125245.605392","126012.212797","112196.558127","112946.203086","113712.901079","125250.61365"
"Mixed","Female","ball","12","M_bluff.wav","space","583.356126035","423","122196.104318","114479.458223","115246.05394","116012.699626","116779.352325","117546.296069","118295.943951","119062.560415","122945.72444","123712.376262","124479.01172","125245.605392","126012.212797","126779.231348","112946.203086","113712.901079","126017.246478"
"Mixed","Female","ball","12","M_reek.wav","None","726.418611936","423","122196.104318","114479.458223","115246.05394","116012.699626","116779.352325","117546.296069","118295.943951","119062.560415","122945.72444","123712.376262","124479.01172","125245.605392","126012.212797","126779.231348","127528.842411","113712.901079","126784.747767"
"Mixed","Female","ball","12","F_ball.wav","None","741.263381946","423","122196.104318","114479.458223","115246.05394","116012.699626","116779.352325","117546.296069","118295.943951","119062.560415","122945.72444","123712.376262","124479.01172","125245.605392","126012.212797","126779.231348","127528.842411","128295.483422","127534.258308"
"Mixed","Female","ball","12","M_lash.wav","space","571.702626537","423","122196.104318","129062.094334","115246.05394","116012.699626","116779.352325","117546.296069","118295.943951","119062.560415","122945.72444","123712.376262","124479.01172","125245.605392","126012.212797","126779.231348","127528.842411","128295.483422","128300.698275"
"Mixed","Female","ball","12","M_park.wav","None","736.433374595","423","122196.104318","129062.094334","129828.716642","116012.699626","116779.352325","117546.296069","118295.943951","119062.560415","122945.72444","123712.376262","124479.01172","125245.605392","126012.212797","126779.231348","127528.842411","128295.483422","129067.162496"
"Mixed","Female","ball","12","M_park.wav","None","734.049199508","423","122196.104318","129062.094334","129828.716642","130595.392134","116779.352325","117546.296069","118295.943951","119062.560415","122945.72444","123712.376262","124479.01172","125245.605392","126012.212797","126779.231348","127528.842411","128295.483422","129833.933249"
"Mixed","Female","ball","12","F_ball.wav","None","732.1918865","423","122196.104318","129062.094334","129828.716642","130595.392134","131361.966811","117546.296069","118295.943951","119062.560415","122945.72444","123712.376262","124479.01172","125245.605392","126012.212797","126779.231348","127528.842411","128295.483422","130600.398639"
"Mixed","Female","ball","12","F_gnash.wav","space","532.592102972","423","122196.104318","129062.094334","129828.716642","130595.392134","131361.966811","132128.946498","118295.943951","119062.560415","122945.72444","123712.376262","124479.01172","125245.605392","126012.212797","126779.231348","127528.842411","128295.483422","131363.566099"
"Mixed","Female","ball","12","M_greet.wav","None","727.304897392","423","122196.104318","129062.094334","129828.716642","130595.392134","131361.966811","132128.946498","132878.604315","119062.560415","122945.72444","123712.376262","124479.01172","125245.605392","126012.212797","126779.231348","127528.842411","128295.483422","132134.378466"
"Mixed","Female","ball","12","M_lash.wav","None","742.306001961","423","122196.104318","129062.094334","129828.716642","130595.392134","131361.966811","132128.946498","132878.604315","133645.231007","122945.72444","123712.376262","124479.01172","125245.605392","126012.212797","126779.231348","127528.842411","128295.483422","132883.616372"
"Mixed","Male","done","37","M_cling.wav","None","740.780059775","423","136745.101615","129062.094334","129828.716642","130595.392134","131361.966811","132128.946498","132878.604315","133645.231007","122945.72444","123712.376262","124479.01172","125245.605392","126012.212797","126779.231348","127528.842411","128295.483422","133650.215011"
"Mixed","Male","done","37","F_priest.wav","None","741.618422114","423","136745.101615","129062.094334","129828.716642","130595.392134","131361.966811","132128.946498","132878.604315","133645.231007","137511.721001","123712.376262","124479.01172","125245.605392","126012.212797","126779.231348","127528.842411","128295.483422","136750.12536"
"Mixed","Male","done","37","F_jolt.wav","None","739.200642404","423","136745.101615","129062.094334","129828.716642","130595.392134","131361.966811","132128.946498","132878.604315","133645.231007","137511.721001","138278.332205","124479.01172","125245.605392","126012.212797","126779.231348","127528.842411","128295.483422","137516.985531"
"Mixed","Male","done","37","M_done.wav","None","737.184364907","423","136745.101615","129062.094334","129828.716642","130595.392134","131361.966811","132128.946498","132878.604315","133645.231007","137511.721001","138278.332205","139044.966203","125245.605392","126012.212797","126779.231348","127528.842411","128295.483422","138283.3691"
"Mixed","Male","done","37","F_bluff.wav","space","589.611261699","423","136745.101615","129062.094334","129828.716642","130595.392134","131361.966811","132128.946498","132878.604315","133645.231007","137511.721001","138278.332205","139044.966203","139811.576238","126012.212797","126779.231348","127528.842411","128295.483422","139049.930628"
"Mixed","Male","done","37","M_done.wav","None","731.647199362","423","136745.101615","129062.094334","129828.716642","130595.392134","131361.966811","132128.946498","132878.604315","133645.231007","137511.721001","138278.332205","139044.966203","139811.576238","140578.215495","126779.231348","127528.842411","128295.483422","139816.880217"
"Mixed","Male","done","37","F_depth.wav","space","527.995282495","423","136745.101615","129062.094334","129828.716642","130595.392134","131361.966811","132128.946498","132878.604315","133645.231007","137511.721001","138278.332205","139044.966203","139811.576238","140578.215495","141328.148286","127528.842411","128295.483422","140583.432394"
"Mixed","Male","done","37","F_park.wav","None","747.090716123","423","136745.101615","129062.094334","129828.716642","130595.392134","131361.966811","132128.946498","132878.604315","133645.231007","137511.721001","138278.332205","139044.966203","139811.576238","140578.215495","141328.148286","142094.852122","128295.483422","141329.761892"
"Mixed","Male","done","37","F_romp.wav","None","741.579557634","423","136745.101615","129062.094334","129828.716642","130595.392134","131361.966811","132128.946498","132878.604315","133645.231007","137511.721001","138278.332205","139044.966203","139811.576238","140578.215495","141328.148286","142094.852122","142861.420663","142099.767456"
"Mixed","Male","done","37","M_jaw.wav","None","739.160901282","423","136745.101615","143628.098493","129828.716642","130595.392134","131361.966811","132128.946498","132878.604315","133645.231007","137511.721001","138278.332205","139044.966203","139811.576238","140578.215495","141328.148286","142094.852122","142861.420663","142866.572398"
"Mixed","Male","done","37","M_reek.wav","None","736.593800151","423","136745.101615","143628.098493","144394.705898","130595.392134","131361.966811","132128.946498","132878.604315","133645.231007","137511.721001","138278.332205","139044.966203","139811.576238","140578.215495","141328.148286","142094.852122","142861.420663","143633.557052"
"Mixed","Male","done","37","M_done.wav","None","735.227699095","423","136745.101615","143628.098493","144394.705898","145161.336681","131361.966811","132128.946498","132878.604315","133645.231007","137511.721001","138278.332205","139044.966203","139811.576238","140578.215495","141328.148286","142094.852122","142861.420663","144399.495288"
"Mixed","Male","done","37","M_knife.wav","space","720.761054168","423","136745.101615","143628.098493","144394.705898","145161.336681","145927.928015","132128.946498","132878.604315","133645.231007","137511.721001","138278.332205","139044.966203","139811.576238","140578.215495","141328.148286","142094.852122","142861.420663","145166.28971"
"Mixed","Male","done","37","F_gnash.wav","None","729.669786345","423","136745.101615","143628.098493","144394.705898","145161.336681","145927.928015","146695.002671","132878.604315","133645.231007","137511.721001","138278.332205","139044.966203","139811.576238","140578.215495","141328.148286","142094.852122","142861.420663","145933.244851"
"Mixed","Male","done","37","M_done.wav","None","727.083399081","423","136745.101615","143628.098493","144394.705898","145161.336681","145927.928015","146695.002671","147444.564934","133645.231007","137511.721001","138278.332205","139044.966203","139811.576238","140578.215495","141328.148286","142094.852122","142861.420663","146700.344345"
"Mixed","Male","done","37","F_park.wav","space","613.175701343","423","136745.101615","143628.098493","144394.705898","145161.336681","145927.928015","146695.002671","147444.564934","148211.195132","137511.721001","138278.332205","139044.966203","139811.576238","140578.215495","141328.148286","142094.852122","142861.420663","147449.694461"
"Mixed","Female","done","44","M_depth.wav","None","739.2605463","423","151311.136456","143628.098493","144394.705898","145161.336681","145927.928015","146695.002671","147444.564934","148211.195132","137511.721001","138278.332205","139044.966203","139811.576238","140578.215495","141328.148286","142094.852122","142861.420663","148216.40794"
"Mixed","Female","done","44","F_done.wav","None","741.643260314","423","151311.136456","143628.098493","144394.705898","145161.336681","145927.928015","146695.002671","147444.564934","148211.195132","152077.672853","138278.332205","139044.966203","139811.576238","140578.215495","141328.148286","142094.852122","142861.420663","151315.973476"
"Mixed","Female","done","44","M_knife.wav","space","659.554174747","423","151311.136456","143628.098493","144394.705898","145161.336681","145927.928015","146695.002671","147444.564934","148211.195132","152077.672853","152844.306266","139044.966203","139811.576238","140578.215495","141328.148286","142094.852122","142861.420663","152082.967773"
"Mixed","Female","done","44","M_cad.wav","None","736.733478506","423","151311.136456","143628.098493","144394.705898","145161.336681","145927.928015","146695.002671","147444.564934","148211.195132","152077.672853","152844.306266","153610.967439","139811.576238","140578.215495","141328.148286","142094.852122","142861.420663","152849.262802"
"Mixed","Female","done","44","F_cad.wav","None","734.446318511","423","151311.136456","143628.098493","144394.705898","145161.336681","145927.928015","146695.002671","147444.564934","148211.195132","152077.672853","152844.306266","153610.967439","154377.616047","140578.215495","141328.148286","142094.852122","142861.420663","153616.043783"
"Mixed","Female","done","44","F_done.wav","None","732.444943936","423","151311.136456","143628.098493","144394.705898","145161.336681","145927.928015","146695.002671","147444.564934","148211.195132","152077.672853","152844.306266","153610.967439","154377.616047","155144.197446","141328.148286","142094.852122","142861.420663","154382.720736"
"Mixed","Female","done","44","F_reek.wav","space","592.988672611","423","151311.136456","143628.098493","144394.705898","145161.336681","145927.928015","146695.002671","147444.564934","148211.195132","152077.672853","152844.306266","153610.967439","154377.616047","155144.197446","155911.131254","142094.852122","142861.420663","155149.250997"
"Mixed","Female","done","44","F_cad.wav","None","726.947811725","423","151311.136456","143628.098493","144394.705898","145161.336681","145927.928015","146695.002671","147444.564934","148211.195132","152077.672853","152844.306266","153610.967439","154377.616047","155144.197446","155911.131254","156660.790241","142861.420663","155916.663452"
"Mixed","Female","done","44","F_done.wav","None","742.387529704","423","151311.136456","143628.098493","144394.705898","145161.336681","145927.928015","146695.002671","147444.564934","148211.195132","152077.672853","152844.306266","153610.967439","154377.616047","155144.197446","155911.131254","156660.790241","157427.412549","156665.925612"
"Mixed","Female","done","44","M_reek.wav","space","453.649579153","423","151311.136456","158194.052098","144394.705898","145161.336681","145927.928015","146695.002671","147444.564934","148211.195132","152077.672853","152844.306266","153610.967439","154377.616047","155144.197446","155911.131254","156660.790241","157427.412549","157432.455581"
"Mixed","Female","done","44","M_romp.wav","None","736.997640079","423","151311.136456","158194.052098","158960.673822","145161.336681","145927.928015","146695.002671","147444.564934","148211.195132","152077.672853","152844.306266","153610.967439","154377.616047","155144.197446","155911.131254","156660.790241","157427.412549","158199.397279"
"Mixed","Female","done","44","M_depth.wav","None","735.270070143","423","151311.136456","158194.052098","158960.673822","159727.322138","145927.928015","146695.002671","147444.564934","148211.195132","152077.672853","152844.306266","153610.967439","154377.616047","155144.197446","155911.131254","156660.790241","157427.412549","158965.635911"
"Mixed","Female","done","44","M_dime.wav","None","733.307852261","423","151311.136456","158194.052098","158960.673822","159727.322138","160493.928375","146695.002671","147444.564934","148211.195132","152077.672853","152844.306266","153610.967439","154377.616047","155144.197446","155911.131254","156660.790241","157427.412549","159732.330396"
"Mixed","Female","done","44","F_done.wav","None","731.135824634","423","151311.136456","158194.052098","158960.673822","159727.322138","160493.928375","161260.537242","147444.564934","148211.195132","152077.672853","152844.306266","153610.967439","154377.616047","155144.197446","155911.131254","156660.790241","157427.412549","160499.18706"
"Mixed","Female","done","44","M_park.wav","space","524.264876914","423","151311.136456","158194.052098","158960.673822","159727.322138","160493.928375","161260.537242","162010.536657","148211.195132","152077.672853","152844.306266","153610.967439","154377.616047","155144.197446","155911.131254","156660.790241","157427.412549","161265.490855"
"Mixed","Female","done","44","F_gnash.wav","None","742.879326083","423","151311.136456","158194.052098","158960.673822","159727.322138","160493.928375","161260.537242","162010.536657","162777.145232","152077.672853","152844.306266","153610.967439","154377.616047","155144.197446","155911.131254","156660.790241","157427.412549","162015.80557"
"Mixed","Female","done","47","F_park.wav","None","741.233283891","423","165893.715","158194.052098","158960.673822","159727.322138","160493.928375","161260.537242","162010.536657","162777.145232","152077.672853","152844.306266","153610.967439","154377.616047","155144.197446","155911.131254","156660.790241","157427.412549","162782.13508"
"Mixed","Female","done","47","F_gnash.wav","None","741.557641575","423","165893.715","158194.052098","158960.673822","159727.322138","160493.928375","161260.537242","162010.536657","162777.145232","166660.316269","152844.306266","153610.967439","154377.616047","155144.197446","155911.131254","156660.790241","157427.412549","165898.806247"
"Mixed","Female","done","47","F_done.wav","None","739.597469192","423","165893.715","158194.052098","158960.673822","159727.322138","160493.928375","161260.537242","162010.536657","162777.145232","166660.316269","167426.932149","153610.967439","154377.616047","155144.197446","155911.131254","156660.790241","157427.412549","166665.284786"
"Mixed","Female","done","47","M_jolt.wav","space","493.248100316","423","165893.715","158194.052098","158960.673822","159727.322138","160493.928375","161260.537242","162010.536657","162777.145232","166660.316269","167426.932149","168193.574328","154377.616047","155144.197446","155911.131254","156660.790241","157427.412549","167432.055832"
"Mixed","Female","done","47","F_done.wav","None","734.594763288","423","165893.715","158194.052098","158960.673822","159727.322138","160493.928375","161260.537242","162010.536657","162777.145232","166660.316269","167426.932149","168193.574328","168960.171214","155144.197446","155911.131254","156660.790241","157427.412549","168198.621451"
"Mixed","Female","done","47","M_gnash.wav","space","567.889232143","423","165893.715","158194.052098","158960.673822","159727.322138","160493.928375","161260.537242","162010.536657","162777.145232","166660.316269","167426.932149","168193.574328","168960.171214","169726.841154","155911.131254","156660.790241","157427.412549","168965.237915"
"Mixed","Female","done","47","M_priest.wav","None","729.896544509","423","165893.715","158194.052098","158960.673822","159727.322138","160493.928375","161260.537242","162010.536657","162777.145232","166660.316269","167426.932149","168193.574328","168960.171214","169726.841154","170493.826392","156660.790241","157427.412549","169731.803826"
"Mixed","Female","done","47","F_lash.wav","None","727.118756991","423","165893.715","158194.052098","158960.673822","159727.322138","160493.928375","161260.537242","162010.536657","162777.145232","166660.316269","167426.932149","168193.574328","168960.171214","169726.841154","170493.826392","171243.421676","157427.412549","170499.518139"
"Mixed","Female","done","47","M_jaw.wav","None","742.831402967","423","165893.715","158194.052098","158960.673822","159727.322138","160493.928375","161260.537242","162010.536657","162777.145232","166660.316269","167426.932149","168193.574328","168960.171214","169726.841154","170493.826392","171243.421676","172010.064439","171248.456233"
"Mixed","Female","done","47","F_priest.wav","None","740.580769739","423","165893.715","172776.715385","158960.673822","159727.322138","160493.928375","161260.537242","162010.536657","162777.145232","166660.316269","167426.932149","168193.574328","168960.171214","169726.841154","170493.826392","171243.421676","172010.064439","172015.153933"
"Mixed","Female","done","47","M_knife.wav","None","738.588746016","423","165893.715","172776.715385","173543.36896","159727.322138","160493.928375","161260.537242","162010.536657","162777.145232","166660.316269","167426.932149","168193.574328","168960.171214","169726.841154","170493.826392","171243.421676","172010.064439","172781.735916"
"Mixed","Female","done","47","F_done.wav","None","736.367918629","423","165893.715","172776.715385","173543.36896","174309.92815","160493.928375","161260.537242","162010.536657","162777.145232","166660.316269","167426.932149","168193.574328","168960.171214","169726.841154","170493.826392","171243.421676","172010.064439","173548.519819"
"Mixed","Female","done","47","M_gnash.wav","space","569.622938575","423","165893.715","172776.715385","173543.36896","174309.92815","175076.570622","161260.537242","162010.536657","162777.145232","166660.316269","167426.932149","168193.574328","168960.171214","169726.841154","170493.826392","171243.421676","172010.064439","174315.142419"
"Mixed","Female","done","47","F_done.wav","None","731.623237803","423","165893.715","172776.715385","173543.36896","174309.92815","175076.570622","175843.220398","162010.536657","162777.145232","166660.316269","167426.932149","168193.574328","168960.171214","169726.841154","170493.826392","171243.421676","172010.064439","175081.594367"
"Mixed","Female","done","47","M_gnash.wav","space","420.352363487","423","165893.715","172776.715385","173543.36896","174309.92815","175076.570622","175843.220398","176593.227119","162777.145232","166660.316269","167426.932149","168193.574328","168960.171214","169726.841154","170493.826392","171243.421676","172010.064439","175848.249988"
"Mixed","Female","done","47","M_lash.wav","None","743.546743157","423","165893.715","172776.715385","173543.36896","174309.92815","175076.570622","175843.220398","176593.227119","177359.849136","166660.316269","167426.932149","168193.574328","168960.171214","169726.841154","170493.826392","171243.421676","172010.064439","176598.395803"
"Mixed","Female","tile","32","F_romp.wav","None","741.517316025","423","180459.682048","172776.715385","173543.36896","174309.92815","175076.570622","175843.220398","176593.227119","177359.849136","166660.316269","167426.932149","168193.574328","168960.171214","169726.841154","170493.826392","171243.421676","172010.064439","177364.967558"
"Mixed","Female","tile","32","M_lash.wav","None","741.546537438","423","180459.682048","172776.715385","173543.36896","174309.92815","175076.570622","175843.220398","176593.227119","177359.849136","181226.291207","167426.932149","168193.574328","168960.171214","169726.841154","170493.826392","171243.421676","172010.064439","180464.723034"
"Mixed","Female","tile","32","M_gnash.wav","None","739.424770642","423","180459.682048","172776.715385","173543.36896","174309.92815","175076.570622","175843.220398","176593.227119","177359.849136","181226.291207","181992.901827","168193.574328","168960.171214","169726.841154","170493.826392","171243.421676","172010.064439","181231.582912"
"Mixed","Female","tile","32","F_tile.wav","None","737.695155207","423","180459.682048","172776.715385","173543.36896","174309.92815","175076.570622","175843.220398","176593.227119","177359.849136","181226.291207","181992.901827","182759.594267","168960.171214","169726.841154","170493.826392","171243.421676","172010.064439","181998.304281"
"Mixed","Female","tile","32","M_park.wav","space","679.576102494","423","180459.682048","172776.715385","173543.36896","174309.92815","175076.570622","175843.220398","176593.227119","177359.849136","181226.291207","181992.901827","182759.594267","183526.135924","169726.841154","170493.826392","171243.421676","172010.064439","182764.474242"
"Mixed","Female","tile","32","F_tile.wav","None","733.451329399","423","180459.682048","172776.715385","173543.36896","174309.92815","175076.570622","175843.220398","176593.227119","177359.849136","181226.291207","181992.901827","182759.594267","183526.135924","184292.77898","170493.826392","171243.421676","172010.064439","183530.9671"
"Mixed","Female","tile","32","M_reek.wav","None","731.37397915","423","180459.682048","172776.715385","173543.36896","174309.92815","175076.570622","175843.220398","176593.227119","177359.849136","181226.291207","181992.901827","182759.594267","183526.135924","184292.77898","185059.468205","171243.421676","172010.064439","184297.747497"
"Mixed","Female","tile","32","F_bluff.wav","space","3.51416712601","423","180459.682048","172776.715385","173543.36896","174309.92815","175076.570622","175843.220398","176593.227119","177359.849136","181226.291207","181992.901827","182759.594267","183526.135924","184292.77898","185059.468205","185809.393691","172010.064439","185064.404579"
"Mixed","Female","tile","32","F_tile.wav","None","743.037121714","423","180459.682048","172776.715385","173543.36896","174309.92815","175076.570622","175843.220398","176593.227119","177359.849136","181226.291207","181992.901827","182759.594267","183526.135924","184292.77898","185059.468205","185809.393691","186576.026811","185814.532861"
"Mixed","Female","tile","32","M_reek.wav","None","741.420300934","423","180459.682048","187342.66373","173543.36896","174309.92815","175076.570622","175843.220398","176593.227119","177359.849136","181226.291207","181992.901827","182759.594267","183526.135924","184292.77898","185059.468205","185809.393691","186576.026811","186581.028933"
"Mixed","Female","tile","32","F_bluff.wav","space","7.8880282208","423","180459.682048","187342.66373","188109.325196","174309.92815","175076.570622","175843.220398","176593.227119","177359.849136","181226.291207","181992.901827","182759.594267","183526.135924","184292.77898","185059.468205","185809.393691","186576.026811","187347.858713"
"Mixed","Female","tile","32","F_priest.wav","space","713.328587775","423","180459.682048","187342.66373","188109.325196","188875.951011","175076.570622","175843.220398","176593.227119","177359.849136","181226.291207","181992.901827","182759.594267","183526.135924","184292.77898","185059.468205","185809.393691","186576.026811","188114.303063"
"Mixed","Female","tile","32","M_depth.wav","None","733.668152283","423","180459.682048","187342.66373","188109.325196","188875.951011","189642.535624","175843.220398","176593.227119","177359.849136","181226.291207","181992.901827","182759.594267","183526.135924","184292.77898","185059.468205","185809.393691","186576.026811","188880.972711"
"Mixed","Female","tile","32","F_tile.wav","None","731.738077956","423","180459.682048","187342.66373","188109.325196","188875.951011","189642.535624","190409.191537","176593.227119","177359.849136","181226.291207","181992.901827","182759.594267","183526.135924","184292.77898","185059.468205","185809.393691","186576.026811","189647.775608"
"Mixed","Female","tile","32","M_greet.wav","space","709.15284786","423","180459.682048","187342.66373","188109.325196","188875.951011","189642.535624","190409.191537","191159.131049","177359.849136","181226.291207","181992.901827","182759.594267","183526.135924","184292.77898","185059.468205","185809.393691","186576.026811","190414.238952"
"Mixed","Female","tile","32","M_greet.wav","None","744.14490548","423","180459.682048","187342.66373","188109.325196","188875.951011","189642.535624","190409.191537","191159.131049","191925.746929","181226.291207","181992.901827","182759.594267","183526.135924","184292.77898","185059.468205","185809.393691","186576.026811","191163.847677"
"Mixed","Female","cave","21","F_cad.wav","None","742.268890766","423","195025.628348","187342.66373","188109.325196","188875.951011","189642.535624","190409.191537","191159.131049","191925.746929","181226.291207","181992.901827","182759.594267","183526.135924","184292.77898","185059.468205","185809.393691","186576.026811","191930.789083"
"Mixed","Female","cave","21","F_park.wav","None","741.589492915","423","195025.628348","187342.66373","188109.325196","188875.951011","189642.535624","190409.191537","191159.131049","191925.746929","195792.280462","181992.901827","182759.594267","183526.135924","184292.77898","185059.468205","185809.393691","186576.026811","195030.615274"
"Mixed","Female","cave","21","M_cling.wav","None","739.543994006","423","195025.628348","187342.66373","188109.325196","188875.951011","189642.535624","190409.191537","191159.131049","191925.746929","195792.280462","196558.859816","182759.594267","183526.135924","184292.77898","185059.468205","185809.393691","186576.026811","195797.255408"
"Mixed","Female","cave","21","F_cave.wav","None","737.774053022","423","195025.628348","187342.66373","188109.325196","188875.951011","189642.535624","190409.191537","191159.131049","191925.746929","195792.280462","196558.859816","197325.528294","183526.135924","184292.77898","185059.468205","185809.393691","186576.026811","196563.967719"
"Mixed","Female","cave","21","M_cad.wav","space","595.762953561","423","195025.628348","187342.66373","188109.325196","188875.951011","189642.535624","190409.191537","191159.131049","191925.746929","195792.280462","196558.859816","197325.528294","198092.196772","184292.77898","185059.468205","185809.393691","186576.026811","197327.18544"
"Mixed","Female","cave","21","F_cave.wav","None","736.376977266","423","195025.628348","187342.66373","188109.325196","188875.951011","189642.535624","190409.191537","191159.131049","191925.746929","195792.280462","196558.859816","197325.528294","198092.196772","198858.769404","185059.468205","185809.393691","186576.026811","198097.378021"
"Mixed","Female","cave","21","M_romp.wav","space","570.861049843","423","195025.628348","187342.66373","188109.325196","188875.951011","189642.535624","190409.191537","191159.131049","191925.746929","195792.280462","196558.859816","197325.528294","198092.196772","198858.769404","199625.382362","185809.393691","186576.026811","198863.935458"
"Mixed","Female","cave","21","M_priest.wav","None","731.927432712","423","195025.628348","187342.66373","188109.325196","188875.951011","189642.535624","190409.191537","191159.131049","191925.746929","195792.280462","196558.859816","197325.528294","198092.196772","198858.769404","199625.382362","200392.04675","186576.026811","199630.148082"
"Mixed","Female","cave","21","M_depth.wav","None","729.936577845","423","195025.628348","187342.66373","188109.325196","188875.951011","189642.535624","190409.191537","191159.131049","191925.746929","195792.280462","196558.859816","197325.528294","198092.196772","198858.769404","199625.382362","200392.04675","201159.073483","200397.026371"
"Mixed","Female","cave","21","M_bluff.wav","None","726.95599372","423","195025.628348","201908.681039","188109.325196","188875.951011","189642.535624","190409.191537","191159.131049","191925.746929","195792.280462","196558.859816","197325.528294","198092.196772","198858.769404","199625.382362","200392.04675","201159.073483","201164.697436"
"Mixed","Female","cave","21","M_jolt.wav","None","742.571624605","423","195025.628348","201908.681039","202675.300718","188875.951011","189642.535624","190409.191537","191159.131049","191925.746929","195792.280462","196558.859816","197325.528294","198092.196772","198858.769404","199625.382362","200392.04675","201159.073483","201913.845047"
"Mixed","Female","cave","21","M_cling.wav","None","740.975258815","423","195025.628348","201908.681039","202675.300718","203441.910169","189642.535624","190409.191537","191159.131049","191925.746929","195792.280462","196558.859816","197325.528294","198092.196772","198858.769404","199625.382362","200392.04675","201159.073483","202680.222772"
"Mixed","Female","cave","21","F_cave.wav","None","739.120575732","423","195025.628348","201908.681039","202675.300718","203441.910169","204208.560238","190409.191537","191159.131049","191925.746929","195792.280462","196558.859816","197325.528294","198092.196772","198858.769404","199625.382362","200392.04675","201159.073483","203446.890082"
"Mixed","Female","cave","21","F_park.wav","None","737.191085833","423","195025.628348","201908.681039","202675.300718","203441.910169","204208.560238","204975.179332","191159.131049","191925.746929","195792.280462","196558.859816","197325.528294","198092.196772","198858.769404","199625.382362","200392.04675","201159.073483","204213.555054"
"Mixed","Female","cave","21","F_cave.wav","space","22.0031395484","423","195025.628348","201908.681039","202675.300718","203441.910169","204208.560238","204975.179332","205741.766575","191925.746929","195792.280462","196558.859816","197325.528294","198092.196772","198858.769404","199625.382362","200392.04675","201159.073483","204980.326684"
"Mixed","Female","cave","21","F_depth.wav","None","732.321629574","423","195025.628348","201908.681039","202675.300718","203441.910169","204208.560238","204975.179332","205741.766575","206508.37924","195792.280462","196558.859816","197325.528294","198092.196772","198858.769404","199625.382362","200392.04675","201159.073483","205746.86425"
"Mixed","Male","cave","15","F_cling.wav","space","56.9089940009","423","209608.281115","201908.681039","202675.300718","203441.910169","204208.560238","204975.179332","205741.766575","206508.37924","195792.280462","196558.859816","197325.528294","198092.196772","198858.769404","199625.382362","200392.04675","201159.073483","206513.30597"
"Mixed","Male","cave","15","M_cave.wav","None","741.313058348","423","209608.281115","201908.681039","202675.300718","203441.910169","204208.560238","204975.179332","205741.766575","206508.37924","210374.95573","196558.859816","197325.528294","198092.196772","198858.769404","199625.382362","200392.04675","201159.073483","209613.627172"
"Mixed","Male","cave","15","F_greet.wav","space","693.864789016","423","209608.281115","201908.681039","202675.300718","203441.910169","204208.560238","204975.179332","205741.766575","206508.37924","210374.95573","211141.540342","197325.528294","198092.196772","198858.769404","199625.382362","200392.04675","201159.073483","210379.960773"
"Mixed","Male","cave","15","M_priest.wav","None","736.632080202","423","209608.281115","201908.681039","202675.300718","203441.910169","204208.560238","204975.179332","205741.766575","206508.37924","210374.95573","211141.540342","211908.141612","198092.196772","198858.769404","199625.382362","200392.04675","201159.073483","211146.721299"
"Mixed","Male","cave","15","F_romp.wav","None","735.108767944","423","209608.281115","201908.681039","202675.300718","203441.910169","204208.560238","204975.179332","205741.766575","206508.37924","210374.95573","211141.540342","211908.141612","212674.823532","198858.769404","199625.382362","200392.04675","201159.073483","211913.137012"
"Mixed","Male","cave","15","M_cave.wav","None","733.368925014","423","209608.281115","201908.681039","202675.300718","203441.910169","204208.560238","204975.179332","205741.766575","206508.37924","210374.95573","211141.540342","211908.141612","212674.823532","213441.428308","199625.382362","200392.04675","201159.073483","212679.77247"
"Mixed","Male","cave","15","F_jolt.wav","space","483.269864424","423","209608.281115","201908.681039","202675.300718","203441.910169","204208.560238","204975.179332","205741.766575","206508.37924","210374.95573","211141.540342","211908.141612","212674.823532","213441.428308","214208.576309","200392.04675","201159.073483","213446.363804"
"Mixed","Male","cave","15","M_cave.wav","None","727.652924421","423","209608.281115","201908.681039","202675.300718","203441.910169","204208.560238","204975.179332","205741.766575","206508.37924","210374.95573","211141.540342","211908.141612","212674.823532","213441.428308","214208.576309","214958.101754","201159.073483","214213.918276"
"Mixed","Male","cave","15","F_jaw.wav","space","526.587102603","423","209608.281115","201908.681039","202675.300718","203441.910169","204208.560238","204975.179332","205741.766575","206508.37924","210374.95573","211141.540342","211908.141612","212674.823532","213441.428308","214208.576309","214958.101754","215724.634645","214962.910137"
"Mixed","Male","cave","15","F_bluff.wav","None","740.247937845","423","209608.281115","216491.297279","202675.300718","203441.910169","204208.560238","204975.179332","205741.766575","206508.37924","210374.95573","211141.540342","211908.141612","212674.823532","213441.428308","214208.576309","214958.101754","215724.634645","215729.751606"
"Mixed","Male","cave","15","M_cad.wav","None","738.593129227","423","209608.281115","216491.297279","217257.869619","203441.910169","204208.560238","204975.179332","205741.766575","206508.37924","210374.95573","211141.540342","211908.141612","212674.823532","213441.428308","214208.576309","214958.101754","215724.634645","216496.263166"
"Mixed","Male","cave","15","M_cave.wav","None","737.310309198","423","209608.281115","216491.297279","217257.869619","218024.597417","204208.560238","204975.179332","205741.766575","206508.37924","210374.95573","211141.540342","211908.141612","212674.823532","213441.428308","214208.576309","214958.101754","215724.634645","217262.635047"
"Mixed","Male","cave","15","M_dime.wav","space","571.525836988","423","209608.281115","216491.297279","217257.869619","218024.597417","218791.177354","204975.179332","205741.766575","206508.37924","210374.95573","211141.540342","211908.141612","212674.823532","213441.428308","214208.576309","214958.101754","215724.634645","218029.720807"
"Mixed","Male","cave","15","F_cad.wav","None","732.074416419","423","209608.281115","216491.297279","217257.869619","218024.597417","218791.177354","219557.780377","205741.766575","206508.37924","210374.95573","211141.540342","211908.141612","212674.823532","213441.428308","214208.576309","214958.101754","215724.634645","218796.561984"
"Mixed","Male","cave","15","M_lash.wav","None","730.991763068","423","209608.281115","216491.297279","217257.869619","218024.597417","218791.177354","219557.780377","220324.43629","206508.37924","210374.95573","211141.540342","211908.141612","212674.823532","213441.428308","214208.576309","214958.101754","215724.634645","219562.567136"
"Mixed","Male","cave","15","F_romp.wav","None","729.051461246","423","209608.281115","216491.297279","217257.869619","218024.597417","218791.177354","219557.780377","220324.43629","221074.390997","210374.95573","211141.540342","211908.141612","212674.823532","213441.428308","214208.576309","214958.101754","215724.634645","220329.42906"
"Mixed","Female","tile","31","M_knife.wav","None","743.734344628","423","224174.344593","216491.297279","217257.869619","218024.597417","218791.177354","219557.780377","220324.43629","221074.390997","210374.95573","211141.540342","211908.141612","212674.823532","213441.428308","214208.576309","214958.101754","215724.634645","221079.392534"
"Mixed","Female","tile","31","F_knife.wav","None","741.346078545","423","224174.344593","216491.297279","217257.869619","218024.597417","218791.177354","219557.780377","220324.43629","221074.390997","224940.861412","211141.540342","211908.141612","212674.823532","213441.428308","214208.576309","214958.101754","215724.634645","224179.233043"
"Mixed","Female","tile","31","F_gnash.wav","None","739.714354843","423","224174.344593","216491.297279","217257.869619","218024.597417","218791.177354","219557.780377","220324.43629","221074.390997","224940.861412","225707.475539","211908.141612","212674.823532","213441.428308","214208.576309","214958.101754","215724.634645","224945.975744"
"Mixed","Female","tile","31","M_depth.wav","None","738.392378121","423","224174.344593","216491.297279","217257.869619","218024.597417","218791.177354","219557.780377","220324.43629","221074.390997","224940.861412","225707.475539","226474.148985","212674.823532","213441.428308","214208.576309","214958.101754","215724.634645","225712.367496"
"Mixed","Female","tile","31","M_lash.wav","None","736.740491645","423","224174.344593","216491.297279","217257.869619","218024.597417","218791.177354","219557.780377","220324.43629","221074.390997","224940.861412","225707.475539","226474.148985","227240.760189","213441.428308","214208.576309","214958.101754","215724.634645","226478.936913"
"Mixed","Female","tile","31","F_tile.wav","None","734.772137266","423","224174.344593","216491.297279","217257.869619","218024.597417","218791.177354","219557.780377","220324.43629","221074.390997","224940.861412","225707.475539","226474.148985","227240.760189","228007.397693","214208.576309","214958.101754","215724.634645","227245.856404"
"Mixed","Female","tile","31","M_bluff.wav","space","619.859515135","423","224174.344593","216491.297279","217257.869619","218024.597417","218791.177354","219557.780377","220324.43629","221074.390997","224940.861412","225707.475539","226474.148985","227240.760189","228007.397693","228774.048054","214958.101754","215724.634645","228012.604072"
"Mixed","Female","tile","31","F_tile.wav","None","730.707730934","423","224174.344593","216491.297279","217257.869619","218024.597417","218791.177354","219557.780377","220324.43629","221074.390997","224940.861412","225707.475539","226474.148985","227240.760189","228007.397693","228774.048054","229540.686727","215724.634645","228779.136671"
"Mixed","Female","tile","31","M_cling.wav","None","729.109027429","423","224174.344593","216491.297279","217257.869619","218024.597417","218791.177354","219557.780377","220324.43629","221074.390997","224940.861412","225707.475539","226474.148985","227240.760189","228007.397693","228774.048054","229540.686727","230307.562093","229545.733557"
"Mixed","Female","tile","31","F_greet.wav","space","0.0219160601555","423","224174.344593","231057.262281","217257.869619","218024.597417","218791.177354","219557.780377","220324.43629","221074.390997","224940.861412","225707.475539","226474.148985","227240.760189","228007.397693","228774.048054","229540.686727","230307.562093","230312.971561"
"Mixed","Female","tile","31","F_tile.wav","None","740.888471218","423","224174.344593","231057.262281","231823.868518","218024.597417","218791.177354","219557.780377","220324.43629","221074.390997","224940.861412","225707.475539","226474.148985","227240.760189","228007.397693","228774.048054","229540.686727","230307.562093","231062.543467"
"Mixed","Female","tile","31","M_jaw.wav","space","539.133316268","423","224174.344593","231057.262281","231823.868518","232590.52297","218791.177354","219557.780377","220324.43629","221074.390997","224940.861412","225707.475539","226474.148985","227240.760189","228007.397693","228774.048054","229540.686727","230307.562093","231829.028143"
"Mixed","Female","tile","31","M_knife.wav","None","740.122577983","423","224174.344593","231057.262281","231823.868518","232590.52297","233357.163103","219557.780377","220324.43629","221074.390997","224940.861412","225707.475539","226474.148985","227240.760189","228007.397693","228774.048054","229540.686727","230307.562093","232592.207"
"Mixed","Female","tile","31","F_tile.wav","None","738.331889796","423","224174.344593","231057.262281","231823.868518","232590.52297","233357.163103","234123.740703","220324.43629","221074.390997","224940.861412","225707.475539","226474.148985","227240.760189","228007.397693","228774.048054","229540.686727","230307.562093","233358.996455"
"Mixed","Female","tile","31","F_jolt.wav","space","663.307080816","423","224174.344593","231057.262281","231823.868518","232590.52297","233357.163103","234123.740703","234890.46704","221074.390997","224940.861412","225707.475539","226474.148985","227240.760189","228007.397693","228774.048054","229540.686727","230307.562093","234128.687888"
"Mixed","Female","tile","31","M_reek.wav","None","730.971600294","423","224174.344593","231057.262281","231823.868518","232590.52297","233357.163103","234123.740703","234890.46704","235657.001392","224940.861412","225707.475539","226474.148985","227240.760189","228007.397693","228774.048054","229540.686727","230307.562093","234895.383835"
"Mixed","Male","cave","14","M_lash.wav","None","729.597025026","423","238756.934241","231057.262281","231823.868518","232590.52297","233357.163103","234123.740703","234890.46704","235657.001392","224940.861412","225707.475539","226474.148985","227240.760189","228007.397693","228774.048054","229540.686727","230307.562093","235661.859452"
"Mixed","Male","cave","14","M_greet.wav","None","741.620175399","423","238756.934241","231057.262281","231823.868518","232590.52297","233357.163103","234123.740703","234890.46704","235657.001392","239523.503659","225707.475539","226474.148985","227240.760189","228007.397693","228774.048054","229540.686727","230307.562093","238761.997728"
"Mixed","Male","cave","14","M_cave.wav","None","739.617339753","423","238756.934241","231057.262281","231823.868518","232590.52297","233357.163103","234123.740703","234890.46704","235657.001392","239523.503659","240290.219476","226474.148985","227240.760189","228007.397693","228774.048054","229540.686727","230307.562093","239528.946147"
"Mixed","Male","cave","14","F_reek.wav","None","738.478581288","423","238756.934241","231057.262281","231823.868518","232590.52297","233357.163103","234123.740703","234890.46704","235657.001392","239523.503659","240290.219476","241056.779835","227240.760189","228007.397693","228774.048054","229540.686727","230307.562093","240295.189454"
"Mixed","Male","cave","14","M_cave.wav","space","137.548113056","423","238756.934241","231057.262281","231823.868518","232590.52297","233357.163103","234123.740703","234890.46704","235657.001392","239523.503659","240290.219476","241056.779835","241823.4188","228007.397693","228774.048054","229540.686727","230307.562093","241061.890953"
"Mixed","Male","cave","14","F_jaw.wav","space","626.834666415","423","238756.934241","231057.262281","231823.868518","232590.52297","233357.163103","234123.740703","234890.46704","235657.001392","239523.503659","240290.219476","241056.779835","241823.4188","242590.037602","228774.048054","229540.686727","230307.562093","241828.523781"
"Mixed","Male","cave","14","F_romp.wav","None","731.079427307","423","238756.934241","231057.262281","231823.868518","232590.52297","233357.163103","234123.740703","234890.46704","235657.001392","239523.503659","240290.219476","241056.779835","241823.4188","242590.037602","243356.663125","229540.686727","230307.562093","242595.28343"
"Mixed","Male","cave","14","M_cave.wav","None","730.016644517","423","238756.934241","231057.262281","231823.868518","232590.52297","233357.163103","234123.740703","234890.46704","235657.001392","239523.503659","240290.219476","241056.779835","241823.4188","242590.037602","243356.663125","244123.802653","230307.562093","243361.627551"
"Mixed","Male","cave","14","F_dime.wav","space","622.080634736","423","238756.934241","231057.262281","231823.868518","232590.52297","233357.163103","234123.740703","234890.46704","235657.001392","239523.503659","240290.219476","241056.779835","241823.4188","242590.037602","243356.663125","244123.802653","244873.312025","244129.031824"
"Mixed","Male","cave","14","F_bluff.wav","None","741.619590971","423","238756.934241","245639.891086","231823.868518","232590.52297","233357.163103","234123.740703","234890.46704","235657.001392","239523.503659","240290.219476","241056.779835","241823.4188","242590.037602","243356.663125","244123.802653","244873.312025","244878.454409"
"Mixed","Male","cave","14","F_jolt.wav","None","740.017965325","423","238756.934241","245639.891086","246406.564824","232590.52297","233357.163103","234123.740703","234890.46704","235657.001392","239523.503659","240290.219476","241056.779835","241823.4188","242590.037602","243356.663125","244123.802653","244873.312025","245645.091036"
"Mixed","Male","cave","14","F_bluff.wav","None","738.821056249","423","238756.934241","245639.891086","246406.564824","247173.244699","233357.163103","234123.740703","234890.46704","235657.001392","239523.503659","240290.219476","241056.779835","241823.4188","242590.037602","243356.663125","244123.802653","244873.312025","246411.59792"
"Mixed","Male","cave","14","M_jaw.wav","None","737.167416489","423","238756.934241","245639.891086","246406.564824","247173.244699","247939.778467","234123.740703","234890.46704","235657.001392","239523.503659","240290.219476","241056.779835","241823.4188","242590.037602","243356.663125","244123.802653","244873.312025","247178.351433"
"Mixed","Male","cave","14","M_cave.wav","None","739.148920502","423","238756.934241","245639.891086","246406.564824","247173.244699","247939.778467","248706.425321","234890.46704","235657.001392","239523.503659","240290.219476","241056.779835","241823.4188","242590.037602","243356.663125","244123.802653","244873.312025","247941.430645"
"Mixed","Male","cave","14","F_bluff.wav","space","607.360932373","423","238756.934241","245639.891086","246406.564824","247173.244699","247939.778467","248706.425321","249473.0938","235657.001392","239523.503659","240290.219476","241056.779835","241823.4188","242590.037602","243356.663125","244123.802653","244873.312025","248711.377766"
"Mixed","Male","cave","14","M_lash.wav","None","731.442941685","423","238756.934241","245639.891086","246406.564824","247173.244699","247939.778467","248706.425321","249473.0938","250239.658542","239523.503659","240290.219476","241056.779835","241823.4188","242590.037602","243356.663125","244123.802653","244873.312025","249478.174527"
"Mixed","Female","done","43","M_jolt.wav","None","730.458764495","423","253322.863885","245639.891086","246406.564824","247173.244699","247939.778467","248706.425321","249473.0938","250239.658542","239523.503659","240290.219476","241056.779835","241823.4188","242590.037602","243356.663125","244123.802653","244873.312025","250244.636994"
"Mixed","Female","done","43","M_jolt.wav","None","741.730924554","423","253322.863885","245639.891086","246406.564824","247173.244699","247939.778467","248706.425321","249473.0938","250239.658542","254089.537624","240290.219476","241056.779835","241823.4188","242590.037602","243356.663125","244123.802653","244873.312025","253327.833571"
"Mixed","Female","done","43","F_done.wav","None","739.85140327","423","253322.863885","245639.891086","246406.564824","247173.244699","247939.778467","248706.425321","249473.0938","250239.658542","254089.537624","254856.140062","241056.779835","241823.4188","242590.037602","243356.663125","244123.802653","244873.312025","254094.846862"
"Mixed","Female","done","43","M_cad.wav","None","738.774009775","423","253322.863885","245639.891086","246406.564824","247173.244699","247939.778467","248706.425321","249473.0938","250239.658542","254089.537624","254856.140062","255622.795098","241823.4188","242590.037602","243356.663125","244123.802653","244873.312025","254861.116761"
"Mixed","Female","done","43","F_park.wav","space","234.284431883","423","253322.863885","245639.891086","246406.564824","247173.244699","247939.778467","248706.425321","249473.0938","250239.658542","254089.537624","254856.140062","255622.795098","256389.431141","242590.037602","243356.663125","244123.802653","244873.312025","255628.024562"
"Mixed","Female","done","43","F_done.wav","None","734.108226763","423","253322.863885","245639.891086","246406.564824","247173.244699","247939.778467","248706.425321","249473.0938","250239.658542","254089.537624","254856.140062","255622.795098","256389.431141","257156.018968","243356.663125","244123.802653","244873.312025","256394.447873"
"Mixed","Female","done","43","F_cad.wav","space","517.091896668","423","253322.863885","245639.891086","246406.564824","247173.244699","247939.778467","248706.425321","249473.0938","250239.658542","254089.537624","254856.140062","255622.795098","256389.431141","257156.018968","257922.658517","244123.802653","244873.312025","257161.061123"
"Mixed","Female","done","43","M_greet.wav","None","729.932486847","423","253322.863885","245639.891086","246406.564824","247173.244699","247939.778467","248706.425321","249473.0938","250239.658542","254089.537624","254856.140062","255622.795098","256389.431141","257156.018968","257922.658517","258689.716809","244873.312025","257927.548136"
"Mixed","Female","done","43","M_cling.wav","None","727.143010764","423","253322.863885","245639.891086","246406.564824","247173.244699","247939.778467","248706.425321","249473.0938","250239.658542","254089.537624","254856.140062","255622.795098","256389.431141","257156.018968","257922.658517","258689.716809","259439.299528","258695.656938"
"Mixed","Female","done","43","M_gnash.wav","None","743.566905931","423","253322.863885","260205.913946","246406.564824","247173.244699","247939.778467","248706.425321","249473.0938","250239.658542","254089.537624","254856.140062","255622.795098","256389.431141","257156.018968","257922.658517","258689.716809","259439.299528","259444.401294"
"Mixed","Female","done","43","M_gnash.wav","None","742.023138683","423","253322.863885","260205.913946","260972.509956","247173.244699","247939.778467","248706.425321","249473.0938","250239.658542","254089.537624","254856.140062","255622.795098","256389.431141","257156.018968","257922.658517","258689.716809","259439.299528","260210.984738"
"Mixed","Female","done","43","F_reek.wav","None","740.631322784","423","253322.863885","260205.913946","260972.509956","261739.190123","247939.778467","248706.425321","249473.0938","250239.658542","254089.537624","254856.140062","255622.795098","256389.431141","257156.018968","257922.658517","258689.716809","259439.299528","260977.541591"
"Mixed","Female","done","43","F_done.wav","None","739.178726344","423","253322.863885","260205.913946","260972.509956","261739.190123","262505.766261","248706.425321","249473.0938","250239.658542","254089.537624","254856.140062","255622.795098","256389.431141","257156.018968","257922.658517","258689.716809","259439.299528","261744.220881"
"Mixed","Female","done","43","M_cling.wav","space","654.531013854","423","253322.863885","260205.913946","260972.509956","261739.190123","262505.766261","263272.392953","249473.0938","250239.658542","254089.537624","254856.140062","255622.795098","256389.431141","257156.018968","257922.658517","258689.716809","259439.299528","262511.187418"
"Mixed","Female","done","43","F_done.wav","None","735.280005423","423","253322.863885","260205.913946","260972.509956","261739.190123","262505.766261","263272.392953","264039.027243","250239.658542","254089.537624","254856.140062","255622.795098","256389.431141","257156.018968","257922.658517","258689.716809","259439.299528","263277.068964"
"Mixed","Female","done","43","F_cling.wav","space","641.688202848","423","253322.863885","260205.913946","260972.509956","261739.190123","262505.766261","263272.392953","264039.027243","264805.654811","254089.537624","254856.140062","255622.795098","256389.431141","257156.018968","257922.658517","258689.716809","259439.299528","264043.889393"
"Mixed","Male","cave","17","F_jaw.wav","None","730.219148909","423","267905.526587","260205.913946","260972.509956","261739.190123","262505.766261","263272.392953","264039.027243","264805.654811","254089.537624","254856.140062","255622.795098","256389.431141","257156.018968","257922.658517","258689.716809","259439.299528","264811.004083"
"Mixed","Male","cave","17","F_bluff.wav","None","741.713976135","423","267905.526587","260205.913946","260972.509956","261739.190123","262505.766261","263272.392953","264039.027243","264805.654811","268672.143052","254856.140062","255622.795098","256389.431141","257156.018968","257922.658517","258689.716809","259439.299528","267910.537183"
"Mixed","Male","cave","17","M_cave.wav","None","740.199430299","423","267905.526587","260205.913946","260972.509956","261739.190123","262505.766261","263272.392953","264039.027243","264805.654811","268672.143052","269438.731463","255622.795098","256389.431141","257156.018968","257922.658517","258689.716809","259439.299528","268677.155401"
"Mixed","Male","cave","17","F_jaw.wav","None","738.77371756","423","267905.526587","260205.913946","260972.509956","261739.190123","262505.766261","263272.392953","264039.027243","264805.654811","268672.143052","269438.731463","270205.428287","256389.431141","257156.018968","257922.658517","258689.716809","259439.299528","269443.93229"
"Mixed","Male","cave","17","F_lash.wav","space","42.6661850979","423","267905.526587","260205.913946","260972.509956","261739.190123","262505.766261","263272.392953","264039.027243","264805.654811","268672.143052","269438.731463","270205.428287","270972.021958","257156.018968","257922.658517","258689.716809","259439.299528","270210.471318"
"Mixed","Male","cave","17","F_bluff.wav","None","734.453623864","423","267905.526587","260205.913946","260972.509956","261739.190123","262505.766261","263272.392953","264039.027243","264805.654811","268672.143052","269438.731463","270205.428287","270972.021958","271738.633455","257922.658517","258689.716809","259439.299528","270977.031385"
"Mixed","Male","cave","17","M_cave.wav","None","732.778944686","423","267905.526587","260205.913946","260972.509956","261739.190123","262505.766261","263272.392953","264039.027243","264805.654811","268672.143052","269438.731463","270205.428287","270972.021958","271738.633455","272505.281478","258689.716809","259439.299528","271743.777008"
"Mixed","Male","cave","17","F_park.wav","space","526.371156361","423","267905.526587","260205.913946","260972.509956","261739.190123","262505.766261","263272.392953","264039.027243","264805.654811","268672.143052","269438.731463","270205.428287","270972.021958","271738.633455","272505.281478","273272.47039","259439.299528","272510.511234"
"Mixed","Male","cave","17","M_cave.wav","None","727.500973073","423","267905.526587","260205.913946","260972.509956","261739.190123","262505.766261","263272.392953","264039.027243","264805.654811","268672.143052","269438.731463","270205.428287","270972.021958","271738.633455","272505.281478","273272.47039","274021.865507","273278.08207"
"Mixed","Male","cave","17","M_reek.wav","None","743.96373272","423","267905.526587","274788.555025","260972.509956","261739.190123","262505.766261","263272.392953","264039.027243","264805.654811","268672.143052","269438.731463","270205.428287","270972.021958","271738.633455","272505.281478","273272.47039","274021.865507","274026.73584"
"Mixed","Male","cave","17","M_cling.wav","space","139.075516313","423","267905.526587","274788.555025","275555.196619","261739.190123","262505.766261","263272.392953","264039.027243","264805.654811","268672.143052","269438.731463","270205.428287","270972.021958","271738.633455","272505.281478","273272.47039","274021.865507","274793.696824"
"Mixed","Male","cave","17","M_bluff.wav","None","739.311391559","423","267905.526587","274788.555025","275555.196619","276321.805194","262505.766261","263272.392953","264039.027243","264805.654811","268672.143052","269438.731463","270205.428287","270972.021958","271738.633455","272505.281478","273272.47039","274021.865507","275560.324685"
"Mixed","Male","cave","17","M_jaw.wav","None","738.050195374","423","267905.526587","274788.555025","275555.196619","276321.805194","277088.408508","263272.392953","264039.027243","264805.654811","268672.143052","269438.731463","270205.428287","270972.021958","271738.633455","272505.281478","273272.47039","274021.865507","276326.766405"
"Mixed","Male","cave","17","F_romp.wav","None","736.364119845","423","267905.526587","274788.555025","275555.196619","276321.805194","277088.408508","277855.052441","264039.027243","264805.654811","268672.143052","269438.731463","270205.428287","270972.021958","271738.633455","272505.281478","273272.47039","274021.865507","277093.597939"
"Mixed","Male","cave","17","M_cave.wav","None","735.227114666","423","267905.526587","274788.555025","275555.196619","276321.805194","277088.408508","277855.052441","278621.662476","264805.654811","268672.143052","269438.731463","270205.428287","270972.021958","271738.633455","272505.281478","273272.47039","274021.865507","277860.016867"
"Mixed","Male","cave","17","F_priest.wav","space","645.261105014","423","267905.526587","274788.555025","275555.196619","276321.805194","277088.408508","277855.052441","278621.662476","279388.304071","268672.143052","269438.731463","270205.428287","270972.021958","271738.633455","272505.281478","273272.47039","274021.865507","278623.147216"
"Mixed","Male","ball","5","F_priest.wav","None","730.705101007","423","282471.48107","274788.555025","275555.196619","276321.805194","277088.408508","277855.052441","278621.662476","279388.304071","268672.143052","269438.731463","270205.428287","270972.021958","271738.633455","272505.281478","273272.47039","274021.865507","279393.663278"
"Mixed","Male","ball","5","M_cling.wav","None","741.628357394","423","282471.48107","274788.555025","275555.196619","276321.805194","277088.408508","277855.052441","278621.662476","279388.304071","283238.094612","269438.731463","270205.428287","270972.021958","271738.633455","272505.281478","273272.47039","274021.865507","282476.410138"
"Mixed","Male","ball","5","M_ball.wav","None","740.120532485","423","282471.48107","274788.555025","275555.196619","276321.805194","277088.408508","277855.052441","278621.662476","279388.304071","283238.094612","284004.744973","270205.428287","270972.021958","271738.633455","272505.281478","273272.47039","274021.865507","283243.215665"
"Mixed","Male","ball","5","M_lash.wav","space","626.216925743","423","282471.48107","274788.555025","275555.196619","276321.805194","277088.408508","277855.052441","278621.662476","279388.304071","283238.094612","284004.744973","284771.378386","270972.021958","271738.633455","272505.281478","273272.47039","274021.865507","284009.776608"
"Mixed","Male","ball","5","M_ball.wav","None","735.983657049","423","282471.48107","274788.555025","275555.196619","276321.805194","277088.408508","277855.052441","278621.662476","279388.304071","283238.094612","284004.744973","284771.378386","285537.962706","271738.633455","272505.281478","273272.47039","274021.865507","284776.290505"
"Mixed","Male","ball","5","F_jolt.wav","space","564.502762592","423","282471.48107","274788.555025","275555.196619","276321.805194","277088.408508","277855.052441","278621.662476","279388.304071","283238.094612","284004.744973","284771.378386","285537.962706","286304.649594","272505.281478","273272.47039","274021.865507","285543.376558"
"Mixed","Male","ball","5","M_bluff.wav","None","731.814930272","423","282471.48107","274788.555025","275555.196619","276321.805194","277088.408508","277855.052441","278621.662476","279388.304071","283238.094612","284004.744973","284771.378386","285537.962706","286304.649594","287071.316027","273272.47039","274021.865507","286309.607884"
"Mixed","Male","ball","5","F_jolt.wav","None","730.712114146","423","282471.48107","274788.555025","275555.196619","276321.805194","277088.408508","277855.052441","278621.662476","279388.304071","283238.094612","284004.744973","284771.378386","285537.962706","286304.649594","287071.316027","287837.873756","274021.865507","287076.110384"
"Mixed","Male","ball","5","M_ball.wav","None","729.245783642","423","282471.48107","274788.555025","275555.196619","276321.805194","277088.408508","277855.052441","278621.662476","279388.304071","283238.094612","284004.744973","284771.378386","285537.962706","286304.649594","287071.316027","287837.873756","288604.929711","287842.962373"
"Mixed","Male","ball","5","F_gnash.wav","space","681.505592394","423","282471.48107","289354.470935","275555.196619","276321.805194","277088.408508","277855.052441","278621.662476","279388.304071","283238.094612","284004.744973","284771.378386","285537.962706","286304.649594","287071.316027","287837.873756","288604.929711","288610.10044"
"Mixed","Male","ball","5","F_gnash.wav","None","741.807192441","423","282471.48107","289354.470935","290121.126556","276321.805194","277088.408508","277855.052441","278621.662476","279388.304071","283238.094612","284004.744973","284771.378386","285537.962706","286304.649594","287071.316027","287837.873756","288604.929711","289359.45377"
"Mixed","Male","ball","5","F_lash.wav","None","740.316608166","423","282471.48107","289354.470935","290121.126556","290887.784222","277088.408508","277855.052441","278621.662476","279388.304071","283238.094612","284004.744973","284771.378386","285537.962706","286304.649594","287071.316027","287837.873756","288604.929711","290126.245271"
"Mixed","Male","ball","5","F_gnash.wav","None","739.045184487","423","282471.48107","289354.470935","290121.126556","290887.784222","291654.374679","277855.052441","278621.662476","279388.304071","283238.094612","284004.744973","284771.378386","285537.962706","286304.649594","287071.316027","287837.873756","288604.929711","290892.852968"
"Mixed","Male","ball","5","M_ball.wav","None","737.947920429","423","282471.48107","289354.470935","290121.126556","290887.784222","291654.374679","292421.028255","278621.662476","279388.304071","283238.094612","284004.744973","284771.378386","285537.962706","286304.649594","287071.316027","287837.873756","288604.929711","291659.417711"
"Mixed","Male","ball","5","F_jaw.wav","space","729.266530845","423","282471.48107","289354.470935","290121.126556","290887.784222","291654.374679","292421.028255","293187.677155","279388.304071","283238.094612","284004.744973","284771.378386","285537.962706","286304.649594","287071.316027","287837.873756","288604.929711","292426.054338"
"Mixed","Male","ball","5","M_gnash.wav","None","733.939326996","423","282471.48107","289354.470935","290121.126556","290887.784222","291654.374679","292421.028255","293187.677155","293954.291281","283238.094612","284004.744973","284771.378386","285537.962706","286304.649594","287071.316027","287837.873756","288604.929711","293192.652685"
"Mixed","Male","cave","13","F_jolt.wav","None","732.46510671","423","297054.128577","289354.470935","290121.126556","290887.784222","291654.374679","292421.028255","293187.677155","293954.291281","283238.094612","284004.744973","284771.378386","285537.962706","286304.649594","287071.316027","287837.873756","288604.929711","293959.468439"
"Mixed","Male","cave","13","M_cave.wav","None","741.454782201","423","297054.128577","289354.470935","290121.126556","290887.784222","291654.374679","292421.028255","293187.677155","293954.291281","297820.76082","284004.744973","284771.378386","285537.962706","286304.649594","287071.316027","287837.873756","288604.929711","297059.415022"
"Mixed","Male","cave","13","M_lash.wav","space","609.102528587","423","297054.128577","289354.470935","290121.126556","290887.784222","291654.374679","292421.028255","293187.677155","293954.291281","297820.76082","298587.399201","284771.378386","285537.962706","286304.649594","287071.316027","287837.873756","288604.929711","297825.797423"
"Mixed","Male","cave","13","M_cad.wav","None","737.610413109","423","297054.128577","289354.470935","290121.126556","290887.784222","291654.374679","292421.028255","293187.677155","293954.291281","297820.76082","298587.399201","299354.025308","285537.962706","286304.649594","287071.316027","287837.873756","288604.929711","298592.258722"
"Mixed","Male","cave","13","M_cave.wav","None","739.447271128","423","297054.128577","289354.470935","290121.126556","290887.784222","291654.374679","292421.028255","293187.677155","293954.291281","297820.76082","298587.399201","299354.025308","300120.647909","286304.649594","287071.316027","287837.873756","288604.929711","299355.71752"
"Mixed","Male","cave","13","F_jolt.wav","space","612.993944154","423","297054.128577","289354.470935","290121.126556","290887.784222","291654.374679","292421.028255","293187.677155","293954.291281","297820.76082","298587.399201","299354.025308","300120.647909","300887.25999","287071.316027","287837.873756","288604.929711","300125.683051"
"Mixed","Male","cave","13","M_park.wav","None","732.214679201","423","297054.128577","289354.470935","290121.126556","290887.784222","291654.374679","292421.028255","293187.677155","293954.291281","297820.76082","298587.399201","299354.025308","300120.647909","300887.25999","301653.917949","287837.873756","288604.929711","300892.12594"
