"Condition","Talker","Target","Trial","current_stimulus","response_response","response_time_response","subject_nr","time_Audio1","time_Audio10","time_Audio11","time_Audio12","time_Audio13","time_Audio14","time_Audio15","time_Audio16","time_Audio2","time_Audio3","time_Audio4","time_Audio5","time_Audio6","time_Audio7","time_Audio8","time_Audio9","time_response","title"
"Blocked","Female","done","22","F_greet.wav","NA","NA","334","38150.5936277","NA","NA","NA","NA","NA","NA","NA","NA","NA","NA","NA","NA","NA","NA","NA","NA","Mapping"
"Blocked","Female","done","22","F_done.wav","None","715.153166093","334","38150.5936277","NA","NA","NA","NA","NA","NA","NA","38900.3735739","NA","NA","NA","NA","NA","NA","NA","38166.1691554","Mapping"
"Blocked","Female","done","22","F_cling.wav","space","701.795646921","334","38150.5936277","NA","NA","NA","NA","NA","NA","NA","38900.3735739","39666.7521014","NA","NA","NA","NA","NA","NA","38910.3830564","Mapping"
"Blocked","Female","done","22","F_lash.wav","None","732.718222775","334","38150.5936277","NA","NA","NA","NA","NA","NA","NA","38900.3735739","39666.7521014","40433.4701011","NA","NA","NA","NA","NA","39676.5785534","Mapping"
"Blocked","Female","done","22","F_dime.wav","None","729.004743975","334","38150.5936277","NA","NA","NA","NA","NA","NA","NA","38900.3735739","39666.7521014","40433.4701011","41200.103078","NA","NA","NA","NA","40444.3270271","Mapping"
"Blocked","Female","done","22","F_cad.wav","None","726.09975189","334","38150.5936277","NA","NA","NA","NA","NA","NA","NA","38900.3735739","39666.7521014","40433.4701011","41200.103078","41966.8962071","NA","NA","NA","41211.2042513","Mapping"
"Blocked","Female","done","22","F_done.wav","None","724.531625863","334","38150.5936277","NA","NA","NA","NA","NA","NA","NA","38900.3735739","39666.7521014","40433.4701011","41200.103078","41966.8962071","42734.0334454","NA","NA","41976.8512747","Mapping"
"Blocked","Female","done","22","F_jolt.wav","space","476.052835118","334","38150.5936277","NA","NA","NA","NA","NA","NA","NA","38900.3735739","39666.7521014","40433.4701011","41200.103078","41966.8962071","42734.0334454","43483.4816488","NA","42744.0494206","Mapping"
"Blocked","Female","done","22","F_lash.wav","None","736.404494848","334","38150.5936277","NA","NA","NA","NA","NA","NA","NA","38900.3735739","39666.7521014","40433.4701011","41200.103078","41966.8962071","42734.0334454","43483.4816488","44250.3693844","43493.0344825","Mapping"
"Blocked","Female","done","22","F_done.wav","None","732.907745987","334","38150.5936277","45016.8524128","NA","NA","NA","NA","NA","NA","38900.3735739","39666.7521014","40433.4701011","41200.103078","41966.8962071","42734.0334454","43483.4816488","44250.3693844","44260.6126019","Mapping"
"Blocked","Female","done","22","F_romp.wav","space","537.428043783","334","38150.5936277","45016.8524128","45783.703357","NA","NA","NA","NA","NA","38900.3735739","39666.7521014","40433.4701011","41200.103078","41966.8962071","42734.0334454","43483.4816488","44250.3693844","45026.6726809","Mapping"
"Blocked","Female","done","22","F_lash.wav","None","727.683028206","334","38150.5936277","45016.8524128","45783.703357","46550.5960393","NA","NA","NA","NA","38900.3735739","39666.7521014","40433.4701011","41200.103078","41966.8962071","42734.0334454","43483.4816488","44250.3693844","45793.8516578","Mapping"
"Blocked","Female","done","22","F_done.wav","None","725.380306132","334","38150.5936277","45016.8524128","45783.703357","46550.5960393","47317.32486","NA","NA","NA","38900.3735739","39666.7521014","40433.4701011","41200.103078","41966.8962071","42734.0334454","43483.4816488","44250.3693844","46560.2539917","Mapping"
"Blocked","Female","done","22","F_romp.wav","space","540.643136017","334","38150.5936277","45016.8524128","45783.703357","46550.5960393","47317.32486","48084.3390478","NA","NA","38900.3735739","39666.7521014","40433.4701011","41200.103078","41966.8962071","42734.0334454","43483.4816488","44250.3693844","47327.4051431","Mapping"
"Blocked","Female","done","22","F_cad.wav","None","719.330714084","334","38150.5936277","45016.8524128","45783.703357","46550.5960393","47317.32486","48084.3390478","48833.8388829","NA","38900.3735739","39666.7521014","40433.4701011","41200.103078","41966.8962071","42734.0334454","43483.4816488","44250.3693844","48094.3522402","Mapping"
"Blocked","Female","done","22","F_cad.wav","None","733.897100203","334","38150.5936277","45016.8524128","45783.703357","46550.5960393","47317.32486","48084.3390478","48833.8388829","49600.377562","38900.3735739","39666.7521014","40433.4701011","41200.103078","41966.8962071","42734.0334454","43483.4816488","44250.3693844","48843.7988977","Mapping"
"Blocked","Female","done","19","F_jolt.wav","None","732.394518796","334","52750.7621893","45016.8524128","45783.703357","46550.5960393","47317.32486","48084.3390478","48833.8388829","49600.377562","38900.3735739","39666.7521014","40433.4701011","41200.103078","41966.8962071","42734.0334454","43483.4816488","44250.3693844","49609.5006447","Mapping"
"Blocked","Female","done","19","F_done.wav","None","720.085715409","334","52750.7621893","45016.8524128","45783.703357","46550.5960393","47317.32486","48084.3390478","48833.8388829","49600.377562","53500.8445065","39666.7521014","40433.4701011","41200.103078","41966.8962071","42734.0334454","43483.4816488","44250.3693844","52760.9729432","Mapping"
"Blocked","Female","done","19","F_jaw.wav","space","621.864790563","334","52750.7621893","45016.8524128","45783.703357","46550.5960393","47317.32486","48084.3390478","48833.8388829","49600.377562","53500.8445065","54266.8696488","40433.4701011","41200.103078","41966.8962071","42734.0334454","43483.4816488","44250.3693844","53510.0594135","Mapping"
"Blocked","Female","done","19","F_bluff.wav","None","733.209808357","334","52750.7621893","45016.8524128","45783.703357","46550.5960393","47317.32486","48084.3390478","48833.8388829","49600.377562","53500.8445065","54266.8696488","55034.2492792","41200.103078","41966.8962071","42734.0334454","43483.4816488","44250.3693844","54276.8503781","Mapping"
"Blocked","Female","done","19","F_done.wav","None","730.966447853","334","52750.7621893","45016.8524128","45783.703357","46550.5960393","47317.32486","48084.3390478","48833.8388829","49600.377562","53500.8445065","54266.8696488","55034.2492792","55800.1541537","41966.8962071","42734.0334454","43483.4816488","44250.3693844","55043.6620573","Mapping"
"Blocked","Female","done","19","F_priest.wav","space","578.117400873","334","52750.7621893","45016.8524128","45783.703357","46550.5960393","47317.32486","48084.3390478","48833.8388829","49600.377562","53500.8445065","54266.8696488","55034.2492792","55800.1541537","56566.8124827","42734.0334454","43483.4816488","44250.3693844","55809.7712952","Mapping"
"Blocked","Female","done","19","F_jolt.wav","None","727.101163939","334","52750.7621893","45016.8524128","45783.703357","46550.5960393","47317.32486","48084.3390478","48833.8388829","49600.377562","53500.8445065","54266.8696488","55034.2492792","55800.1541537","56566.8124827","57333.4803968","43483.4816488","44250.3693844","56575.9457685","Mapping"
"Blocked","Female","done","19","F_romp.wav","None","727.178766858","334","52750.7621893","45016.8524128","45783.703357","46550.5960393","47317.32486","48084.3390478","48833.8388829","49600.377562","53500.8445065","54266.8696488","55034.2492792","55800.1541537","56566.8124827","57333.4803968","58100.6766874","44250.3693844","57341.3547287","Mapping"
"Blocked","Female","done","19","F_romp.wav","None","722.177272197","334","52750.7621893","45016.8524128","45783.703357","46550.5960393","47317.32486","48084.3390478","48833.8388829","49600.377562","53500.8445065","54266.8696488","55034.2492792","55800.1541537","56566.8124827","57333.4803968","58100.6766874","58867.2858579","58110.5458047","Mapping"
"Blocked","Female","done","19","F_reek.wav","None","719.190349337","334","52750.7621893","59616.7971324","45783.703357","46550.5960393","47317.32486","48084.3390478","48833.8388829","49600.377562","53500.8445065","54266.8696488","55034.2492792","55800.1541537","56566.8124827","57333.4803968","58100.6766874","58867.2858579","58877.5080517","Mapping"
"Blocked","Female","done","19","F_bluff.wav","None","734.795557335","334","52750.7621893","59616.7971324","60383.7569058","46550.5960393","47317.32486","48084.3390478","48833.8388829","49600.377562","53500.8445065","54266.8696488","55034.2492792","55800.1541537","56566.8124827","57333.4803968","58100.6766874","58867.2858579","59626.1728099","Mapping"
"Blocked","Female","done","19","F_done.wav","None","732.102040667","334","52750.7621893","59616.7971324","60383.7569058","61150.2921842","47317.32486","48084.3390478","48833.8388829","49600.377562","53500.8445065","54266.8696488","55034.2492792","55800.1541537","56566.8124827","57333.4803968","58100.6766874","58867.2858579","60393.3681729","Mapping"
"Blocked","Female","done","19","F_dime.wav","space","563.819995616","334","52750.7621893","59616.7971324","60383.7569058","61150.2921842","61916.8988816","48084.3390478","48833.8388829","49600.377562","53500.8445065","54266.8696488","55034.2492792","55800.1541537","56566.8124827","57333.4803968","58100.6766874","58867.2858579","61159.9872373","Mapping"
"Blocked","Female","done","19","F_jolt.wav","None","727.131153923","334","52750.7621893","59616.7971324","60383.7569058","61150.2921842","61916.8988816","62683.5983307","48833.8388829","49600.377562","53500.8445065","54266.8696488","55034.2492792","55800.1541537","56566.8124827","57333.4803968","58100.6766874","58867.2858579","61926.7584146","Mapping"
"Blocked","Female","done","19","F_done.wav","None","725.189855322","334","52750.7621893","59616.7971324","60383.7569058","61150.2921842","61916.8988816","62683.5983307","63450.6474547","49600.377562","53500.8445065","54266.8696488","55034.2492792","55800.1541537","56566.8124827","57333.4803968","58100.6766874","58867.2858579","62692.9854476","Mapping"
"Blocked","Female","done","19","F_greet.wav","None","721.562944818","334","52750.7621893","59616.7971324","60383.7569058","61150.2921842","61916.8988816","62683.5983307","63450.6474547","64217.2804321","53500.8445065","54266.8696488","55034.2492792","55800.1541537","56566.8124827","57333.4803968","58100.6766874","58867.2858579","63460.8028671","Mapping"
"Blocked","Female","ball","6","F_park.wav","space","0.0336999073625","334","67333.9045821","59616.7971324","60383.7569058","61150.2921842","61916.8988816","62683.5983307","63450.6474547","64217.2804321","53500.8445065","54266.8696488","55034.2492792","55800.1541537","56566.8124827","57333.4803968","58100.6766874","58867.2858579","64227.0877152","Mapping"
"Blocked","Female","ball","6","F_jolt.wav","None","719.354211818","334","67333.9045821","59616.7971324","60383.7569058","61150.2921842","61916.8988816","62683.5983307","63450.6474547","64217.2804321","68099.9071551","54266.8696488","55034.2492792","55800.1541537","56566.8124827","57333.4803968","58100.6766874","58867.2858579","67344.327738","Mapping"
"Blocked","Female","ball","6","F_lash.wav","None","721.861296799","334","67333.9045821","59616.7971324","60383.7569058","61150.2921842","61916.8988816","62683.5983307","63450.6474547","64217.2804321","68099.9071551","68850.1718845","55034.2492792","55800.1541537","56566.8124827","57333.4803968","58100.6766874","58867.2858579","68108.9748959","Mapping"
"Blocked","Female","ball","6","F_ball.wav","None","734.9170628","334","67333.9045821","59616.7971324","60383.7569058","61150.2921842","61916.8988816","62683.5983307","63450.6474547","64217.2804321","68099.9071551","68850.1718845","69616.6536761","55800.1541537","56566.8124827","57333.4803968","58100.6766874","58867.2858579","68860.1387013","Mapping"
"Blocked","Female","ball","6","F_dime.wav","space","505.092855543","334","67333.9045821","59616.7971324","60383.7569058","61150.2921842","61916.8988816","62683.5983307","63450.6474547","64217.2804321","68099.9071551","68850.1718845","69616.6536761","70383.5327551","56566.8124827","57333.4803968","58100.6766874","58867.2858579","69626.5620589","Mapping"
"Blocked","Female","ball","6","F_jaw.wav","None","730.543189682","334","67333.9045821","59616.7971324","60383.7569058","61150.2921842","61916.8988816","62683.5983307","63450.6474547","64217.2804321","68099.9071551","68850.1718845","69616.6536761","70383.5327551","71150.0964775","57333.4803968","58100.6766874","58867.2858579","70392.8005309","Mapping"
"Blocked","Female","ball","6","F_jolt.wav","None","728.122672532","334","67333.9045821","59616.7971324","60383.7569058","61150.2921842","61916.8988816","62683.5983307","63450.6474547","64217.2804321","68099.9071551","68850.1718845","69616.6536761","70383.5327551","71150.0964775","71916.6376302","58100.6766874","58867.2858579","71159.8280128","Mapping"
"Blocked","Female","ball","6","F_depth.wav","None","725.848085247","334","67333.9045821","59616.7971324","60383.7569058","61150.2921842","61916.8988816","62683.5983307","63450.6474547","64217.2804321","68099.9071551","68850.1718845","69616.6536761","70383.5327551","71150.0964775","71916.6376302","72683.7012852","58867.2858579","71926.3203163","Mapping"
"Blocked","Female","ball","6","F_greet.wav","None","722.811077256","334","67333.9045821","59616.7971324","60383.7569058","61150.2921842","61916.8988816","62683.5983307","63450.6474547","64217.2804321","68099.9071551","68850.1718845","69616.6536761","70383.5327551","71150.0964775","71916.6376302","72683.7012852","73450.4594775","72693.7141684","Mapping"
"Blocked","Female","ball","6","F_ball.wav","None","720.212167129","334","67333.9045821","74199.7537124","60383.7569058","61150.2921842","61916.8988816","62683.5983307","63450.6474547","64217.2804321","68099.9071551","68850.1718845","69616.6536761","70383.5327551","71150.0964775","71916.6376302","72683.7012852","73450.4594775","73460.4439167","Mapping"
"Blocked","Female","ball","6","F_cling.wav","space","425.958119798","334","67333.9045821","74199.7537124","74966.6281538","61150.2921842","61916.8988816","62683.5983307","63450.6474547","64217.2804321","68099.9071551","68850.1718845","69616.6536761","70383.5327551","71150.0964775","71916.6376302","72683.7012852","73450.4594775","74209.6082992","Mapping"
"Blocked","Female","ball","6","F_lash.wav","None","732.548177708","334","67333.9045821","74199.7537124","74966.6281538","75733.4209736","61916.8988816","62683.5983307","63450.6474547","64217.2804321","68099.9071551","68850.1718845","69616.6536761","70383.5327551","71150.0964775","71916.6376302","72683.7012852","73450.4594775","74976.4604801","Mapping"
"Blocked","Female","ball","6","F_ball.wav","None","730.421065819","334","67333.9045821","74199.7537124","74966.6281538","75733.4209736","76500.0214875","62683.5983307","63450.6474547","64217.2804321","68099.9071551","68850.1718845","69616.6536761","70383.5327551","71150.0964775","71916.6376302","72683.7012852","73450.4594775","75743.0288401","Mapping"
"Blocked","Female","ball","6","F_reek.wav","space","557.930555195","334","67333.9045821","74199.7537124","74966.6281538","75733.4209736","76500.0214875","77266.4334057","63450.6474547","64217.2804321","68099.9071551","68850.1718845","69616.6536761","70383.5327551","71150.0964775","71916.6376302","72683.7012852","73450.4594775","76509.5839053","Mapping"
"Blocked","Female","ball","6","F_ball.wav","None","726.060796529","334","67333.9045821","74199.7537124","74966.6281538","75733.4209736","76500.0214875","77266.4334057","78033.7610948","64217.2804321","68099.9071551","68850.1718845","69616.6536761","70383.5327551","71150.0964775","71916.6376302","72683.7012852","73450.4594775","77275.6603705","Mapping"
"Blocked","Female","ball","6","F_park.wav","space","599.696144927","334","67333.9045821","74199.7537124","74966.6281538","75733.4209736","76500.0214875","77266.4334057","78033.7610948","78800.2880258","68099.9071551","68850.1718845","69616.6536761","70383.5327551","71150.0964775","71916.6376302","72683.7012852","73450.4594775","78043.8014944","Mapping"
"Blocked","Female","ball","4","F_jolt.wav","None","719.423465896","334","81916.8008734","74199.7537124","74966.6281538","75733.4209736","76500.0214875","77266.4334057","78033.7610948","78800.2880258","68099.9071551","68850.1718845","69616.6536761","70383.5327551","71150.0964775","71916.6376302","72683.7012852","73450.4594775","78810.518567","Mapping"
"Blocked","Female","ball","4","F_jaw.wav","None","720.050160307","334","81916.8008734","74199.7537124","74966.6281538","75733.4209736","76500.0214875","77266.4334057","78033.7610948","78800.2880258","82666.1989903","68850.1718845","69616.6536761","70383.5327551","71150.0964775","71916.6376302","72683.7012852","73450.4594775","81927.2812265","Mapping"
"Blocked","Female","ball","4","F_greet.wav","None","735.149251763","334","81916.8008734","74199.7537124","74966.6281538","75733.4209736","76500.0214875","77266.4334057","78033.7610948","78800.2880258","82666.1989903","83433.3108771","69616.6536761","70383.5327551","71150.0964775","71916.6376302","72683.7012852","73450.4594775","82676.511772","Mapping"
"Blocked","Female","ball","4","F_cling.wav","None","733.228049707","334","81916.8008734","74199.7537124","74966.6281538","75733.4209736","76500.0214875","77266.4334057","78033.7610948","78800.2880258","82666.1989903","83433.3108771","84199.8946955","70383.5327551","71150.0964775","71916.6376302","72683.7012852","73450.4594775","83442.7545723","Mapping"
"Blocked","Female","ball","4","F_jaw.wav","None","730.775996577","334","81916.8008734","74199.7537124","74966.6281538","75733.4209736","76500.0214875","77266.4334057","78033.7610948","78800.2880258","82666.1989903","83433.3108771","84199.8946955","84966.3950372","71150.0964775","71916.6376302","72683.7012852","73450.4594775","84209.597169","Mapping"
"Blocked","Female","ball","4","F_dime.wav","None","728.467091452","334","81916.8008734","74199.7537124","74966.6281538","75733.4209736","76500.0214875","77266.4334057","78033.7610948","78800.2880258","82666.1989903","83433.3108771","84199.8946955","84966.3950372","85733.2617491","71916.6376302","72683.7012852","73450.4594775","84976.261063","Mapping"
"Blocked","Female","ball","4","F_park.wav","None","726.488073822","334","81916.8008734","74199.7537124","74966.6281538","75733.4209736","76500.0214875","77266.4334057","78033.7610948","78800.2880258","82666.1989903","83433.3108771","84199.8946955","84966.3950372","85733.2617491","86499.7985736","72683.7012852","73450.4594775","85742.5632249","Mapping"
"Blocked","Female","ball","4","F_ball.wav","None","723.887927365","334","81916.8008734","74199.7537124","74966.6281538","75733.4209736","76500.0214875","77266.4334057","78033.7610948","78800.2880258","82666.1989903","83433.3108771","84199.8946955","84966.3950372","85733.2617491","86499.7985736","87266.723101","73450.4594775","86509.5474226","Mapping"
"Blocked","Female","ball","4","F_greet.wav","space","558.75264667","334","81916.8008734","74199.7537124","74966.6281538","75733.4209736","76500.0214875","77266.4334057","78033.7610948","78800.2880258","82666.1989903","83433.3108771","84199.8946955","84966.3950372","85733.2617491","86499.7985736","87266.723101","88016.7976888","87276.5761418","Mapping"
"Blocked","Female","ball","4","F_ball.wav","None","735.122662969","334","81916.8008734","88782.864261","74966.6281538","75733.4209736","76500.0214875","77266.4334057","78033.7610948","78800.2880258","82666.1989903","83433.3108771","84199.8946955","84966.3950372","85733.2617491","86499.7985736","87266.723101","88016.7976888","88026.9506276","Mapping"
"Blocked","Female","ball","4","F_dime.wav","space","642.96617033","334","81916.8008734","88782.864261","89549.7683827","75733.4209736","76500.0214875","77266.4334057","78033.7610948","78800.2880258","82666.1989903","83433.3108771","84199.8946955","84966.3950372","85733.2617491","86499.7985736","87266.723101","88016.7976888","88792.3815395","Mapping"
"Blocked","Female","ball","4","F_ball.wav","None","731.111758854","334","81916.8008734","88782.864261","89549.7683827","90316.2878933","76500.0214875","77266.4334057","78033.7610948","78800.2880258","82666.1989903","83433.3108771","84199.8946955","84966.3950372","85733.2617491","86499.7985736","87266.723101","88016.7976888","89559.3035934","Mapping"
"Blocked","Female","ball","4","F_cad.wav","space","549.598646816","334","81916.8008734","88782.864261","89549.7683827","90316.2878933","91083.2037637","77266.4334057","78033.7610948","78800.2880258","82666.1989903","83433.3108771","84199.8946955","84966.3950372","85733.2617491","86499.7985736","87266.723101","88016.7976888","90325.6910872","Mapping"
"Blocked","Female","ball","4","F_ball.wav","None","726.276599336","334","81916.8008734","88782.864261","89549.7683827","90316.2878933","91083.2037637","91850.1217985","78033.7610948","78800.2880258","82666.1989903","83433.3108771","84199.8946955","84966.3950372","85733.2617491","86499.7985736","87266.723101","88016.7976888","91092.668483","Mapping"
"Blocked","Female","ball","4","F_romp.wav","space","502.651623916","334","81916.8008734","88782.864261","89549.7683827","90316.2878933","91083.2037637","91850.1217985","92616.5930782","78800.2880258","82666.1989903","83433.3108771","84199.8946955","84966.3950372","85733.2617491","86499.7985736","87266.723101","88016.7976888","91860.5910214","Mapping"
"Blocked","Female","ball","4","F_reek.wav","None","720.42178642","334","81916.8008734","88782.864261","89549.7683827","90316.2878933","91083.2037637","91850.1217985","92616.5930782","93383.6143767","82666.1989903","83433.3108771","84199.8946955","84966.3950372","85733.2617491","86499.7985736","87266.723101","88016.7976888","92627.0357124","Mapping"
"Blocked","Female","done","24","F_priest.wav","None","718.324974179","334","96500.1541227","88782.864261","89549.7683827","90316.2878933","91083.2037637","91850.1217985","92616.5930782","93383.6143767","82666.1989903","83433.3108771","84199.8946955","84966.3950372","85733.2617491","86499.7985736","87266.723101","88016.7976888","93393.7048623","Mapping"
"Blocked","Female","done","24","F_jolt.wav","None","720.230717678","334","96500.1541227","88782.864261","89549.7683827","90316.2878933","91083.2037637","91850.1217985","92616.5930782","93383.6143767","97249.6653972","83433.3108771","84199.8946955","84966.3950372","85733.2617491","86499.7985736","87266.723101","88016.7976888","96510.0037623","Mapping"
"Blocked","Female","done","24","F_done.wav","None","735.431526788","334","96500.1541227","88782.864261","89549.7683827","90316.2878933","91083.2037637","91850.1217985","92616.5930782","93383.6143767","97249.6653972","98016.2164434","84199.8946955","84966.3950372","85733.2617491","86499.7985736","87266.723101","88016.7976888","97259.3347891","Mapping"
"Blocked","Female","done","24","F_romp.wav","space","529.592667241","334","96500.1541227","88782.864261","89549.7683827","90316.2878933","91083.2037637","91850.1217985","92616.5930782","93383.6143767","97249.6653972","98016.2164434","98783.0556389","84966.3950372","85733.2617491","86499.7985736","87266.723101","88016.7976888","98025.5222474","Mapping"
"Blocked","Female","done","24","F_done.wav","None","730.808150489","334","96500.1541227","88782.864261","89549.7683827","90316.2878933","91083.2037637","91850.1217985","92616.5930782","93383.6143767","97249.6653972","98016.2164434","98783.0556389","99549.6549164","85733.2617491","86499.7985736","87266.723101","88016.7976888","98792.4548136","Mapping"
"Blocked","Female","done","24","F_romp.wav","space","563.658916391","334","96500.1541227","88782.864261","89549.7683827","90316.2878933","91083.2037637","91850.1217985","92616.5930782","93383.6143767","97249.6653972","98016.2164434","98783.0556389","99549.6549164","100316.242445","86499.7985736","87266.723101","88016.7976888","99559.4591075","Mapping"
"Blocked","Female","done","24","F_done.wav","None","725.969590247","334","96500.1541227","88782.864261","89549.7683827","90316.2878933","91083.2037637","91850.1217985","92616.5930782","93383.6143767","97249.6653972","98016.2164434","98783.0556389","99549.6549164","100316.242445","101083.059998","87266.723101","88016.7976888","100325.893286","Mapping"
"Blocked","Female","done","24","F_depth.wav","space","430.199357681","334","96500.1541227","88782.864261","89549.7683827","90316.2878933","91083.2037637","91850.1217985","92616.5930782","93383.6143767","97249.6653972","98016.2164434","98783.0556389","99549.6549164","100316.242445","101083.059998","101850.060273","88016.7976888","101092.926024","Mapping"
"Blocked","Female","done","24","F_knife.wav","None","720.205674414","334","96500.1541227","88782.864261","89549.7683827","90316.2878933","91083.2037637","91850.1217985","92616.5930782","93383.6143767","97249.6653972","98016.2164434","98783.0556389","99549.6549164","100316.242445","101083.059998","101850.060273","102616.444984","101860.160034","Mapping"
"Blocked","Female","done","24","F_bluff.wav","None","718.812539708","334","96500.1541227","103366.111463","89549.7683827","90316.2878933","91083.2037637","91850.1217985","92616.5930782","93383.6143767","97249.6653972","98016.2164434","98783.0556389","99549.6549164","100316.242445","101083.059998","101850.060273","102616.444984","102626.422313","Mapping"
"Blocked","Female","done","24","F_gnash.wav","None","733.996653929","334","96500.1541227","103366.111463","104133.041556","90316.2878933","91083.2037637","91850.1217985","92616.5930782","93383.6143767","97249.6653972","98016.2164434","98783.0556389","99549.6549164","100316.242445","101083.059998","101850.060273","102616.444984","103375.817647","Mapping"
"Blocked","Female","done","24","F_dime.wav","None","731.819456443","334","96500.1541227","103366.111463","104133.041556","104899.504488","91083.2037637","91850.1217985","92616.5930782","93383.6143767","97249.6653972","98016.2164434","98783.0556389","99549.6549164","100316.242445","101083.059998","101850.060273","102616.444984","104142.480923","Mapping"
"Blocked","Female","done","24","F_done.wav","None","729.353491217","334","96500.1541227","103366.111463","104133.041556","104899.504488","105666.014105","91850.1217985","92616.5930782","93383.6143767","97249.6653972","98016.2164434","98783.0556389","99549.6549164","100316.242445","101083.059998","101850.060273","102616.444984","104909.39061","Mapping"
"Blocked","Female","done","24","F_lash.wav","space","551.458014641","334","96500.1541227","103366.111463","104133.041556","104899.504488","105666.014105","106432.86103","92616.5930782","93383.6143767","97249.6653972","98016.2164434","98783.0556389","99549.6549164","100316.242445","101083.059998","101850.060273","102616.444984","105675.606203","Mapping"
"Blocked","Female","done","24","F_romp.wav","None","724.787621293","334","96500.1541227","103366.111463","104133.041556","104899.504488","105666.014105","106432.86103","107199.240176","93383.6143767","97249.6653972","98016.2164434","98783.0556389","99549.6549164","100316.242445","101083.059998","101850.060273","102616.444984","106442.320184","Mapping"
"Blocked","Female","done","24","F_park.wav","None","722.56837599","334","96500.1541227","103366.111463","104133.041556","104899.504488","105666.014105","106432.86103","107199.240176","107965.982291","97249.6653972","98016.2164434","98783.0556389","99549.6549164","100316.242445","101083.059998","101850.060273","102616.444984","107209.11826","Mapping"
"Blocked","Female","cave","12","F_jolt.wav","None","720.328107011","334","111083.168827","103366.111463","104133.041556","104899.504488","105666.014105","106432.86103","107199.240176","107965.982291","97249.6653972","98016.2164434","98783.0556389","99549.6549164","100316.242445","101083.059998","101850.060273","102616.444984","107975.886964","Mapping"
"Blocked","Female","cave","12","F_dime.wav","None","720.981699415","334","111083.168827","103366.111463","104133.041556","104899.504488","105666.014105","106432.86103","107199.240176","107965.982291","111849.65773","98016.2164434","98783.0556389","99549.6549164","100316.242445","101083.059998","101850.060273","102616.444984","111092.872846","Mapping"
"Blocked","Female","cave","12","F_cave.wav","None","718.73648325","334","111083.168827","103366.111463","104133.041556","104899.504488","105666.014105","106432.86103","107199.240176","107965.982291","111849.65773","112599.360691","98783.0556389","99549.6549164","100316.242445","101083.059998","101850.060273","102616.444984","111859.674941","Mapping"
"Blocked","Female","cave","12","F_romp.wav","space","657.864918001","334","111083.168827","103366.111463","104133.041556","104899.504488","105666.014105","106432.86103","107199.240176","107965.982291","111849.65773","112599.360691","113365.895042","99549.6549164","100316.242445","101083.059998","101850.060273","102616.444984","112609.020808","Mapping"
"Blocked","Female","cave","12","F_gnash.wav","None","731.141748838","334","111083.168827","103366.111463","104133.041556","104899.504488","105666.014105","106432.86103","107199.240176","107965.982291","111849.65773","112599.360691","113365.895042","114132.787107","100316.242445","101083.059998","101850.060273","102616.444984","113375.757667","Mapping"
"Blocked","Female","cave","12","F_cave.wav","None","729.23600534","334","111083.168827","103366.111463","104133.041556","104899.504488","105666.014105","106432.86103","107199.240176","107965.982291","111849.65773","112599.360691","113365.895042","114132.787107","114899.216339","101083.059998","101850.060273","102616.444984","114142.181643","Mapping"
"Blocked","Female","cave","12","F_romp.wav","None","727.058807388","334","111083.168827","103366.111463","104133.041556","104899.504488","105666.014105","106432.86103","107199.240176","107965.982291","111849.65773","112599.360691","113365.895042","114132.787107","114899.216339","115665.923517","101850.060273","102616.444984","114908.919121","Mapping"
"Blocked","Female","cave","12","F_depth.wav","space","0.0553419813514","334","111083.168827","103366.111463","104133.041556","104899.504488","105666.014105","106432.86103","107199.240176","107965.982291","111849.65773","112599.360691","113365.895042","114132.787107","114899.216339","115665.923517","116433.034167","102616.444984","115675.642995","Mapping"
"Blocked","Female","cave","12","F_park.wav","None","721.191009507","334","111083.168827","103366.111463","104133.041556","104899.504488","105666.014105","106432.86103","107199.240176","107965.982291","111849.65773","112599.360691","113365.895042","114132.787107","114899.216339","115665.923517","116433.034167","117199.641173","116443.297171","Mapping"
"Blocked","Female","cave","12","F_knife.wav","None","719.553937204","334","111083.168827","117949.145337","104133.041556","104899.504488","105666.014105","106432.86103","107199.240176","107965.982291","111849.65773","112599.360691","113365.895042","114132.787107","114899.216339","115665.923517","116433.034167","117199.641173","117209.573053","Mapping"
"Blocked","Female","cave","12","F_lash.wav","None","734.459795523","334","111083.168827","117949.145337","118715.689581","104899.504488","105666.014105","106432.86103","107199.240176","107965.982291","111849.65773","112599.360691","113365.895042","114132.787107","114899.216339","115665.923517","116433.034167","117199.641173","117959.226856","Mapping"
"Blocked","Female","cave","12","F_cave.wav","None","733.214136679","334","111083.168827","117949.145337","118715.689581","119482.345128","105666.014105","106432.86103","107199.240176","107965.982291","111849.65773","112599.360691","113365.895042","114132.787107","114899.216339","115665.923517","116433.034167","117199.641173","118725.086282","Mapping"
"Blocked","Female","cave","12","F_lash.wav","space","519.016470294","334","111083.168827","117949.145337","118715.689581","119482.345128","120249.217405","106432.86103","107199.240176","107965.982291","111849.65773","112599.360691","113365.895042","114132.787107","114899.216339","115665.923517","116433.034167","117199.641173","119491.721733","Mapping"
"Blocked","Female","cave","12","F_jaw.wav","None","727.872551419","334","111083.168827","117949.145337","118715.689581","119482.345128","120249.217405","121015.784838","107199.240176","107965.982291","111849.65773","112599.360691","113365.895042","114132.787107","114899.216339","115665.923517","116433.034167","117199.641173","120258.924825","Mapping"
"Blocked","Female","cave","12","F_cave.wav","None","725.235922262","334","111083.168827","117949.145337","118715.689581","119482.345128","120249.217405","121015.784838","121782.938771","107965.982291","111849.65773","112599.360691","113365.895042","114132.787107","114899.216339","115665.923517","116433.034167","117199.641173","121026.167492","Mapping"
"Blocked","Female","cave","12","F_cling.wav","space","545.09924911","334","111083.168827","117949.145337","118715.689581","119482.345128","120249.217405","121015.784838","121782.938771","122549.500639","111849.65773","112599.360691","113365.895042","114132.787107","114899.216339","115665.923517","116433.034167","117199.641173","121793.613594","Mapping"
"Blocked","Female","tile","14","F_bluff.wav","None","720.726631116","334","125666.018433","117949.145337","118715.689581","119482.345128","120249.217405","121015.784838","121782.938771","122549.500639","111849.65773","112599.360691","113365.895042","114132.787107","114899.216339","115665.923517","116433.034167","117199.641173","122559.277005","Mapping"
"Blocked","Female","tile","14","F_jolt.wav","None","720.852774102","334","125666.018433","117949.145337","118715.689581","119482.345128","120249.217405","121015.784838","121782.938771","122549.500639","126432.875252","112599.360691","113365.895042","114132.787107","114899.216339","115665.923517","116433.034167","117199.641173","125675.912594","Mapping"
"Blocked","Female","tile","14","F_knife.wav","None","719.095742796","334","125666.018433","117949.145337","118715.689581","119482.345128","120249.217405","121015.784838","121782.938771","122549.500639","126432.875252","127182.480206","113365.895042","114132.787107","114899.216339","115665.923517","116433.034167","117199.641173","126442.603386","Mapping"
"Blocked","Female","tile","14","F_tile.wav","None","734.129598364","334","125666.018433","117949.145337","118715.689581","119482.345128","120249.217405","121015.784838","121782.938771","122549.500639","126432.875252","127182.480206","127949.138226","114132.787107","114899.216339","115665.923517","116433.034167","117199.641173","127192.110333","Mapping"
"Blocked","Female","tile","14","F_cling.wav","space","667.409404181","334","125666.018433","117949.145337","118715.689581","119482.345128","120249.217405","121015.784838","121782.938771","122549.500639","126432.875252","127182.480206","127949.138226","128715.615689","114899.216339","115665.923517","116433.034167","117199.641173","127959.231494","Mapping"
"Blocked","Female","tile","14","F_jolt.wav","None","729.536212515","334","125666.018433","117949.145337","118715.689581","119482.345128","120249.217405","121015.784838","121782.938771","122549.500639","126432.875252","127182.480206","127949.138226","128715.615689","129482.165498","115665.923517","116433.034167","117199.641173","128725.45729","Mapping"
"Blocked","Female","tile","14","F_tile.wav","None","727.954173461","334","125666.018433","117949.145337","118715.689581","119482.345128","120249.217405","121015.784838","121782.938771","122549.500639","126432.875252","127182.480206","127949.138226","128715.615689","129482.165498","130249.07333","116433.034167","117199.641173","129491.795007","Mapping"
"Blocked","Female","tile","14","F_jolt.wav","None","725.984121207","334","125666.018433","117949.145337","118715.689581","119482.345128","120249.217405","121015.784838","121782.938771","122549.500639","126432.875252","127182.480206","127949.138226","128715.615689","129482.165498","130249.07333","131015.981162","117199.641173","130258.595865","Mapping"
"Blocked","Female","tile","14","F_tile.wav","space","64.9962448515","334","125666.018433","117949.145337","118715.689581","119482.345128","120249.217405","121015.784838","121782.938771","122549.500639","126432.875252","127182.480206","127949.138226","128715.615689","129482.165498","130249.07333","131015.981162","131781.93705","131025.586556","Mapping"
"Blocked","Female","tile","14","F_jolt.wav","space","683.507433627","334","125666.018433","132549.360892","118715.689581","119482.345128","120249.217405","121015.784838","121782.938771","122549.500639","126432.875252","127182.480206","127949.138226","128715.615689","129482.165498","130249.07333","131015.981162","131781.93705","131791.024887","Mapping"
"Blocked","Female","tile","14","F_knife.wav","None","722.009391058","334","125666.018433","132549.360892","133316.017676","119482.345128","120249.217405","121015.784838","121782.938771","122549.500639","126432.875252","127182.480206","127949.138226","128715.615689","129482.165498","130249.07333","131015.981162","131781.93705","132559.370684","Mapping"
"Blocked","Female","tile","14","F_depth.wav","None","719.926800113","334","125666.018433","132549.360892","133316.017676","134065.429706","120249.217405","121015.784838","121782.938771","122549.500639","126432.875252","127182.480206","127949.138226","128715.615689","129482.165498","130249.07333","131015.981162","131781.93705","133326.097959","Mapping"
"Blocked","Female","tile","14","F_romp.wav","None","735.936407","334","125666.018433","132549.360892","133316.017676","134065.429706","134832.055263","121015.784838","121782.938771","122549.500639","126432.875252","127182.480206","127949.138226","128715.615689","129482.165498","130249.07333","131015.981162","131781.93705","134074.859488","Mapping"
"Blocked","Female","tile","14","F_tile.wav","None","733.866801485","334","125666.018433","132549.360892","133316.017676","134065.429706","134832.055263","135598.913627","121782.938771","122549.500639","126432.875252","127182.480206","127949.138226","128715.615689","129482.165498","130249.07333","131015.981162","131781.93705","134841.634376","Mapping"
"Blocked","Female","tile","14","F_jaw.wav","space","577.80668186","334","125666.018433","132549.360892","133316.017676","134065.429706","134832.055263","135598.913627","136365.519706","122549.500639","126432.875252","127182.480206","127949.138226","128715.615689","129482.165498","130249.07333","131015.981162","131781.93705","135608.698031","Mapping"
"Blocked","Female","tile","14","F_jolt.wav","None","729.546415154","334","125666.018433","132549.360892","133316.017676","134065.429706","134832.055263","135598.913627","136365.519706","137132.083119","126432.875252","127182.480206","127949.138226","128715.615689","129482.165498","130249.07333","131015.981162","131781.93705","136374.860138","Mapping"
"Blocked","Female","cave","9","F_greet.wav","None","727.666023653","334","140265.805475","132549.360892","133316.017676","134065.429706","134832.055263","135598.913627","136365.519706","137132.083119","126432.875252","127182.480206","127949.138226","128715.615689","129482.165498","130249.07333","131015.981162","131781.93705","137141.531761","Mapping"
"Blocked","Female","cave","9","F_bluff.wav","None","720.521958545","334","140265.805475","132549.360892","133316.017676","134065.429706","134832.055263","135598.913627","136365.519706","137132.083119","141032.418665","127182.480206","127949.138226","128715.615689","129482.165498","130249.07333","131015.981162","131781.93705","140275.977891","Mapping"
"Blocked","Female","cave","9","F_cave.wav","None","718.763381243","334","140265.805475","132549.360892","133316.017676","134065.429706","134832.055263","135598.913627","136365.519706","137132.083119","141032.418665","141782.291672","127949.138226","128715.615689","129482.165498","130249.07333","131015.981162","131781.93705","141042.414544","Mapping"
"Blocked","Female","cave","9","F_jolt.wav","space","650.007590186","334","140265.805475","132549.360892","133316.017676","134065.429706","134832.055263","135598.913627","136365.519706","137132.083119","141032.418665","141782.291672","142548.882292","128715.615689","129482.165498","130249.07333","131015.981162","131781.93705","141792.371337","Mapping"
"Blocked","Female","cave","9","F_cling.wav","None","730.500832666","334","140265.805475","132549.360892","133316.017676","134065.429706","134832.055263","135598.913627","136365.519706","137132.083119","141032.418665","141782.291672","142548.882292","143315.353263","129482.165498","130249.07333","131015.981162","131781.93705","142559.338839","Mapping"
"Blocked","Female","cave","9","F_bluff.wav","None","729.766237084","334","140265.805475","132549.360892","133316.017676","134065.429706","134832.055263","135598.913627","136365.519706","137132.083119","141032.418665","141782.291672","142548.882292","143315.353263","144082.125986","130249.07333","131015.981162","131781.93705","143324.834987","Mapping"
"Blocked","Female","cave","9","F_cave.wav","None","727.540190332","334","140265.805475","132549.360892","133316.017676","134065.429706","134832.055263","135598.913627","136365.519706","137132.083119","141032.418665","141782.291672","142548.882292","143315.353263","144082.125986","144848.777204","131015.981162","131781.93705","144091.803725","Mapping"
"Blocked","Female","cave","9","F_priest.wav","space","631.946001202","334","140265.805475","132549.360892","133316.017676","134065.429706","134832.055263","135598.913627","136365.519706","137132.083119","141032.418665","141782.291672","142548.882292","143315.353263","144082.125986","144848.777204","145615.717809","131781.93705","144858.334675","Mapping"
"Blocked","Female","cave","9","F_cave.wav","None","721.919730771","334","140265.805475","132549.360892","133316.017676","134065.429706","134832.055263","135598.913627","136365.519706","137132.083119","141032.418665","141782.291672","142548.882292","143315.353263","144082.125986","144848.777204","145615.717809","146382.553604","145626.137564","Mapping"
"Blocked","Female","cave","9","F_jaw.wav","space","625.514579937","334","140265.805475","147131.961614","133316.017676","134065.429706","134832.055263","135598.913627","136365.519706","137132.083119","141032.418665","141782.291672","142548.882292","143315.353263","144082.125986","144848.777204","145615.717809","146382.553604","146392.795584","Mapping"
"Blocked","Female","cave","9","F_cave.wav","None","734.268417582","334","140265.805475","147131.961614","147898.701256","134065.429706","134832.055263","135598.913627","136365.519706","137132.083119","141032.418665","141782.291672","142548.882292","143315.353263","144082.125986","144848.777204","145615.717809","146382.553604","147142.40363","Mapping"
"Blocked","Female","cave","9","F_reek.wav","space","669.435725082","334","140265.805475","147131.961614","147898.701256","148665.154294","134832.055263","135598.913627","136365.519706","137132.083119","141032.418665","141782.291672","142548.882292","143315.353263","144082.125986","144848.777204","145615.717809","146382.553604","147908.829461","Mapping"
"Blocked","Female","cave","9","F_jaw.wav","None","731.451849453","334","140265.805475","147131.961614","147898.701256","148665.154294","149432.134782","135598.913627","136365.519706","137132.083119","141032.418665","141782.291672","142548.882292","143315.353263","144082.125986","144848.777204","145615.717809","146382.553604","148674.270266","Mapping"
"Blocked","Female","cave","9","F_cad.wav","None","728.78461238","334","140265.805475","147131.961614","147898.701256","148665.154294","149432.134782","150198.680881","136365.519706","137132.083119","141032.418665","141782.291672","142548.882292","143315.353263","144082.125986","144848.777204","145615.717809","146382.553604","149441.766146","Mapping"
"Blocked","Female","cave","9","F_cling.wav","None","726.498894859","334","140265.805475","147131.961614","147898.701256","148665.154294","149432.134782","150198.680881","150965.236565","137132.083119","141032.418665","141782.291672","142548.882292","143315.353263","144082.125986","144848.777204","145615.717809","146382.553604","150208.699021","Mapping"
"Blocked","Female","cave","9","F_depth.wav","None","725.408750121","334","140265.805475","147131.961614","147898.701256","148665.154294","149432.134782","150198.680881","150965.236565","151732.419562","141032.418665","141782.291672","142548.882292","143315.353263","144082.125986","144848.777204","145615.717809","146382.553604","150974.673459","Mapping"
"Blocked","Female","tile","13","F_cad.wav","None","722.206952516","334","154848.938284","147131.961614","147898.701256","148665.154294","149432.134782","150198.680881","150965.236565","151732.419562","141032.418665","141782.291672","142548.882292","143315.353263","144082.125986","144848.777204","145615.717809","146382.553604","151742.59136","Mapping"
"Blocked","Female","tile","13","F_tile.wav","None","720.18403234","334","154848.938284","147131.961614","147898.701256","148665.154294","149432.134782","150198.680881","150965.236565","151732.419562","155598.806344","141782.291672","142548.882292","143315.353263","144082.125986","144848.777204","145615.717809","146382.553604","154859.168516","Mapping"
"Blocked","Female","tile","13","F_knife.wav","space","633.541025221","334","154848.938284","147131.961614","147898.701256","148665.154294","149432.134782","150198.680881","150965.236565","151732.419562","155598.806344","156365.194147","142548.882292","143315.353263","144082.125986","144848.777204","145615.717809","146382.553604","155608.548701","Mapping"
"Blocked","Female","tile","13","F_greet.wav","None","733.263295144","334","154848.938284","147131.961614","147898.701256","148665.154294","149432.134782","150198.680881","150965.236565","151732.419562","155598.806344","156365.194147","157132.042618","143315.353263","144082.125986","144848.777204","145615.717809","146382.553604","156374.858283","Mapping"
"Blocked","Female","tile","13","F_tile.wav","None","731.112995651","334","154848.938284","147131.961614","147898.701256","148665.154294","149432.134782","150198.680881","150965.236565","151732.419562","155598.806344","156365.194147","157132.042618","157898.532138","144082.125986","144848.777204","145615.717809","146382.553604","157141.775699","Mapping"
"Blocked","Female","tile","13","F_knife.wav","space","533.762486186","334","154848.938284","147131.961614","147898.701256","148665.154294","149432.134782","150198.680881","150965.236565","151732.419562","155598.806344","156365.194147","157132.042618","157898.532138","158665.019804","144848.777204","145615.717809","146382.553604","157908.306649","Mapping"
"Blocked","Female","tile","13","F_cad.wav","None","727.67189797","334","154848.938284","147131.961614","147898.701256","148665.154294","149432.134782","150198.680881","150965.236565","151732.419562","155598.806344","156365.194147","157132.042618","157898.532138","158665.019804","159431.961954","145615.717809","146382.553604","158674.561507","Mapping"
"Blocked","Female","tile","13","F_jolt.wav","None","725.671547465","334","154848.938284","147131.961614","147898.701256","148665.154294","149432.134782","150198.680881","150965.236565","151732.419562","155598.806344","156365.194147","157132.042618","157898.532138","158665.019804","159431.961954","160198.828357","146382.553604","159441.520971","Mapping"
"Blocked","Female","tile","13","F_greet.wav","None","723.223204724","334","154848.938284","147131.961614","147898.701256","148665.154294","149432.134782","150198.680881","150965.236565","151732.419562","155598.806344","156365.194147","157132.042618","157898.532138","158665.019804","159431.961954","160198.828357","160965.364254","160208.932756","Mapping"
"Blocked","Female","tile","13","F_knife.wav","None","721.877374221","334","154848.938284","161732.307641","147898.701256","148665.154294","149432.134782","150198.680881","150965.236565","151732.419562","155598.806344","156365.194147","157132.042618","157898.532138","158665.019804","159431.961954","160198.828357","160965.364254","160975.249448","Mapping"
"Blocked","Female","tile","13","F_depth.wav","None","719.630302861","334","154848.938284","161732.307641","162481.685971","148665.154294","149432.134782","150198.680881","150965.236565","151732.419562","155598.806344","156365.194147","157132.042618","157898.532138","158665.019804","159431.961954","160198.828357","160965.364254","161742.404001","Mapping"
"Blocked","Female","tile","13","F_tile.wav","None","735.064538661","334","154848.938284","161732.307641","162481.685971","163248.547118","149432.134782","150198.680881","150965.236565","151732.419562","155598.806344","156365.194147","157132.042618","157898.532138","158665.019804","159431.961954","160198.828357","160965.364254","162491.929188","Mapping"
"Blocked","Female","tile","13","F_bluff.wav","None","732.963087969","334","154848.938284","161732.307641","162481.685971","163248.547118","164014.982224","150198.680881","150965.236565","151732.419562","155598.806344","156365.194147","157132.042618","157898.532138","158665.019804","159431.961954","160198.828357","160965.364254","163258.888343","Mapping"
"Blocked","Female","tile","13","F_tile.wav","space","0.0346275046468","334","154848.938284","161732.307641","162481.685971","163248.547118","164014.982224","164781.86594","150965.236565","151732.419562","155598.806344","156365.194147","157132.042618","157898.532138","158665.019804","159431.961954","160198.828357","160965.364254","164024.389128","Mapping"
"Blocked","Female","tile","13","F_lash.wav","space","602.675028611","334","154848.938284","161732.307641","162481.685971","163248.547118","164014.982224","164781.86594","165548.41575","151732.419562","155598.806344","156365.194147","157132.042618","157898.532138","158665.019804","159431.961954","160198.828357","160965.364254","164791.271607","Mapping"
"Blocked","Female","tile","13","F_knife.wav","None","726.672959514","334","154848.938284","161732.307641","162481.685971","163248.547118","164014.982224","164781.86594","165548.41575","166315.05522","155598.806344","156365.194147","157132.042618","157898.532138","158665.019804","159431.961954","160198.828357","160965.364254","165558.014341","Mapping"
"Blocked","Female","ball","5","F_romp.wav","None","724.791331217","334","169448.739856","161732.307641","162481.685971","163248.547118","164014.982224","164781.86594","165548.41575","166315.05522","155598.806344","156365.194147","157132.042618","157898.532138","158665.019804","159431.961954","160198.828357","160965.364254","166324.950617","Mapping"
"Blocked","Female","ball","5","F_ball.wav","None","720.316667575","334","169448.739856","161732.307641","162481.685971","163248.547118","164014.982224","164781.86594","165548.41575","166315.05522","170215.326766","156365.194147","157132.042618","157898.532138","158665.019804","159431.961954","160198.828357","160965.364254","169458.698016","Mapping"
"Blocked","Female","ball","5","F_romp.wav","space","544.267264195","334","169448.739856","161732.307641","162481.685971","163248.547118","164014.982224","164781.86594","165548.41575","166315.05522","170215.326766","170964.796921","157132.042618","157898.532138","158665.019804","159431.961954","160198.828357","160965.364254","170225.55638","Mapping"
"Blocked","Female","ball","5","F_depth.wav","None","733.029251453","334","169448.739856","161732.307641","162481.685971","163248.547118","164014.982224","164781.86594","165548.41575","166315.05522","170215.326766","170964.796921","171731.73598","157898.532138","158665.019804","159431.961954","160198.828357","160965.364254","170974.834229","Mapping"
"Blocked","Female","ball","5","F_priest.wav","None","731.426497456","334","169448.739856","161732.307641","162481.685971","163248.547118","164014.982224","164781.86594","165548.41575","166315.05522","170215.326766","170964.796921","171731.73598","172498.278369","158665.019804","159431.961954","160198.828357","160965.364254","171741.452675","Mapping"
"Blocked","Female","ball","5","F_ball.wav","None","729.65926351","334","169448.739856","161732.307641","162481.685971","163248.547118","164014.982224","164781.86594","165548.41575","166315.05522","170215.326766","170964.796921","171731.73598","172498.278369","173264.967616","159431.961954","160198.828357","160965.364254","172508.185824","Mapping"
"Blocked","Female","ball","5","F_dime.wav","space","559.229082894","334","169448.739856","161732.307641","162481.685971","163248.547118","164014.982224","164781.86594","165548.41575","166315.05522","170215.326766","170964.796921","171731.73598","172498.278369","173264.967616","174031.64635","160198.828357","160965.364254","173274.609491","Mapping"
"Blocked","Female","ball","5","F_ball.wav","None","725.229429547","334","169448.739856","161732.307641","162481.685971","163248.547118","164014.982224","164781.86594","165548.41575","166315.05522","170215.326766","170964.796921","171731.73598","172498.278369","173264.967616","174031.64635","174798.566549","160965.364254","174041.489806","Mapping"
"Blocked","Female","ball","5","F_jaw.wav","space","576.963875908","334","169448.739856","161732.307641","162481.685971","163248.547118","164014.982224","164781.86594","165548.41575","166315.05522","170215.326766","170964.796921","171731.73598","172498.278369","173264.967616","174031.64635","174798.566549","175564.988361","174808.799873","Mapping"
"Blocked","Female","ball","5","F_priest.wav","None","720.504026394","334","169448.739856","176331.657202","162481.685971","163248.547118","164014.982224","164781.86594","165548.41575","166315.05522","170215.326766","170964.796921","171731.73598","172498.278369","173264.967616","174031.64635","174798.566549","175564.988361","175575.444908","Mapping"
"Blocked","Female","ball","5","F_jaw.wav","None","719.319893047","334","169448.739856","176331.657202","177081.454153","163248.547118","164014.982224","164781.86594","165548.41575","166315.05522","170215.326766","170964.796921","171731.73598","172498.278369","173264.967616","174031.64635","174798.566549","175564.988361","176341.562493","Mapping"
"Blocked","Female","ball","5","F_ball.wav","None","734.085695818","334","169448.739856","176331.657202","177081.454153","177848.188539","164014.982224","164781.86594","165548.41575","166315.05522","170215.326766","170964.796921","171731.73598","172498.278369","173264.967616","174031.64635","174798.566549","175564.988361","177091.836807","Mapping"
"Blocked","Female","ball","5","F_cad.wav","space","583.073447458","334","169448.739856","176331.657202","177081.454153","177848.188539","178614.731237","164781.86594","165548.41575","166315.05522","170215.326766","170964.796921","171731.73598","172498.278369","173264.967616","174031.64635","174798.566549","175564.988361","177858.615714","Mapping"
"Blocked","Female","ball","5","F_gnash.wav","None","730.425703339","334","169448.739856","176331.657202","177081.454153","177848.188539","178614.731237","179381.554356","165548.41575","166315.05522","170215.326766","170964.796921","171731.73598","172498.278369","173264.967616","174031.64635","174798.566549","175564.988361","178624.572529","Mapping"
"Blocked","Female","ball","5","F_jolt.wav","None","729.022057727","334","169448.739856","176331.657202","177081.454153","177848.188539","178614.731237","179381.554356","180148.200627","166315.05522","170215.326766","170964.796921","171731.73598","172498.278369","173264.967616","174031.64635","174798.566549","175564.988361","179391.091112","Mapping"
"Blocked","Female","ball","5","F_park.wav","None","727.016141638","334","169448.739856","176331.657202","177081.454153","177848.188539","178614.731237","179381.554356","180148.200627","180914.701278","170215.326766","170964.796921","171731.73598","172498.278369","173264.967616","174031.64635","174798.566549","175564.988361","180158.240409","Mapping"
"Blocked","Female","done","21","F_jolt.wav","None","725.597964134","334","184048.722295","176331.657202","177081.454153","177848.188539","178614.731237","179381.554356","180148.200627","180914.701278","170215.326766","170964.796921","171731.73598","172498.278369","173264.967616","174031.64635","174798.566549","175564.988361","180924.565759","Mapping"
"Blocked","Female","done","21","F_done.wav","None","720.53494351","334","184048.722295","176331.657202","177081.454153","177848.188539","178614.731237","179381.554356","180148.200627","180914.701278","184815.123083","170964.796921","171731.73598","172498.278369","173264.967616","174031.64635","174798.566549","175564.988361","184058.689421","Mapping"
"Blocked","Female","done","21","F_priest.wav","space","567.82131549","334","184048.722295","176331.657202","177081.454153","177848.188539","178614.731237","179381.554356","180148.200627","180914.701278","184815.123083","185564.527075","171731.73598","172498.278369","173264.967616","174031.64635","174798.566549","175564.988361","184825.748129","Mapping"
"Blocked","Female","done","21","F_cling.wav","None","734.189887065","334","184048.722295","176331.657202","177081.454153","177848.188539","178614.731237","179381.554356","180148.200627","180914.701278","184815.123083","185564.527075","186331.420994","172498.278369","173264.967616","174031.64635","174798.566549","175564.988361","185574.027349","Mapping"
"Blocked","Female","done","21","F_romp.wav","None","731.982081663","334","184048.722295","176331.657202","177081.454153","177848.188539","178614.731237","179381.554356","180148.200627","180914.701278","184815.123083","185564.527075","186331.420994","187097.827656","173264.967616","174031.64635","174798.566549","175564.988361","186341.23848","Mapping"
"Blocked","Female","done","21","F_done.wav","None","731.130000204","334","184048.722295","176331.657202","177081.454153","177848.188539","178614.731237","179381.554356","180148.200627","180914.701278","184815.123083","185564.527075","186331.420994","187097.827656","187864.560187","174031.64635","174798.566549","175564.988361","187107.239507","Mapping"
"Blocked","Female","done","21","F_depth.wav","space","527.079707477","334","184048.722295","176331.657202","177081.454153","177848.188539","178614.731237","179381.554356","180148.200627","180914.701278","184815.123083","185564.527075","186331.420994","187097.827656","187864.560187","188631.459672","174798.566549","175564.988361","187874.447546","Mapping"
"Blocked","Female","done","21","F_jaw.wav","None","725.695972331","334","184048.722295","176331.657202","177081.454153","177848.188539","178614.731237","179381.554356","180148.200627","180914.701278","184815.123083","185564.527075","186331.420994","187097.827656","187864.560187","188631.459672","189398.054929","175564.988361","188641.548611","Mapping"
"Blocked","Female","done","21","F_done.wav","None","724.398990162","334","184048.722295","176331.657202","177081.454153","177848.188539","178614.731237","179381.554356","180148.200627","180914.701278","184815.123083","185564.527075","186331.420994","187097.827656","187864.560187","188631.459672","189398.054929","190164.890724","189407.958984","Mapping"
"Blocked","Female","done","21","F_gnash.wav","space","538.345979061","334","184048.722295","190931.540087","177081.454153","177848.188539","178614.731237","179381.554356","180148.200627","180914.701278","184815.123083","185564.527075","186331.420994","187097.827656","187864.560187","188631.459672","189398.054929","190164.890724","190175.14569","Mapping"
"Blocked","Female","done","21","F_done.wav","None","719.564758241","334","184048.722295","190931.540087","191681.090936","177848.188539","178614.731237","179381.554356","180148.200627","180914.701278","184815.123083","185564.527075","186331.420994","187097.827656","187864.560187","188631.459672","189398.054929","190164.890724","190941.915631","Mapping"
"Blocked","Female","done","21","F_knife.wav","space","574.082381558","334","184048.722295","190931.540087","191681.090936","192447.632398","178614.731237","179381.554356","180148.200627","180914.701278","184815.123083","185564.527075","186331.420994","187097.827656","187864.560187","188631.459672","189398.054929","190164.890724","191691.376201","Mapping"
"Blocked","Female","done","21","F_depth.wav","None","733.538150322","334","184048.722295","190931.540087","191681.090936","192447.632398","193214.485506","179381.554356","180148.200627","180914.701278","184815.123083","185564.527075","186331.420994","187097.827656","187864.560187","188631.459672","189398.054929","190164.890724","192457.027862","Mapping"
"Blocked","Female","done","21","F_gnash.wav","None","731.626532506","334","184048.722295","190931.540087","191681.090936","192447.632398","193214.485506","193981.285128","180148.200627","180914.701278","184815.123083","185564.527075","186331.420994","187097.827656","187864.560187","188631.459672","189398.054929","190164.890724","193224.065547","Mapping"
"Blocked","Female","done","21","F_dime.wav","None","729.775512591","334","184048.722295","190931.540087","191681.090936","192447.632398","193214.485506","193981.285128","194747.945312","180914.701278","184815.123083","185564.527075","186331.420994","187097.827656","187864.560187","188631.459672","189398.054929","190164.890724","193991.053146","Mapping"
"Blocked","Female","done","21","F_dime.wav","None","728.228718508","334","184048.722295","190931.540087","191681.090936","192447.632398","193214.485506","193981.285128","194747.945312","195514.087322","184815.123083","185564.527075","186331.420994","187097.827656","187864.560187","188631.459672","189398.054929","190164.890724","194757.600482","Mapping"
"Blocked","Female","tile","15","F_park.wav","None","729.910930153","334","198648.312703","190931.540087","191681.090936","192447.632398","193214.485506","193981.285128","194747.945312","195514.087322","184815.123083","185564.527075","186331.420994","187097.827656","187864.560187","188631.459672","189398.054929","190164.890724","195523.655614","Mapping"
"Blocked","Female","tile","15","F_tile.wav","None","719.715325627","334","198648.312703","190931.540087","191681.090936","192447.632398","193214.485506","193981.285128","194747.945312","195514.087322","199414.78862","185564.527075","186331.420994","187097.827656","187864.560187","188631.459672","189398.054929","190164.890724","198658.792747","Mapping"
"Blocked","Female","tile","15","F_gnash.wav","space","567.95395026","334","198648.312703","190931.540087","191681.090936","192447.632398","193214.485506","193981.285128","194747.945312","195514.087322","199414.78862","200164.243315","186331.420994","187097.827656","187864.560187","188631.459672","189398.054929","190164.890724","199425.354923","Mapping"
"Blocked","Female","tile","15","F_tile.wav","None","733.32884023","334","198648.312703","190931.540087","191681.090936","192447.632398","193214.485506","193981.285128","194747.945312","195514.087322","199414.78862","200164.243315","200931.229987","187097.827656","187864.560187","188631.459672","189398.054929","190164.890724","200174.349569","Mapping"
"Blocked","Female","tile","15","F_greet.wav","space","508.532716427","334","198648.312703","190931.540087","191681.090936","192447.632398","193214.485506","193981.285128","194747.945312","195514.087322","199414.78862","200164.243315","200931.229987","201697.988488","187864.560187","188631.459672","189398.054929","190164.890724","200940.78653","Mapping"
"Blocked","Female","tile","15","F_tile.wav","None","729.005671106","334","198648.312703","190931.540087","191681.090936","192447.632398","193214.485506","193981.285128","194747.945312","195514.087322","199414.78862","200164.243315","200931.229987","201697.988488","202464.35032","188631.459672","189398.054929","190164.890724","201707.892542","Mapping"
"Blocked","Female","tile","15","F_jaw.wav","space","511.156050954","334","198648.312703","190931.540087","191681.090936","192447.632398","193214.485506","193981.285128","194747.945312","195514.087322","199414.78862","200164.243315","200931.229987","201697.988488","202464.35032","203231.181786","189398.054929","190164.890724","202474.151111","Mapping"
"Blocked","Female","tile","15","F_tile.wav","None","724.65405846","334","198648.312703","190931.540087","191681.090936","192447.632398","193214.485506","193981.285128","194747.945312","195514.087322","199414.78862","200164.243315","200931.229987","201697.988488","202464.35032","203231.181786","203998.16382","190164.890724","203241.595977","Mapping"
"Blocked","Female","tile","15","F_park.wav","space","560.904492624","334","198648.312703","190931.540087","191681.090936","192447.632398","193214.485506","193981.285128","194747.945312","195514.087322","199414.78862","200164.243315","200931.229987","201697.988488","202464.35032","203231.181786","203998.16382","204764.63881","204008.308102","Mapping"
"Blocked","Female","tile","15","F_bluff.wav","None","719.523947686","334","198648.312703","205531.187692","191681.090936","192447.632398","193214.485506","193981.285128","194747.945312","195514.087322","199414.78862","200164.243315","200931.229987","201697.988488","202464.35032","203231.181786","203998.16382","204764.63881","204775.933216","Mapping"
"Blocked","Female","tile","15","F_jaw.wav","None","719.958644826","334","198648.312703","205531.187692","206280.507588","192447.632398","193214.485506","193981.285128","194747.945312","195514.087322","199414.78862","200164.243315","200931.229987","201697.988488","202464.35032","203231.181786","203998.16382","204764.63881","205540.629532","Mapping"
"Blocked","Female","tile","15","F_depth.wav","None","735.735444352","334","198648.312703","205531.187692","206280.507588","207047.300098","193214.485506","193981.285128","194747.945312","195514.087322","199414.78862","200164.243315","200931.229987","201697.988488","202464.35032","203231.181786","203998.16382","204764.63881","206290.081445","Mapping"
"Blocked","Female","tile","15","F_depth.wav","None","734.343546443","334","198648.312703","205531.187692","206280.507588","207047.300098","207814.208549","193981.285128","194747.945312","195514.087322","199414.78862","200164.243315","200931.229987","201697.988488","202464.35032","203231.181786","203998.16382","204764.63881","207056.623525","Mapping"
"Blocked","Female","tile","15","F_reek.wav","None","731.595614925","334","198648.312703","205531.187692","206280.507588","207047.300098","207814.208549","208581.06444","194747.945312","195514.087322","199414.78862","200164.243315","200931.229987","201697.988488","202464.35032","203231.181786","203998.16382","204764.63881","207824.254205","Mapping"
"Blocked","Female","tile","15","F_bluff.wav","None","730.860092212","334","198648.312703","205531.187692","206280.507588","207047.300098","207814.208549","208581.06444","209347.593535","195514.087322","199414.78862","200164.243315","200931.229987","201697.988488","202464.35032","203231.181786","203998.16382","204764.63881","208590.309646","Mapping"
"Blocked","Female","tile","15","F_gnash.wav","None","729.234150145","334","198648.312703","205531.187692","206280.507588","207047.300098","207814.208549","208581.06444","209347.593535","210114.23857","199414.78862","200164.243315","200931.229987","201697.988488","202464.35032","203231.181786","203998.16382","204764.63881","209357.206966","Mapping"
"Blocked","Female","cave","10","F_cad.wav","None","727.013977244","334","213247.8657","205531.187692","206280.507588","207047.300098","207814.208549","208581.06444","209347.593535","210114.23857","199414.78862","200164.243315","200931.229987","201697.988488","202464.35032","203231.181786","203998.16382","204764.63881","210124.470348","Mapping"
"Blocked","Female","cave","10","F_reek.wav","None","720.33305373","334","213247.8657","205531.187692","206280.507588","207047.300098","207814.208549","208581.06444","209347.593535","210114.23857","214014.46745","200164.243315","200931.229987","201697.988488","202464.35032","203231.181786","203998.16382","204764.63881","213257.951857","Mapping"
"Blocked","Female","cave","10","F_knife.wav","None","724.32757169","334","213247.8657","205531.187692","206280.507588","207047.300098","207814.208549","208581.06444","209347.593535","210114.23857","214014.46745","214764.331492","200931.229987","201697.988488","202464.35032","203231.181786","203998.16382","204764.63881","214018.982616","Mapping"
"Blocked","Female","cave","10","F_jaw.wav","None","734.67096081","334","213247.8657","205531.187692","206280.507588","207047.300098","207814.208549","208581.06444","209347.593535","210114.23857","214014.46745","214764.331492","215530.948392","201697.988488","202464.35032","203231.181786","203998.16382","204764.63881","214773.760347","Mapping"
"Blocked","Female","cave","10","F_jaw.wav","None","732.749758288","334","213247.8657","205531.187692","206280.507588","207047.300098","207814.208549","208581.06444","209347.593535","210114.23857","214014.46745","214764.331492","215530.948392","216297.494491","202464.35032","203231.181786","203998.16382","204764.63881","215540.852446","Mapping"
"Blocked","Female","cave","10","F_lash.wav","None","731.593760196","334","213247.8657","205531.187692","206280.507588","207047.300098","207814.208549","208581.06444","209347.593535","210114.23857","214014.46745","214764.331492","215530.948392","216297.494491","217064.071199","203231.181786","203998.16382","204764.63881","216307.123381","Mapping"
"Blocked","Female","cave","10","F_cave.wav","None","730.058096815","334","213247.8657","205531.187692","206280.507588","207047.300098","207814.208549","208581.06444","209347.593535","210114.23857","214014.46745","214764.331492","215530.948392","216297.494491","217064.071199","217830.894008","203998.16382","204764.63881","217073.697925","Mapping"
"Blocked","Female","cave","10","F_lash.wav","space","544.422778301","334","213247.8657","205531.187692","206280.507588","207047.300098","207814.208549","208581.06444","209347.593535","210114.23857","214014.46745","214764.331492","215530.948392","216297.494491","217064.071199","217830.894008","218597.30469","204764.63881","217840.575767","Mapping"
"Blocked","Female","cave","10","F_cave.wav","None","726.156330667","334","213247.8657","205531.187692","206280.507588","207047.300098","207814.208549","208581.06444","209347.593535","210114.23857","214014.46745","214764.331492","215530.948392","216297.494491","217064.071199","217830.894008","218597.30469","219363.878924","218606.685005","Mapping"
"Blocked","Female","cave","10","F_dime.wav","space","580.046642106","334","213247.8657","220131.239076","206280.507588","207047.300098","207814.208549","208581.06444","209347.593535","210114.23857","214014.46745","214764.331492","215530.948392","216297.494491","217064.071199","217830.894008","218597.30469","219363.878924","219372.89596","Mapping"
"Blocked","Female","cave","10","F_greet.wav","None","720.675308723","334","213247.8657","220131.239076","220897.782393","207047.300098","207814.208549","208581.06444","209347.593535","210114.23857","214014.46745","214764.331492","215530.948392","216297.494491","217064.071199","217830.894008","218597.30469","219363.878924","220141.364189","Mapping"
"Blocked","Female","cave","10","F_cave.wav","None","719.53229513","334","213247.8657","220131.239076","220897.782393","221646.996552","207814.208549","208581.06444","209347.593535","210114.23857","214014.46745","214764.331492","215530.948392","216297.494491","217064.071199","217830.894008","218597.30469","219363.878924","220907.71551","Mapping"
"Blocked","Female","cave","10","F_dime.wav","space","696.096039377","334","213247.8657","220131.239076","220897.782393","221646.996552","222413.948596","208581.06444","209347.593535","210114.23857","214014.46745","214764.331492","215530.948392","216297.494491","217064.071199","217830.894008","218597.30469","219363.878924","221656.826405","Mapping"
"Blocked","Female","cave","10","F_cave.wav","None","732.716058847","334","213247.8657","220131.239076","220897.782393","221646.996552","222413.948596","223180.809125","209347.593535","210114.23857","214014.46745","214764.331492","215530.948392","216297.494491","217064.071199","217830.894008","218597.30469","219363.878924","222423.58367","Mapping"
"Blocked","Female","cave","10","F_knife.wav","space","602.64411103","334","213247.8657","220131.239076","220897.782393","221646.996552","222413.948596","223180.809125","223947.365118","210114.23857","214014.46745","214764.331492","215530.948392","216297.494491","217064.071199","217830.894008","218597.30469","219363.878924","223190.260859","Mapping"
"Blocked","Female","cave","10","F_park.wav","None","728.135967162","334","213247.8657","220131.239076","220897.782393","221646.996552","222413.948596","223180.809125","223947.365118","224713.952955","214014.46745","214764.331492","215530.948392","216297.494491","217064.071199","217830.894008","218597.30469","219363.878924","223957.319567","Mapping"
"Blocked","Female","cave","7","F_bluff.wav","None","727.051078342","334","227847.639447","220131.239076","220897.782393","221646.996552","222413.948596","223180.809125","223947.365118","224713.952955","214014.46745","214764.331492","215530.948392","216297.494491","217064.071199","217830.894008","218597.30469","219363.878924","224723.659757","Mapping"
"Blocked","Female","cave","7","F_cave.wav","None","720.290078782","334","227847.639447","220131.239076","220897.782393","221646.996552","222413.948596","223180.809125","223947.365118","224713.952955","228614.508014","214764.331492","215530.948392","216297.494491","217064.071199","217830.894008","218597.30469","219363.878924","227857.552158","Mapping"
"Blocked","Female","cave","7","F_cad.wav","space","576.119214296","334","227847.639447","220131.239076","220897.782393","221646.996552","222413.948596","223180.809125","223947.365118","224713.952955","228614.508014","229363.924991","215530.948392","216297.494491","217064.071199","217830.894008","218597.30469","219363.878924","228624.683523","Mapping"
"Blocked","Female","cave","7","F_cling.wav","None","739.209623542","334","227847.639447","220131.239076","220897.782393","221646.996552","222413.948596","223180.809125","223947.365118","224713.952955","228614.508014","229363.924991","230130.703279","216297.494491","217064.071199","217830.894008","218597.30469","219363.878924","229367.834795","Mapping"
"Blocked","Female","cave","7","F_cave.wav","None","732.017327566","334","227847.639447","220131.239076","220897.782393","221646.996552","222413.948596","223180.809125","223947.365118","224713.952955","228614.508014","229363.924991","230130.703279","230897.189708","217064.071199","217830.894008","218597.30469","219363.878924","230140.363086","Mapping"
"Blocked","Female","cave","7","F_cling.wav","None","730.333879124","334","227847.639447","220131.239076","220897.782393","221646.996552","222413.948596","223180.809125","223947.365118","224713.952955","228614.508014","229363.924991","230130.703279","230897.189708","231663.669335","217830.894008","218597.30469","219363.878924","230907.423032","Mapping"
"Blocked","Female","cave","7","F_cave.wav","space","55.8119458146","334","227847.639447","220131.239076","220897.782393","221646.996552","222413.948596","223180.809125","223947.365118","224713.952955","228614.508014","229363.924991","230130.703279","230897.189708","231663.669335","232430.601283","218597.30469","219363.878924","231672.947005","Mapping"
"Blocked","Female","cave","7","F_romp.wav","None","726.595356595","334","227847.639447","220131.239076","220897.782393","221646.996552","222413.948596","223180.809125","223947.365118","224713.952955","228614.508014","229363.924991","230130.703279","230897.189708","231663.669335","232430.601283","233196.938072","219363.878924","232440.37734","Mapping"
"Blocked","Female","cave","7","F_knife.wav","space","0.0225696712732","334","227847.639447","220131.239076","220897.782393","221646.996552","222413.948596","223180.809125","223947.365118","224713.952955","228614.508014","229363.924991","230130.703279","230897.189708","231663.669335","232430.601283","233196.938072","233964.216294","233206.176786","Mapping"
"Blocked","Female","cave","7","F_knife.wav","None","721.36692889","334","227847.639447","234730.731785","220897.782393","221646.996552","222413.948596","223180.809125","223947.365118","224713.952955","228614.508014","229363.924991","230130.703279","230897.189708","231663.669335","232430.601283","233196.938072","233964.216294","233974.576687","Mapping"
"Blocked","Female","cave","7","F_cling.wav","None","719.879496377","334","227847.639447","234730.731785","235497.453495","221646.996552","222413.948596","223180.809125","223947.365118","224713.952955","228614.508014","229363.924991","230130.703279","230897.189708","231663.669335","232430.601283","233196.938072","233964.216294","234741.32746","Mapping"
"Blocked","Female","cave","7","F_lash.wav","None","719.536623452","334","227847.639447","234730.731785","235497.453495","236246.812965","222413.948596","223180.809125","223947.365118","224713.952955","228614.508014","229363.924991","230130.703279","230897.189708","231663.669335","232430.601283","233196.938072","233964.216294","235507.281802","Mapping"
"Blocked","Female","cave","7","F_greet.wav","None","735.886630137","334","227847.639447","234730.731785","235497.453495","236246.812965","237013.650924","223180.809125","223947.365118","224713.952955","228614.508014","229363.924991","230130.703279","230897.189708","231663.669335","232430.601283","233196.938072","233964.216294","236256.162053","Mapping"
"Blocked","Female","cave","7","F_jolt.wav","None","733.932655305","334","227847.639447","234730.731785","235497.453495","236246.812965","237013.650924","237780.54237","223947.365118","224713.952955","228614.508014","229363.924991","230130.703279","230897.189708","231663.669335","232430.601283","233196.938072","233964.216294","237023.389571","Mapping"
"Blocked","Female","cave","7","F_cave.wav","None","732.269612607","334","227847.639447","234730.731785","235497.453495","236246.812965","237013.650924","237780.54237","238547.146285","224713.952955","228614.508014","229363.924991","230130.703279","230897.189708","231663.669335","232430.601283","233196.938072","233964.216294","237790.284418","Mapping"
"Blocked","Female","cave","7","F_knife.wav","space","595.562499017","334","227847.639447","234730.731785","235497.453495","236246.812965","237013.650924","237780.54237","238547.146285","239313.663013","228614.508014","229363.924991","230130.703279","230897.189708","231663.669335","232430.601283","233196.938072","233964.216294","238557.08002","Mapping"
"Blocked","Female","cave","11","F_knife.wav","None","728.124218527","334","242447.261081","234730.731785","235497.453495","236246.812965","237013.650924","237780.54237","238547.146285","239313.663013","228614.508014","229363.924991","230130.703279","230897.189708","231663.669335","232430.601283","233196.938072","233964.216294","239323.608496","Mapping"
"Blocked","Female","cave","11","F_cave.wav","None","719.986161217","334","242447.261081","234730.731785","235497.453495","236246.812965","237013.650924","237780.54237","238547.146285","239313.663013","243213.562315","229363.924991","230130.703279","230897.189708","231663.669335","232430.601283","233196.938072","233964.216294","242457.59334","Mapping"
"Blocked","Female","cave","11","F_greet.wav","space","585.730791558","334","242447.261081","234730.731785","235497.453495","236246.812965","237013.650924","237780.54237","238547.146285","239313.663013","243213.562315","243963.270224","230130.703279","230897.189708","231663.669335","232430.601283","233196.938072","233964.216294","243222.825144","Mapping"
"Blocked","Female","cave","11","F_greet.wav","None","735.994840506","334","242447.261081","234730.731785","235497.453495","236246.812965","237013.650924","237780.54237","238547.146285","239313.663013","243213.562315","243963.270224","244730.25133","230897.189708","231663.669335","232430.601283","233196.938072","233964.216294","243972.755348","Mapping"
"Blocked","Female","cave","11","F_greet.wav","None","738.984545227","334","242447.261081","234730.731785","235497.453495","236246.812965","237013.650924","237780.54237","238547.146285","239313.663013","243213.562315","243963.270224","244730.25133","245497.045386","231663.669335","232430.601283","233196.938072","233964.216294","244735.055572","Mapping"
"Blocked","Female","cave","11","F_bluff.wav","None","732.425435912","334","242447.261081","234730.731785","235497.453495","236246.812965","237013.650924","237780.54237","238547.146285","239313.663013","243213.562315","243963.270224","244730.25133","245497.045386","246263.48884","232430.601283","233196.938072","233964.216294","245506.943875","Mapping"
"Blocked","Female","cave","11","F_park.wav","None","701.594684273","334","242447.261081","234730.731785","235497.453495","236246.812965","237013.650924","237780.54237","238547.146285","239313.663013","243213.562315","243963.270224","244730.25133","245497.045386","246263.48884","247030.265583","233196.938072","233964.216294","246302.987881","Mapping"
"Blocked","Female","cave","11","F_dime.wav","None","730.592038948","334","242447.261081","234730.731785","235497.453495","236246.812965","237013.650924","237780.54237","238547.146285","239313.663013","243213.562315","243963.270224","244730.25133","245497.045386","246263.48884","247030.265583","247796.937206","233964.216294","247039.800175","Mapping"
"Blocked","Female","cave","11","F_cave.wav","None","728.963932954","334","242447.261081","234730.731785","235497.453495","236246.812965","237013.650924","237780.54237","238547.146285","239313.663013","243213.562315","243963.270224","244730.25133","245497.045386","246263.48884","247030.265583","247796.937206","248563.386226","247806.835386","Mapping"
"Blocked","Female","cave","11","F_greet.wav","space","667.581922375","334","242447.261081","249330.24459","235497.453495","236246.812965","237013.650924","237780.54237","238547.146285","239313.663013","243213.562315","243963.270224","244730.25133","245497.045386","246263.48884","247030.265583","247796.937206","248563.386226","248572.884026","Mapping"
"Blocked","Female","cave","11","F_jolt.wav","None","725.272404496","334","242447.261081","249330.24459","250097.37008","236246.812965","237013.650924","237780.54237","238547.146285","239313.663013","243213.562315","243963.270224","244730.25133","245497.045386","246263.48884","247030.265583","247796.937206","248563.386226","249339.817829","Mapping"
"Blocked","Female","cave","11","F_greet.wav","None","723.306063097","334","242447.261081","249330.24459","250097.37008","250863.773341","237013.650924","237780.54237","238547.146285","239313.663013","243213.562315","243963.270224","244730.25133","245497.045386","246263.48884","247030.265583","247796.937206","248563.386226","250107.18973","Mapping"
"Blocked","Female","cave","11","F_cave.wav","None","721.968889236","334","242447.261081","249330.24459","250097.37008","250863.773341","251630.675608","237780.54237","238547.146285","239313.663013","243213.562315","243963.270224","244730.25133","245497.045386","246263.48884","247030.265583","247796.937206","248563.386226","250873.929681","Mapping"
"Blocked","Female","cave","11","F_reek.wav","None","720.485476311","334","242447.261081","249330.24459","250097.37008","250863.773341","251630.675608","252397.2282","238547.146285","239313.663013","243213.562315","243963.270224","244730.25133","245497.045386","246263.48884","247030.265583","247796.937206","248563.386226","251640.731466","Mapping"
"Blocked","Female","cave","11","F_cave.wav","space","0.0386466272175","334","242447.261081","249330.24459","250097.37008","250863.773341","251630.675608","252397.2282","253146.739784","239313.663013","243213.562315","243963.270224","244730.25133","245497.045386","246263.48884","247030.265583","247796.937206","248563.386226","252406.979832","Mapping"
"Blocked","Female","cave","11","F_depth.wav","None","734.290986788","334","242447.261081","249330.24459","250097.37008","250863.773341","251630.675608","252397.2282","253146.739784","253913.344008","243213.562315","243963.270224","244730.25133","245497.045386","246263.48884","247030.265583","247796.937206","248563.386226","253156.411031","Mapping"
"Blocked","Female","ball","1","F_knife.wav","space","53.4198731184","334","257047.081822","249330.24459","250097.37008","250863.773341","251630.675608","252397.2282","253146.739784","253913.344008","243213.562315","243963.270224","244730.25133","245497.045386","246263.48884","247030.265583","247796.937206","248563.386226","253922.924049","Mapping"
"Blocked","Female","ball","1","F_romp.wav","None","721.000867896","334","257047.081822","249330.24459","250097.37008","250863.773341","251630.675608","252397.2282","253146.739784","253913.344008","257813.796421","243963.270224","244730.25133","245497.045386","246263.48884","247030.265583","247796.937206","248563.386226","257056.972582","Mapping"
"Blocked","Female","ball","1","F_bluff.wav","None","719.639887568","334","257047.081822","249330.24459","250097.37008","250863.773341","251630.675608","252397.2282","253146.739784","253913.344008","257813.796421","258563.734045","244730.25133","245497.045386","246263.48884","247030.265583","247796.937206","248563.386226","257823.826309","Mapping"
"Blocked","Female","ball","1","F_knife.wav","None","735.633726232","334","257047.081822","249330.24459","250097.37008","250863.773341","251630.675608","252397.2282","253146.739784","253913.344008","257813.796421","258563.734045","259329.697972","245497.045386","246263.48884","247030.265583","247796.937206","248563.386226","258573.269874","Mapping"
"Blocked","Female","ball","1","F_park.wav","None","735.597552732","334","257047.081822","249330.24459","250097.37008","250863.773341","251630.675608","252397.2282","253146.739784","253913.344008","257813.796421","258563.734045","259329.697972","260096.666402","246263.48884","247030.265583","247796.937206","248563.386226","259338.772824","Mapping"
"Blocked","Female","ball","1","F_ball.wav","None","733.717161696","334","257047.081822","249330.24459","250097.37008","250863.773341","251630.675608","252397.2282","253146.739784","253913.344008","257813.796421","258563.734045","259329.697972","260096.666402","260863.186222","247030.265583","247796.937206","248563.386226","260105.967877","Mapping"
"Blocked","Female","ball","1","F_park.wav","space","591.91982029","334","257047.081822","249330.24459","250097.37008","250863.773341","251630.675608","252397.2282","253146.739784","253913.344008","257813.796421","258563.734045","259329.697972","260096.666402","260863.186222","261630.193298","247796.937206","248563.386226","260872.311777","Mapping"
"Blocked","Female","ball","1","F_romp.wav","None","729.163040407","334","257047.081822","249330.24459","250097.37008","250863.773341","251630.675608","252397.2282","253146.739784","253913.344008","257813.796421","258563.734045","259329.697972","260096.666402","260863.186222","261630.193298","262396.703224","248563.386226","261639.769319","Mapping"
"Blocked","Female","ball","1","F_ball.wav","None","728.32363518","334","257047.081822","249330.24459","250097.37008","250863.773341","251630.675608","252397.2282","253146.739784","253913.344008","257813.796421","258563.734045","259329.697972","260096.666402","260863.186222","261630.193298","262396.703224","263163.286733","262406.16176","Mapping"
"Blocked","Female","ball","1","F_dime.wav","space","579.331215005","334","257047.081822","263930.00226","250097.37008","250863.773341","251630.675608","252397.2282","253146.739784","253913.344008","257813.796421","258563.734045","259329.697972","260096.666402","260863.186222","261630.193298","262396.703224","263163.286733","263172.825655","Mapping"
"Blocked","Female","ball","1","F_knife.wav","None","724.5062734","334","257047.081822","263930.00226","264696.954613","250863.773341","251630.675608","252397.2282","253146.739784","253913.344008","257813.796421","258563.734045","259329.697972","260096.666402","260863.186222","261630.193298","262396.703224","263163.286733","263939.432352","Mapping"
"Blocked","Female","ball","1","F_ball.wav","None","722.479334101","334","257047.081822","263930.00226","264696.954613","265463.866155","251630.675608","252397.2282","253146.739784","253913.344008","257813.796421","258563.734045","259329.697972","260096.666402","260863.186222","261630.193298","262396.703224","263163.286733","264707.121774","Mapping"
"Blocked","Female","ball","1","F_gnash.wav","space","526.706535369","334","257047.081822","263930.00226","264696.954613","265463.866155","266230.350111","252397.2282","253146.739784","253913.344008","257813.796421","258563.734045","259329.697972","260096.666402","260863.186222","261630.193298","262396.703224","263163.286733","265473.441868","Mapping"
"Blocked","Female","ball","1","F_ball.wav","None","718.643422239","334","257047.081822","263930.00226","264696.954613","265463.866155","266230.350111","266979.643727","253146.739784","253913.344008","257813.796421","258563.734045","259329.697972","260096.666402","260863.186222","261630.193298","262396.703224","263163.286733","266240.601985","Mapping"
"Blocked","Female","ball","1","F_greet.wav","space","459.02141137","334","257047.081822","263930.00226","264696.954613","265463.866155","266230.350111","266979.643727","267746.618959","253913.344008","257813.796421","258563.734045","259329.697972","260096.666402","260863.186222","261630.193298","262396.703224","263163.286733","266989.123596","Mapping"
"Blocked","Female","ball","1","F_priest.wav","None","732.662880793","334","257047.081822","263930.00226","264696.954613","265463.866155","266230.350111","266979.643727","267746.618959","268513.118373","257813.796421","258563.734045","259329.697972","260096.666402","260863.186222","261630.193298","262396.703224","263163.286733","267756.114286","Mapping"
"Blocked","Female","done","20","F_dime.wav","None","732.044225559","334","271647.11311","263930.00226","264696.954613","265463.866155","266230.350111","266979.643727","267746.618959","268513.118373","257813.796421","258563.734045","259329.697972","260096.666402","260863.186222","261630.193298","262396.703224","263163.286733","268522.208374","Mapping"
"Blocked","Female","done","20","F_jaw.wav","None","720.638207626","334","271647.11311","263930.00226","264696.954613","265463.866155","266230.350111","266979.643727","267746.618959","268513.118373","272413.498131","258563.734045","259329.697972","260096.666402","260863.186222","261630.193298","262396.703224","263163.286733","271656.531454","Mapping"
"Blocked","Female","done","20","F_done.wav","None","719.303198159","334","271647.11311","263930.00226","264696.954613","265463.866155","266230.350111","266979.643727","267746.618959","268513.118373","272413.498131","273163.068766","259329.697972","260096.666402","260863.186222","261630.193298","262396.703224","263163.286733","272423.354881","Mapping"
"Blocked","Female","done","20","F_greet.wav","space","579.897002317","334","271647.11311","263930.00226","264696.954613","265463.866155","266230.350111","266979.643727","267746.618959","268513.118373","272413.498131","273163.068766","273929.825104","260096.666402","260863.186222","261630.193298","262396.703224","263163.286733","273172.088585","Mapping"
"Blocked","Female","done","20","F_dime.wav","None","732.681740541","334","271647.11311","263930.00226","264696.954613","265463.866155","266230.350111","266979.643727","267746.618959","268513.118373","272413.498131","273163.068766","273929.825104","274696.442622","260863.186222","261630.193298","262396.703224","263163.286733","273939.323213","Mapping"
"Blocked","Female","done","20","F_jolt.wav","None","731.648483779","334","271647.11311","263930.00226","264696.954613","265463.866155","266230.350111","266979.643727","267746.618959","268513.118373","272413.498131","273163.068766","273929.825104","274696.442622","275462.973572","261630.193298","262396.703224","263163.286733","274705.953408","Mapping"
"Blocked","Female","done","20","F_done.wav","None","730.995200574","334","271647.11311","263930.00226","264696.954613","265463.866155","266230.350111","266979.643727","267746.618959","268513.118373","272413.498131","273163.068766","273929.825104","274696.442622","275462.973572","276229.785251","262396.703224","263163.286733","275472.155707","Mapping"
"Blocked","Female","done","20","F_reek.wav","space","704.495347571","334","271647.11311","263930.00226","264696.954613","265463.866155","266230.350111","266979.643727","267746.618959","268513.118373","272413.498131","273163.068766","273929.825104","274696.442622","275462.973572","276229.785251","276996.398441","263163.286733","276239.417851","Mapping"
"Blocked","Female","done","20","F_bluff.wav","None","726.319574751","334","271647.11311","263930.00226","264696.954613","265463.866155","266230.350111","266979.643727","267746.618959","268513.118373","272413.498131","273163.068766","273929.825104","274696.442622","275462.973572","276229.785251","276996.398441","277762.915788","277006.33434","Mapping"
"Blocked","Female","done","20","F_done.wav","None","726.189412177","334","271647.11311","278530.258008","264696.954613","265463.866155","266230.350111","266979.643727","267746.618959","268513.118373","272413.498131","273163.068766","273929.825104","274696.442622","275462.973572","276229.785251","276996.398441","277762.915788","277771.944263","Mapping"
"Blocked","Female","done","20","F_dime.wav","space","571.954960935","334","271647.11311","278530.258008","279296.902734","265463.866155","266230.350111","266979.643727","267746.618959","268513.118373","272413.498131","273163.068766","273929.825104","274696.442622","275462.973572","276229.785251","276996.398441","277762.915788","278539.935129","Mapping"
"Blocked","Female","done","20","F_jaw.wav","None","720.826803241","334","271647.11311","278530.258008","279296.902734","280063.344023","266230.350111","266979.643727","267746.618959","268513.118373","272413.498131","273163.068766","273929.825104","274696.442622","275462.973572","276229.785251","276996.398441","277762.915788","279306.762267","Mapping"
"Blocked","Female","done","20","F_romp.wav","None","719.684099313","334","271647.11311","278530.258008","279296.902734","280063.344023","280829.824269","266979.643727","267746.618959","268513.118373","272413.498131","273163.068766","273929.825104","274696.442622","275462.973572","276229.785251","276996.398441","277762.915788","280073.392462","Mapping"
"Blocked","Female","done","20","F_done.wav","None","719.278772827","334","271647.11311","278530.258008","279296.902734","280063.344023","280829.824269","281579.218367","267746.618959","268513.118373","272413.498131","273163.068766","273929.825104","274696.442622","275462.973572","276229.785251","276996.398441","277762.915788","280839.467072","Mapping"
"Blocked","Female","done","20","F_bluff.wav","space","627.740317956","334","271647.11311","278530.258008","279296.902734","280063.344023","280829.824269","281579.218367","282346.04736","268513.118373","272413.498131","273163.068766","273929.825104","274696.442622","275462.973572","276229.785251","276996.398441","277762.915788","281588.101531","Mapping"
"Blocked","Female","done","20","F_dime.wav","None","733.352646232","334","271647.11311","278530.258008","279296.902734","280063.344023","280829.824269","281579.218367","282346.04736","283112.858729","272413.498131","273163.068766","273929.825104","274696.442622","275462.973572","276229.785251","276996.398441","277762.915788","282354.83468","Mapping"
"Blocked","Female","tile","16","F_cad.wav","None","731.477511115","334","286246.59407","278530.258008","279296.902734","280063.344023","280829.824269","281579.218367","282346.04736","283112.858729","272413.498131","273163.068766","273929.825104","274696.442622","275462.973572","276229.785251","276996.398441","277762.915788","283122.188031","Mapping"
"Blocked","Female","tile","16","F_tile.wav","None","720.444046892","334","286246.59407","278530.258008","279296.902734","280063.344023","280829.824269","281579.218367","282346.04736","283112.858729","287013.029177","273163.068766","273929.825104","274696.442622","275462.973572","276229.785251","276996.398441","277762.915788","286256.445874","Mapping"
"Blocked","Female","tile","16","F_dime.wav","None","719.892172609","334","286246.59407","278530.258008","279296.902734","280063.344023","280829.824269","281579.218367","282346.04736","283112.858729","287013.029177","287763.037911","273929.825104","274696.442622","275462.973572","276229.785251","276996.398441","277762.915788","287022.597778","Mapping"
"Blocked","Female","tile","16","F_dime.wav","space","90.9637021832","334","286246.59407","278530.258008","279296.902734","280063.344023","280829.824269","281579.218367","282346.04736","283112.858729","287013.029177","287763.037911","288529.538562","274696.442622","275462.973572","276229.785251","276996.398441","277762.915788","287772.788306","Mapping"
"Blocked","Female","tile","16","F_depth.wav","None","733.341206796","334","286246.59407","278530.258008","279296.902734","280063.344023","280829.824269","281579.218367","282346.04736","283112.858729","287013.029177","287763.037911","288529.538562","289296.202457","275462.973572","276229.785251","276996.398441","277762.915788","288538.927224","Mapping"
"Blocked","Female","tile","16","F_greet.wav","None","732.387716882","334","286246.59407","278530.258008","279296.902734","280063.344023","280829.824269","281579.218367","282346.04736","283112.858729","287013.029177","287763.037911","288529.538562","289296.202457","290062.763705","276229.785251","276996.398441","277762.915788","289305.76642","Mapping"
"Blocked","Female","tile","16","F_tile.wav","None","732.050099876","334","286246.59407","278530.258008","279296.902734","280063.344023","280829.824269","281579.218367","282346.04736","283112.858729","287013.029177","287763.037911","288529.538562","289296.202457","290062.763705","290828.947145","276996.398441","277762.915788","290071.784761","Mapping"
"Blocked","Female","tile","16","F_romp.wav","space","567.446288187","334","286246.59407","278530.258008","279296.902734","280063.344023","280829.824269","281579.218367","282346.04736","283112.858729","287013.029177","287763.037911","288529.538562","289296.202457","290062.763705","290828.947145","291596.155184","277762.915788","290832.204593","Mapping"
"Blocked","Female","tile","16","F_tile.wav","None","732.307022903","334","286246.59407","278530.258008","279296.902734","280063.344023","280829.824269","281579.218367","282346.04736","283112.858729","287013.029177","287763.037911","288529.538562","289296.202457","290062.763705","290828.947145","291596.155184","292362.666965","291605.626086","Mapping"
"Blocked","Female","tile","16","F_cad.wav","space","547.955390997","334","286246.59407","293129.638796","279296.902734","280063.344023","280829.824269","281579.218367","282346.04736","283112.858729","287013.029177","287763.037911","288529.538562","289296.202457","290062.763705","290828.947145","291596.155184","292362.666965","292371.679982","Mapping"
"Blocked","Female","tile","16","F_depth.wav","None","729.178189766","334","286246.59407","293129.638796","293896.099873","280063.344023","280829.824269","281579.218367","282346.04736","283112.858729","287013.029177","287763.037911","288529.538562","289296.202457","290062.763705","290828.947145","291596.155184","292362.666965","293138.638828","Mapping"
"Blocked","Female","tile","16","F_gnash.wav","None","727.200099733","334","286246.59407","293129.638796","293896.099873","294662.691111","280829.824269","281579.218367","282346.04736","283112.858729","287013.029177","287763.037911","288529.538562","289296.202457","290062.763705","290828.947145","291596.155184","292362.666965","293906.113374","Mapping"
"Blocked","Female","tile","16","F_tile.wav","None","727.105183527","334","286246.59407","293129.638796","293896.099873","294662.691111","295429.501863","281579.218367","282346.04736","283112.858729","287013.029177","287763.037911","288529.538562","289296.202457","290062.763705","290828.947145","291596.155184","292362.666965","294672.009901","Mapping"
