"Condition","Talker","Target","Trial","current_stimulus","response_response","response_time_response","subject_nr","time_Audio1","time_Audio10","time_Audio11","time_Audio12","time_Audio13","time_Audio14","time_Audio15","time_Audio16","time_Audio2","time_Audio3","time_Audio4","time_Audio5","time_Audio6","time_Audio7","time_Audio8","time_Audio9","time_response","title"
"Mixed","Both","cave","17","M_greet.wav","NA","NA","115","208732.163704","NA","NA","NA","NA","NA","NA","NA","NA","NA","NA","NA","NA","NA","NA","NA","NA","Mapping"
"Mixed","Both","cave","17","F_cad.wav","None","717.112715771","115","208732.163704","NA","NA","NA","NA","NA","NA","NA","209482.832128","NA","NA","NA","NA","NA","NA","NA","208745.651841","Mapping"
"Mixed","Both","cave","17","M_tile.wav","None","735.736775583","115","208732.163704","NA","NA","NA","NA","NA","NA","NA","209482.832128","210250.054723","NA","NA","NA","NA","NA","NA","209492.547779","Mapping"
"Mixed","Both","cave","17","F_cling.wav","None","733.915149052","115","208732.163704","NA","NA","NA","NA","NA","NA","NA","209482.832128","210250.054723","211016.835514","NA","NA","NA","NA","NA","210259.699574","Mapping"
"Mixed","Both","cave","17","F_cave.wav","None","733.707078005","115","208732.163704","NA","NA","NA","NA","NA","NA","NA","209482.832128","210250.054723","211016.835514","211784.530829","NA","NA","NA","NA","211026.901763","Mapping"
"Mixed","Both","cave","17","F_tile.wav","space","679.481225998","115","208732.163704","NA","NA","NA","NA","NA","NA","NA","209482.832128","210250.054723","211016.835514","211784.530829","212551.929341","NA","NA","NA","211794.651801","Mapping"
"Mixed","Both","cave","17","F_cling.wav","None","729.758365509","115","208732.163704","NA","NA","NA","NA","NA","NA","NA","209482.832128","210250.054723","211016.835514","211784.530829","212551.929341","213318.86008","NA","NA","212561.882434","Mapping"
"Mixed","Both","cave","17","M_jaw.wav","None","725.417626119","115","208732.163704","NA","NA","NA","NA","NA","NA","NA","209482.832128","210250.054723","211016.835514","211784.530829","212551.929341","213318.86008","214085.837194","NA","213328.920454","Mapping"
"Mixed","Both","cave","17","M_cave.wav","None","724.679020255","115","208732.163704","NA","NA","NA","NA","NA","NA","NA","209482.832128","210250.054723","211016.835514","211784.530829","212551.929341","213318.86008","214085.837194","214853.437903","214095.107331","Mapping"
"Mixed","Both","cave","17","M_jolt.wav","space","378.709724493","115","208732.163704","215620.884336","NA","NA","NA","NA","NA","NA","209482.832128","210250.054723","211016.835514","211784.530829","212551.929341","213318.86008","214085.837194","214853.437903","214863.331326","Mapping"
"Mixed","Both","cave","17","F_cave.wav","space","338.659292771","115","208732.163704","215620.884336","216371.383026","NA","NA","NA","NA","NA","209482.832128","210250.054723","211016.835514","211784.530829","212551.929341","213318.86008","214085.837194","214853.437903","215631.357761","Mapping"
"Mixed","Both","cave","17","M_bluff.wav","None","730.535617564","115","208732.163704","215620.884336","216371.383026","217138.735781","NA","NA","NA","NA","209482.832128","210250.054723","211016.835514","211784.530829","212551.929341","213318.86008","214085.837194","214853.437903","216382.270738","Mapping"
"Mixed","Both","cave","17","F_cling.wav","None","730.147919043","115","208732.163704","215620.884336","216371.383026","217138.735781","217906.018046","NA","NA","NA","209482.832128","210250.054723","211016.835514","211784.530829","212551.929341","213318.86008","214085.837194","214853.437903","217148.304576","Mapping"
"Mixed","Both","cave","17","M_cave.wav","None","725.215738457","115","208732.163704","215620.884336","216371.383026","217138.735781","217906.018046","218673.046791","NA","NA","209482.832128","210250.054723","211016.835514","211784.530829","212551.929341","213318.86008","214085.837194","214853.437903","217916.017823","Mapping"
"Mixed","Both","cave","17","F_tile.wav","space","263.037985802","115","208732.163704","215620.884336","216371.383026","217138.735781","217906.018046","218673.046791","219423.663584","NA","209482.832128","210250.054723","211016.835514","211784.530829","212551.929341","213318.86008","214085.837194","214853.437903","218682.917335","Mapping"
"Mixed","Both","cave","17","M_done.wav","None","733.237758737","115","208732.163704","215620.884336","216371.383026","217138.735781","217906.018046","218673.046791","219423.663584","220190.62153","209482.832128","210250.054723","211016.835514","211784.530829","212551.929341","213318.86008","214085.837194","214853.437903","219433.098509","Mapping"
"Mixed","Both","done","47","F_cave.wav","None","732.248107262","115","223326.78162","215620.884336","216371.383026","217138.735781","217906.018046","218673.046791","219423.663584","220190.62153","209482.832128","210250.054723","211016.835514","211784.530829","212551.929341","213318.86008","214085.837194","214853.437903","220200.007915","Mapping"
"Mixed","Both","done","47","M_done.wav","None","735.408746776","115","223326.78162","215620.884336","216371.383026","217138.735781","217906.018046","218673.046791","219423.663584","220190.62153","224093.407518","210250.054723","211016.835514","211784.530829","212551.929341","213318.86008","214085.837194","214853.437903","223336.593732","Mapping"
"Mixed","Both","done","47","M_ball.wav","space","458.709798695","115","223326.78162","215620.884336","216371.383026","217138.735781","217906.018046","218673.046791","219423.663584","220190.62153","224093.407518","224861.104687","211016.835514","211784.530829","212551.929341","213318.86008","214085.837194","214853.437903","224103.04433","Mapping"
"Mixed","Both","done","47","M_priest.wav","None","728.884034244","115","223326.78162","215620.884336","216371.383026","217138.735781","217906.018046","218673.046791","219423.663584","220190.62153","224093.407518","224861.104687","225628.437037","211784.530829","212551.929341","213318.86008","214085.837194","214853.437903","224871.310062","Mapping"
"Mixed","Both","done","47","M_done.wav","None","727.933956456","115","223326.78162","215620.884336","216371.383026","217138.735781","217906.018046","218673.046791","219423.663584","220190.62153","224093.407518","224861.104687","225628.437037","226395.491753","212551.929341","213318.86008","214085.837194","214853.437903","225637.62339","Mapping"
"Mixed","Both","done","47","M_greet.wav","None","722.879653928","115","223326.78162","215620.884336","216371.383026","217138.735781","217906.018046","218673.046791","219423.663584","220190.62153","224093.407518","224861.104687","225628.437037","226395.491753","227145.762894","213318.86008","214085.837194","214853.437903","226405.358896","Mapping"
"Mixed","Both","done","47","F_dime.wav","space","0.0377186734113","115","223326.78162","215620.884336","216371.383026","217138.735781","217906.018046","218673.046791","219423.663584","220190.62153","224093.407518","224861.104687","225628.437037","226395.491753","227145.762894","227913.262195","214085.837194","214853.437903","227155.716605","Mapping"
"Mixed","Both","done","47","F_priest.wav","None","733.58031852","115","223326.78162","215620.884336","216371.383026","217138.735781","217906.018046","218673.046791","219423.663584","220190.62153","224093.407518","224861.104687","225628.437037","226395.491753","227145.762894","227913.262195","228680.39173","214853.437903","227922.960223","Mapping"
"Mixed","Both","done","47","M_depth.wav","None","732.347659832","115","223326.78162","215620.884336","216371.383026","217138.735781","217906.018046","218673.046791","219423.663584","220190.62153","224093.407518","224861.104687","225628.437037","226395.491753","227145.762894","227913.262195","228680.39173","229447.207767","228689.806559","Mapping"
"Mixed","Both","done","47","F_done.wav","space","321.408872915","115","223326.78162","230214.599786","216371.383026","217138.735781","217906.018046","218673.046791","219423.663584","220190.62153","224093.407518","224861.104687","225628.437037","226395.491753","227145.762894","227913.262195","228680.39173","229447.207767","229456.192232","Mapping"
"Mixed","Both","done","47","M_greet.wav","space","641.145138994","115","223326.78162","230214.599786","230982.290463","217138.735781","217906.018046","218673.046791","219423.663584","220190.62153","224093.407518","224861.104687","225628.437037","226395.491753","227145.762894","227913.262195","228680.39173","229447.207767","230224.413135","Mapping"
"Mixed","Both","done","47","F_cad.wav","None","722.732489259","115","223326.78162","230214.599786","230982.290463","231749.616939","217906.018046","218673.046791","219423.663584","220190.62153","224093.407518","224861.104687","225628.437037","226395.491753","227145.762894","227913.262195","228680.39173","229447.207767","230992.717822","Mapping"
"Mixed","Both","done","47","F_reek.wav","None","719.316475763","115","223326.78162","230214.599786","230982.290463","231749.616939","232499.807697","218673.046791","219423.663584","220190.62153","224093.407518","224861.104687","225628.437037","226395.491753","227145.762894","227913.262195","228680.39173","229447.207767","231759.312184","Mapping"
"Mixed","Both","done","47","F_done.wav","None","734.682816859","115","223326.78162","230214.599786","230982.290463","231749.616939","232499.807697","233266.776772","219423.663584","220190.62153","224093.407518","224861.104687","225628.437037","226395.491753","227145.762894","227913.262195","228680.39173","229447.207767","232509.449456","Mapping"
"Mixed","Both","done","47","M_dime.wav","space","541.830011207","115","223326.78162","230214.599786","230982.290463","231749.616939","232499.807697","233266.776772","234034.055326","220190.62153","224093.407518","224861.104687","225628.437037","226395.491753","227145.762894","227913.262195","228680.39173","229447.207767","233275.67096","Mapping"
"Mixed","Both","done","47","F_knife.wav","None","729.277297811","115","223326.78162","230214.599786","230982.290463","231749.616939","232499.807697","233266.776772","234034.055326","234801.544116","224093.407518","224861.104687","225628.437037","226395.491753","227145.762894","227913.262195","228680.39173","229447.207767","234042.907467","Mapping"
"Mixed","Both","ball","3","F_jaw.wav","None","726.613184466","115","237920.468627","230214.599786","230982.290463","231749.616939","232499.807697","233266.776772","234034.055326","234801.544116","224093.407518","224861.104687","225628.437037","226395.491753","227145.762894","227913.262195","228680.39173","229447.207767","234811.300886","Mapping"
"Mixed","Both","ball","3","M_bluff.wav","None","721.163145026","115","237920.468627","230214.599786","230982.290463","231749.616939","232499.807697","233266.776772","234034.055326","234801.544116","238671.120974","224861.104687","225628.437037","226395.491753","227145.762894","227913.262195","228680.39173","229447.207767","237930.00465","Mapping"
"Mixed","Both","ball","3","F_cad.wav","None","732.217190314","115","237920.468627","230214.599786","230982.290463","231749.616939","232499.807697","233266.776772","234034.055326","234801.544116","238671.120974","239438.431064","225628.437037","226395.491753","227145.762894","227913.262195","228680.39173","229447.207767","238681.607075","Mapping"
"Mixed","Both","ball","3","M_cave.wav","None","728.394618964","115","237920.468627","230214.599786","230982.290463","231749.616939","232499.807697","233266.776772","234034.055326","234801.544116","238671.120974","239438.431064","240205.591515","226395.491753","227145.762894","227913.262195","228680.39173","229447.207767","239448.173921","Mapping"
"Mixed","Both","ball","3","F_cling.wav","None","729.22226564","115","237920.468627","230214.599786","230982.290463","231749.616939","232499.807697","233266.776772","234034.055326","234801.544116","238671.120974","239438.431064","240205.591515","240973.034857","227145.762894","227913.262195","228680.39173","229447.207767","240210.152693","Mapping"
"Mixed","Both","ball","3","M_lash.wav","None","718.934960641","115","237920.468627","230214.599786","230982.290463","231749.616939","232499.807697","233266.776772","234034.055326","234801.544116","238671.120974","239438.431064","240205.591515","240973.034857","241723.226851","227913.262195","228680.39173","229447.207767","240983.114091","Mapping"
"Mixed","Both","ball","3","M_ball.wav","None","735.282605638","115","237920.468627","230214.599786","230982.290463","231749.616939","232499.807697","233266.776772","234034.055326","234801.544116","238671.120974","239438.431064","240205.591515","240973.034857","241723.226851","242490.601248","228680.39173","229447.207767","241732.693311","Mapping"
"Mixed","Both","ball","3","F_greet.wav","space","612.965887478","115","237920.468627","230214.599786","230982.290463","231749.616939","232499.807697","233266.776772","234034.055326","234801.544116","238671.120974","239438.431064","240205.591515","240973.034857","241723.226851","242490.601248","243257.793235","229447.207767","242500.243935","Mapping"
"Mixed","Both","ball","3","F_ball.wav","None","728.479640566","115","237920.468627","230214.599786","230982.290463","231749.616939","232499.807697","233266.776772","234034.055326","234801.544116","238671.120974","239438.431064","240205.591515","240973.034857","241723.226851","242490.601248","243257.793235","244025.130222","243267.929665","Mapping"
"Mixed","Both","ball","3","M_knife.wav","None","727.136608388","115","237920.468627","244792.276143","230982.290463","231749.616939","232499.807697","233266.776772","234034.055326","234801.544116","238671.120974","239438.431064","240205.591515","240973.034857","241723.226851","242490.601248","243257.793235","244025.130222","244035.188123","Mapping"
"Mixed","Both","ball","3","M_depth.wav","space","119.060854449","115","237920.468627","244792.276143","245559.440613","231749.616939","232499.807697","233266.776772","234034.055326","234801.544116","238671.120974","239438.431064","240205.591515","240973.034857","241723.226851","242490.601248","243257.793235","244025.130222","244802.101549","Mapping"
"Mixed","Both","ball","3","M_ball.wav","None","721.892475805","115","237920.468627","244792.276143","245559.440613","246309.934666","232499.807697","233266.776772","234034.055326","234801.544116","238671.120974","239438.431064","240205.591515","240973.034857","241723.226851","242490.601248","243257.793235","244025.130222","245568.948811","Mapping"
"Mixed","Both","ball","3","M_romp.wav","space","505.424687552","115","237920.468627","244792.276143","245559.440613","246309.934666","247077.167773","233266.776772","234034.055326","234801.544116","238671.120974","239438.431064","240205.591515","240973.034857","241723.226851","242490.601248","243257.793235","244025.130222","246319.680306","Mapping"
"Mixed","Both","ball","3","F_ball.wav","None","732.276860021","115","237920.468627","244792.276143","245559.440613","246309.934666","247077.167773","247844.109332","234034.055326","234801.544116","238671.120974","239438.431064","240205.591515","240973.034857","241723.226851","242490.601248","243257.793235","244025.130222","247086.916504","Mapping"
"Mixed","Both","ball","3","F_cad.wav","space","563.730958253","115","237920.468627","244792.276143","245559.440613","246309.934666","247077.167773","247844.109332","248611.782696","234801.544116","238671.120974","239438.431064","240205.591515","240973.034857","241723.226851","242490.601248","243257.793235","244025.130222","247853.289192","Mapping"
"Mixed","Both","ball","3","F_greet.wav","None","723.091125845","115","237920.468627","244792.276143","245559.440613","246309.934666","247077.167773","247844.109332","248611.782696","249362.03065","238671.120974","239438.431064","240205.591515","240973.034857","241723.226851","242490.601248","243257.793235","244025.130222","248621.355201","Mapping"
"Mixed","Both","tile","34","F_reek.wav","None","735.470271502","115","252481.059969","244792.276143","245559.440613","246309.934666","247077.167773","247844.109332","248611.782696","249362.03065","238671.120974","239438.431064","240205.591515","240973.034857","241723.226851","242490.601248","243257.793235","244025.130222","249371.856983","Mapping"
"Mixed","Both","tile","34","M_tile.wav","None","734.318924391","115","252481.059969","244792.276143","245559.440613","246309.934666","247077.167773","247844.109332","248611.782696","249362.03065","253247.965047","239438.431064","240205.591515","240973.034857","241723.226851","242490.601248","243257.793235","244025.130222","252491.396123","Mapping"
"Mixed","Both","tile","34","F_park.wav","space","591.40966439","115","252481.059969","244792.276143","245559.440613","246309.934666","247077.167773","247844.109332","248611.782696","249362.03065","253247.965047","254015.462184","240205.591515","240973.034857","241723.226851","242490.601248","243257.793235","244025.130222","253257.430579","Mapping"
"Mixed","Both","tile","34","M_cave.wav","None","730.71277167","115","252481.059969","244792.276143","245559.440613","246309.934666","247077.167773","247844.109332","248611.782696","249362.03065","253247.965047","254015.462184","254783.099684","240973.034857","241723.226851","242490.601248","243257.793235","244025.130222","254024.898963","Mapping"
"Mixed","Both","tile","34","F_tile.wav","None","725.383926649","115","252481.059969","244792.276143","245559.440613","246309.934666","247077.167773","247844.109332","248611.782696","249362.03065","253247.965047","254015.462184","254783.099684","255550.171404","241723.226851","242490.601248","243257.793235","244025.130222","254793.150783","Mapping"
"Mixed","Both","tile","34","M_gnash.wav","space","585.008001304","115","252481.059969","244792.276143","245559.440613","246309.934666","247077.167773","247844.109332","248611.782696","249362.03065","253247.965047","254015.462184","254783.099684","255550.171404","256317.253326","242490.601248","243257.793235","244025.130222","255559.805124","Mapping"
"Mixed","Both","tile","34","F_jolt.wav","None","720.336116683","115","252481.059969","244792.276143","245559.440613","246309.934666","247077.167773","247844.109332","248611.782696","249362.03065","253247.965047","254015.462184","254783.099684","255550.171404","256317.253326","257067.372356","243257.793235","244025.130222","256326.876844","Mapping"
"Mixed","Both","tile","34","M_jolt.wav","None","736.487129892","115","252481.059969","244792.276143","245559.440613","246309.934666","247077.167773","247844.109332","248611.782696","249362.03065","253247.965047","254015.462184","254783.099684","255550.171404","256317.253326","257067.372356","257835.235241","244025.130222","257076.892303","Mapping"
"Mixed","Both","tile","34","M_tile.wav","None","730.963508104","115","252481.059969","244792.276143","245559.440613","246309.934666","247077.167773","247844.109332","248611.782696","249362.03065","253247.965047","254015.462184","254783.099684","255550.171404","256317.253326","257067.372356","257835.235241","258602.455053","257845.432578","Mapping"
"Mixed","Both","tile","34","M_reek.wav","space","572.600102896","115","252481.059969","259369.619524","245559.440613","246309.934666","247077.167773","247844.109332","248611.782696","249362.03065","253247.965047","254015.462184","254783.099684","255550.171404","256317.253326","257067.372356","257835.235241","258602.455053","258612.131748","Mapping"
"Mixed","Both","tile","34","F_cad.wav","None","725.587978501","115","252481.059969","259369.619524","260136.751222","246309.934666","247077.167773","247844.109332","248611.782696","249362.03065","253247.965047","254015.462184","254783.099684","255550.171404","256317.253326","257067.372356","257835.235241","258602.455053","259379.483576","Mapping"
"Mixed","Both","tile","34","M_jolt.wav","None","721.563519481","115","252481.059969","259369.619524","260136.751222","260887.329679","247077.167773","247844.109332","248611.782696","249362.03065","253247.965047","254015.462184","254783.099684","255550.171404","256317.253326","257067.372356","257835.235241","258602.455053","260146.565807","Mapping"
"Mixed","Both","tile","34","M_romp.wav","None","734.138987755","115","252481.059969","259369.619524","260136.751222","260887.329679","261654.770856","247844.109332","248611.782696","249362.03065","253247.965047","254015.462184","254783.099684","255550.171404","256317.253326","257067.372356","257835.235241","258602.455053","260896.940521","Mapping"
"Mixed","Both","tile","34","F_ball.wav","None","729.186401986","115","252481.059969","259369.619524","260136.751222","260887.329679","261654.770856","262421.682426","248611.782696","249362.03065","253247.965047","254015.462184","254783.099684","255550.171404","256317.253326","257067.372356","257835.235241","258602.455053","261664.756102","Mapping"
"Mixed","Both","tile","34","F_tile.wav","None","725.766060117","115","252481.059969","259369.619524","260136.751222","260887.329679","261654.770856","262421.682426","263188.665105","249362.03065","253247.965047","254015.462184","254783.099684","255550.171404","256317.253326","257067.372356","257835.235241","258602.455053","262430.963075","Mapping"
"Mixed","Both","tile","34","F_bluff.wav","space","658.92300196","115","252481.059969","259369.619524","260136.751222","260887.329679","261654.770856","262421.682426","263188.665105","263956.368149","253247.965047","254015.462184","254783.099684","255550.171404","256317.253326","257067.372356","257835.235241","258602.455053","263197.675849","Mapping"
"Mixed","Both","tile","30","F_knife.wav","None","718.844373987","115","267058.40335","259369.619524","260136.751222","260887.329679","261654.770856","262421.682426","263188.665105","263956.368149","253247.965047","254015.462184","254783.099684","255550.171404","256317.253326","257067.372356","257835.235241","258602.455053","263966.710795","Mapping"
"Mixed","Both","tile","30","F_knife.wav","None","735.163266218","115","267058.40335","259369.619524","260136.751222","260887.329679","261654.770856","262421.682426","263188.665105","263956.368149","267825.344909","254015.462184","254783.099684","255550.171404","256317.253326","257067.372356","257835.235241","258602.455053","267067.919277","Mapping"
"Mixed","Both","tile","30","M_cad.wav","None","731.344404892","115","267058.40335","259369.619524","260136.751222","260887.329679","261654.770856","262421.682426","263188.665105","263956.368149","267825.344909","268593.15338","254783.099684","255550.171404","256317.253326","257067.372356","257835.235241","258602.455053","267834.75912","Mapping"
"Mixed","Both","tile","30","M_lash.wav","None","729.114983835","115","267058.40335","259369.619524","260136.751222","260887.329679","261654.770856","262421.682426","263188.665105","263956.368149","267825.344909","268593.15338","269360.002807","255550.171404","256317.253326","257067.372356","257835.235241","258602.455053","268603.268478","Mapping"
"Mixed","Both","tile","30","F_gnash.wav","None","726.471275681","115","267058.40335","259369.619524","260136.751222","260887.329679","261654.770856","262421.682426","263188.665105","263956.368149","267825.344909","268593.15338","269360.002807","270128.12323","256317.253326","257067.372356","257835.235241","258602.455053","269369.305098","Mapping"
"Mixed","Both","tile","30","F_greet.wav","None","724.073357254","115","267058.40335","259369.619524","260136.751222","260887.329679","261654.770856","262421.682426","263188.665105","263956.368149","267825.344909","268593.15338","269360.002807","270128.12323","270894.666579","257067.372356","257835.235241","258602.455053","270137.728507","Mapping"
"Mixed","Both","tile","30","M_tile.wav","None","720.752877132","115","267058.40335","259369.619524","260136.751222","260887.329679","261654.770856","262421.682426","263188.665105","263956.368149","267825.344909","268593.15338","269360.002807","270128.12323","270894.666579","271645.376742","257835.235241","258602.455053","270904.126238","Mapping"
"Mixed","Both","tile","30","F_cave.wav","space","577.00824122","115","267058.40335","259369.619524","260136.751222","260887.329679","261654.770856","262421.682426","263188.665105","263956.368149","267825.344909","268593.15338","269360.002807","270128.12323","270894.666579","271645.376742","272412.460828","258602.455053","271655.321796","Mapping"
"Mixed","Both","tile","30","M_tile.wav","None","728.435429337","115","267058.40335","259369.619524","260136.751222","260887.329679","261654.770856","262421.682426","263188.665105","263956.368149","267825.344909","268593.15338","269360.002807","270128.12323","270894.666579","271645.376742","272412.460828","273179.847592","272421.777032","Mapping"
"Mixed","Both","tile","30","M_knife.wav","space","634.863124491","115","267058.40335","273930.313201","260136.751222","260887.329679","261654.770856","262421.682426","263188.665105","263956.368149","267825.344909","268593.15338","269360.002807","270128.12323","270894.666579","271645.376742","272412.460828","273179.847592","273189.356408","Mapping"
"Mixed","Both","tile","30","M_done.wav","None","735.675560027","115","267058.40335","273930.313201","274697.240848","260887.329679","261654.770856","262421.682426","263188.665105","263956.368149","267825.344909","268593.15338","269360.002807","270128.12323","270894.666579","271645.376742","272412.460828","273179.847592","273940.222701","Mapping"
"Mixed","Both","tile","30","F_tile.wav","None","732.530997331","115","267058.40335","273930.313201","274697.240848","275464.67646","261654.770856","262421.682426","263188.665105","263956.368149","267825.344909","268593.15338","269360.002807","270128.12323","270894.666579","271645.376742","272412.460828","273179.847592","274706.760794","Mapping"
"Mixed","Both","tile","30","F_priest.wav","space","645.565025763","115","267058.40335","273930.313201","274697.240848","275464.67646","276231.966145","262421.682426","263188.665105","263956.368149","267825.344909","268593.15338","269360.002807","270128.12323","270894.666579","271645.376742","272412.460828","273179.847592","275474.621206","Mapping"
"Mixed","Both","tile","30","F_tile.wav","None","724.347281408","115","267058.40335","273930.313201","274697.240848","275464.67646","276231.966145","276999.253047","263188.665105","263956.368149","267825.344909","268593.15338","269360.002807","270128.12323","270894.666579","271645.376742","272412.460828","273179.847592","276241.342946","Mapping"
"Mixed","Both","tile","30","M_park.wav","space","671.311731865","115","267058.40335","273930.313201","274697.240848","275464.67646","276231.966145","276999.253047","277749.447205","263956.368149","267825.344909","268593.15338","269360.002807","270128.12323","270894.666579","271645.376742","272412.460828","273179.847592","277008.837919","Mapping"
"Mixed","Both","tile","30","M_park.wav","None","734.693637787","115","267058.40335","273930.313201","274697.240848","275464.67646","276231.966145","276999.253047","277749.447205","278516.698862","267825.344909","268593.15338","269360.002807","270128.12323","270894.666579","271645.376742","272412.460828","273179.847592","277759.491503","Mapping"
"Mixed","Both","ball","7","F_tile.wav","None","730.775842239","115","281635.655526","273930.313201","274697.240848","275464.67646","276231.966145","276999.253047","277749.447205","278516.698862","267825.344909","268593.15338","269360.002807","270128.12323","270894.666579","271645.376742","272412.460828","273179.847592","278526.361644","Mapping"
"Mixed","Both","ball","7","M_jaw.wav","None","735.346294547","115","281635.655526","273930.313201","274697.240848","275464.67646","276231.966145","276999.253047","277749.447205","278516.698862","282403.103505","268593.15338","269360.002807","270128.12323","270894.666579","271645.376742","272412.460828","273179.847592","281645.25802","Mapping"
"Mixed","Both","ball","7","F_ball.wav","None","731.086248386","115","281635.655526","273930.313201","274697.240848","275464.67646","276231.966145","276999.253047","277749.447205","278516.698862","282403.103505","283170.5048","269360.002807","270128.12323","270894.666579","271645.376742","272412.460828","273179.847592","282412.421564","Mapping"
"Mixed","Both","ball","7","F_reek.wav","space","539.021824894","115","281635.655526","273930.313201","274697.240848","275464.67646","276231.966145","276999.253047","277749.447205","278516.698862","282403.103505","283170.5048","283937.715646","270128.12323","270894.666579","271645.376742","272412.460828","273179.847592","283180.976988","Mapping"
"Mixed","Both","ball","7","M_ball.wav","None","721.493647179","115","281635.655526","273930.313201","274697.240848","275464.67646","276231.966145","276999.253047","277749.447205","278516.698862","282403.103505","283170.5048","283937.715646","284688.034399","270894.666579","271645.376742","272412.460828","273179.847592","283947.339164","Mapping"
"Mixed","Both","ball","7","M_cad.wav","space","566.707641927","115","281635.655526","273930.313201","274697.240848","275464.67646","276231.966145","276999.253047","277749.447205","278516.698862","282403.103505","283170.5048","283937.715646","284688.034399","285455.284201","271645.376742","272412.460828","273179.847592","284697.2662","Mapping"
"Mixed","Both","ball","7","F_jolt.wav","None","729.933355433","115","281635.655526","273930.313201","274697.240848","275464.67646","276231.966145","276999.253047","277749.447205","278516.698862","282403.103505","283170.5048","283937.715646","284688.034399","285455.284201","286222.617169","272412.460828","273179.847592","285464.622356","Mapping"
"Mixed","Both","ball","7","F_tile.wav","None","725.033946808","115","281635.655526","273930.313201","274697.240848","275464.67646","276231.966145","276999.253047","277749.447205","278516.698862","282403.103505","283170.5048","283937.715646","284688.034399","285455.284201","286222.617169","286989.917365","273179.847592","286232.682181","Mapping"
"Mixed","Both","ball","7","F_ball.wav","None","720.741437857","115","281635.655526","273930.313201","274697.240848","275464.67646","276231.966145","276999.253047","277749.447205","278516.698862","282403.103505","283170.5048","283937.715646","284688.034399","285455.284201","286222.617169","286989.917365","287740.447591","286999.918688","Mapping"
"Mixed","Both","ball","7","M_gnash.wav","space","505.621937678","115","281635.655526","288507.232092","274697.240848","275464.67646","276231.966145","276999.253047","277749.447205","278516.698862","282403.103505","283170.5048","283937.715646","284688.034399","285455.284201","286222.617169","286989.917365","287740.447591","287750.205907","Mapping"
"Mixed","Both","ball","7","M_priest.wav","None","731.174052518","115","281635.655526","288507.232092","289274.825381","275464.67646","276231.966145","276999.253047","277749.447205","278516.698862","282403.103505","283170.5048","283937.715646","284688.034399","285455.284201","286222.617169","286989.917365","287740.447591","288516.209137","Mapping"
"Mixed","Both","ball","7","M_ball.wav","None","725.940431701","115","281635.655526","288507.232092","289274.825381","290042.010875","276231.966145","276999.253047","277749.447205","278516.698862","282403.103505","283170.5048","283937.715646","284688.034399","285455.284201","286222.617169","286989.917365","287740.447591","289284.404379","Mapping"
"Mixed","Both","ball","7","M_reek.wav","None","721.827859379","115","281635.655526","288507.232092","289274.825381","290042.010875","290792.404139","276999.253047","277749.447205","278516.698862","282403.103505","283170.5048","283937.715646","284688.034399","285455.284201","286222.617169","286989.917365","287740.447591","290051.649543","Mapping"
"Mixed","Both","ball","7","F_cad.wav","space","45.5094370918","115","281635.655526","288507.232092","289274.825381","290042.010875","290792.404139","291559.82151","277749.447205","278516.698862","282403.103505","283170.5048","283937.715646","284688.034399","285455.284201","286222.617169","286989.917365","287740.447591","290802.231709","Mapping"
"Mixed","Both","ball","7","F_depth.wav","None","730.378559463","115","281635.655526","288507.232092","289274.825381","290042.010875","290792.404139","291559.82151","292327.111813","278516.698862","282403.103505","283170.5048","283937.715646","284688.034399","285455.284201","286222.617169","286989.917365","287740.447591","291569.677215","Mapping"
"Mixed","Both","ball","7","M_cad.wav","None","729.293065451","115","281635.655526","288507.232092","289274.825381","290042.010875","290792.404139","291559.82151","292327.111813","293094.263917","282403.103505","283170.5048","283937.715646","284688.034399","285455.284201","286222.617169","286989.917365","287740.447591","292337.351815","Mapping"
"Mixed","Both","ball","5","F_jaw.wav","None","725.100727417","115","296196.45463","288507.232092","289274.825381","290042.010875","290792.404139","291559.82151","292327.111813","293094.263917","282403.103505","283170.5048","283937.715646","284688.034399","285455.284201","286222.617169","286989.917365","287740.447591","293104.915424","Mapping"
"Mixed","Both","ball","5","M_cad.wav","None","735.057839425","115","296196.45463","288507.232092","289274.825381","290042.010875","290792.404139","291559.82151","292327.111813","293094.263917","296963.721127","283170.5048","283937.715646","284688.034399","285455.284201","286222.617169","286989.917365","287740.447591","296206.237989","Mapping"
"Mixed","Both","ball","5","M_cad.wav","None","731.069244066","115","296196.45463","288507.232092","289274.825381","290042.010875","290792.404139","291559.82151","292327.111813","293094.263917","296963.721127","297731.051931","283937.715646","284688.034399","285455.284201","286222.617169","286989.917365","287740.447591","296973.886928","Mapping"
"Mixed","Both","ball","5","M_cad.wav","None","727.694040943","115","296196.45463","288507.232092","289274.825381","290042.010875","290792.404139","291559.82151","292327.111813","293094.263917","296963.721127","297731.051931","298498.25412","284688.034399","285455.284201","286222.617169","286989.917365","287740.447591","297740.426567","Mapping"
"Mixed","Both","ball","5","M_ball.wav","None","723.547150817","115","296196.45463","288507.232092","289274.825381","290042.010875","290792.404139","291559.82151","292327.111813","293094.263917","296963.721127","297731.051931","298498.25412","299248.915124","285455.284201","286222.617169","286989.917365","287740.447591","298507.704194","Mapping"
"Mixed","Both","ball","5","M_cling.wav","space","476.980477804","115","296196.45463","288507.232092","289274.825381","290042.010875","290792.404139","291559.82151","292327.111813","293094.263917","296963.721127","297731.051931","298498.25412","299248.915124","300015.838443","286222.617169","286989.917365","287740.447591","299258.48732","Mapping"
"Mixed","Both","ball","5","M_ball.wav","None","734.995696359","115","296196.45463","288507.232092","289274.825381","290042.010875","290792.404139","291559.82151","292327.111813","293094.263917","296963.721127","297731.051931","298498.25412","299248.915124","300015.838443","300783.396796","286989.917365","287740.447591","300025.244924","Mapping"
"Mixed","Both","ball","5","F_lash.wav","space","646.016413193","115","296196.45463","288507.232092","289274.825381","290042.010875","290792.404139","291559.82151","292327.111813","293094.263917","296963.721127","297731.051931","298498.25412","299248.915124","300015.838443","300783.396796","301550.628665","287740.447591","300793.417906","Mapping"
"Mixed","Both","ball","5","F_ball.wav","None","729.473311258","115","296196.45463","288507.232092","289274.825381","290042.010875","290792.404139","291559.82151","292327.111813","293094.263917","296963.721127","297731.051931","298498.25412","299248.915124","300015.838443","300783.396796","301550.628665","302317.670396","301560.275371","Mapping"
"Mixed","Both","ball","5","F_jolt.wav","space","696.08300829","115","296196.45463","303085.016658","289274.825381","290042.010875","290792.404139","291559.82151","292327.111813","293094.263917","296963.721127","297731.051931","298498.25412","299248.915124","300015.838443","300783.396796","301550.628665","302317.670396","302327.309681","Mapping"
"Mixed","Both","ball","5","F_tile.wav","None","721.31401972","115","296196.45463","303085.016658","303835.331702","290042.010875","290792.404139","291559.82151","292327.111813","293094.263917","296963.721127","297731.051931","298498.25412","299248.915124","300015.838443","300783.396796","301550.628665","302317.670396","303094.845774","Mapping"
"Mixed","Both","ball","5","M_done.wav","None","734.207005036","115","296196.45463","303085.016658","303835.331702","304603.076793","290792.404139","291559.82151","292327.111813","293094.263917","296963.721127","297731.051931","298498.25412","299248.915124","300015.838443","300783.396796","301550.628665","302317.670396","303845.144432","Mapping"
"Mixed","Both","ball","5","F_cad.wav","None","729.45878029","115","296196.45463","303085.016658","303835.331702","304603.076793","305370.101828","291559.82151","292327.111813","293094.263917","296963.721127","297731.051931","298498.25412","299248.915124","300015.838443","300783.396796","301550.628665","302317.670396","304613.158809","Mapping"
"Mixed","Both","ball","5","M_cave.wav","None","725.608692854","115","296196.45463","303085.016658","303835.331702","304603.076793","305370.101828","306137.235073","292327.111813","293094.263917","296963.721127","297731.051931","298498.25412","299248.915124","300015.838443","300783.396796","301550.628665","302317.670396","305380.126957","Mapping"
"Mixed","Both","ball","5","F_ball.wav","None","722.746711057","115","296196.45463","303085.016658","303835.331702","304603.076793","305370.101828","306137.235073","306887.50776","293094.263917","296963.721127","297731.051931","298498.25412","299248.915124","300015.838443","300783.396796","301550.628665","302317.670396","306146.585285","Mapping"
"Mixed","Both","ball","5","F_romp.wav","space","590.086728218","115","296196.45463","303085.016658","303835.331702","304603.076793","305370.101828","306137.235073","306887.50776","307654.462614","296963.721127","297731.051931","298498.25412","299248.915124","300015.838443","300783.396796","301550.628665","302317.670396","306897.204551","Mapping"
"Mixed","Both","cave","19","F_bluff.wav","None","735.068042013","115","310773.525942","303085.016658","303835.331702","304603.076793","305370.101828","306137.235073","306887.50776","307654.462614","296963.721127","297731.051931","298498.25412","299248.915124","300015.838443","300783.396796","301550.628665","302317.670396","307663.669681","Mapping"
"Mixed","Both","cave","19","M_jolt.wav","None","736.432406899","115","310773.525942","303085.016658","303835.331702","304603.076793","305370.101828","306137.235073","306887.50776","307654.462614","311541.253719","297731.051931","298498.25412","299248.915124","300015.838443","300783.396796","301550.628665","302317.670396","310782.505151","Mapping"
"Mixed","Both","cave","19","F_cave.wav","None","731.948831221","115","310773.525942","303085.016658","303835.331702","304603.076793","305370.101828","306137.235073","306887.50776","307654.462614","311541.253719","312308.35481","298498.25412","299248.915124","300015.838443","300783.396796","301550.628665","302317.670396","311550.576416","Mapping"
"Mixed","Both","cave","19","F_cad.wav","space","688.673452729","115","310773.525942","303085.016658","303835.331702","304603.076793","305370.101828","306137.235073","306887.50776","307654.462614","311541.253719","312308.35481","313075.666446","299248.915124","300015.838443","300783.396796","301550.628665","302317.670396","312318.403746","Mapping"
"Mixed","Both","cave","19","M_priest.wav","None","722.64870433","115","310773.525942","303085.016658","303835.331702","304603.076793","305370.101828","306137.235073","306887.50776","307654.462614","311541.253719","312308.35481","313075.666446","313825.97005","300015.838443","300783.396796","301550.628665","302317.670396","313085.442694","Mapping"
"Mixed","Both","cave","19","M_cave.wav","None","735.36855475","115","310773.525942","303085.016658","303835.331702","304603.076793","305370.101828","306137.235073","306887.50776","307654.462614","311541.253719","312308.35481","313075.666446","313825.97005","314592.947783","300783.396796","301550.628665","302317.670396","313835.756501","Mapping"
"Mixed","Both","cave","19","M_ball.wav","space","724.925428323","115","310773.525942","303085.016658","303835.331702","304603.076793","305370.101828","306137.235073","306887.50776","307654.462614","311541.253719","312308.35481","313075.666446","313825.97005","314592.947783","315360.70524","301550.628665","302317.670396","314602.123932","Mapping"
"Mixed","Both","cave","19","M_dime.wav","None","726.551968917","115","310773.525942","303085.016658","303835.331702","304603.076793","305370.101828","306137.235073","306887.50776","307654.462614","311541.253719","312308.35481","313075.666446","313825.97005","314592.947783","315360.70524","316127.821481","302317.670396","315370.165826","Mapping"
"Mixed","Both","cave","19","F_done.wav","None","722.529983257","115","310773.525942","303085.016658","303835.331702","304603.076793","305370.101828","306137.235073","306887.50776","307654.462614","311541.253719","312308.35481","313075.666446","313825.97005","314592.947783","315360.70524","316127.821481","316878.101588","316137.602366","Mapping"
"Mixed","Both","cave","19","F_depth.wav","None","735.067423673","115","310773.525942","317645.574919","303835.331702","304603.076793","305370.101828","306137.235073","306887.50776","307654.462614","311541.253719","312308.35481","313075.666446","313825.97005","314592.947783","315360.70524","316127.821481","316878.101588","316888.187933","Mapping"
"Mixed","Both","cave","19","F_cave.wav","None","731.139425538","115","310773.525942","317645.574919","318412.813281","304603.076793","305370.101828","306137.235073","306887.50776","307654.462614","311541.253719","312308.35481","313075.666446","313825.97005","314592.947783","315360.70524","316127.821481","316878.101588","317655.237084","Mapping"
"Mixed","Both","cave","19","F_greet.wav","space","720.073322627","115","310773.525942","317645.574919","318412.813281","319180.168819","305370.101828","306137.235073","306887.50776","307654.462614","311541.253719","312308.35481","313075.666446","313825.97005","314592.947783","315360.70524","316127.821481","316878.101588","318422.861908","Mapping"
"Mixed","Both","cave","19","M_ball.wav","None","722.66880035","115","310773.525942","317645.574919","318412.813281","319180.168819","319946.643533","306137.235073","306887.50776","307654.462614","311541.253719","312308.35481","313075.666446","313825.97005","314592.947783","315360.70524","316127.821481","316878.101588","319189.855098","Mapping"
"Mixed","Both","cave","19","F_reek.wav","None","723.058663047","115","310773.525942","317645.574919","318412.813281","319180.168819","319946.643533","320697.908345","306887.50776","307654.462614","311541.253719","312308.35481","313075.666446","313825.97005","314592.947783","315360.70524","316127.821481","316878.101588","319955.468466","Mapping"
"Mixed","Both","cave","19","M_cave.wav","None","733.790553764","115","310773.525942","317645.574919","318412.813281","319180.168819","319946.643533","320697.908345","321464.668113","307654.462614","311541.253719","312308.35481","313075.666446","313825.97005","314592.947783","315360.70524","316127.821481","316878.101588","320707.879988","Mapping"
"Mixed","Both","cave","19","M_priest.wav","space","652.641605804","115","310773.525942","317645.574919","318412.813281","319180.168819","319946.643533","320697.908345","321464.668113","322231.872466","311541.253719","312308.35481","313075.666446","313825.97005","314592.947783","315360.70524","316127.821481","316878.101588","321474.199498","Mapping"
"Mixed","Both","ball","10","M_done.wav","None","731.35862669","115","325334.752627","317645.574919","318412.813281","319180.168819","319946.643533","320697.908345","321464.668113","322231.872466","311541.253719","312308.35481","313075.666446","313825.97005","314592.947783","315360.70524","316127.821481","316878.101588","322235.686381","Mapping"
"Mixed","Both","ball","10","F_done.wav","None","734.838947443","115","325334.752627","317645.574919","318412.813281","319180.168819","319946.643533","320697.908345","321464.668113","322231.872466","326101.77488","312308.35481","313075.666446","313825.97005","314592.947783","315360.70524","316127.821481","316878.101588","325344.697063","Mapping"
"Mixed","Both","ball","10","F_knife.wav","None","731.111600289","115","325334.752627","317645.574919","318412.813281","319180.168819","319946.643533","320697.908345","321464.668113","322231.872466","326101.77488","326869.202454","313075.666446","313825.97005","314592.947783","315360.70524","316127.821481","316878.101588","326111.625947","Mapping"
"Mixed","Both","ball","10","F_reek.wav","None","727.209572382","115","325334.752627","317645.574919","318412.813281","319180.168819","319946.643533","320697.908345","321464.668113","322231.872466","326101.77488","326869.202454","327636.389185","313825.97005","314592.947783","315360.70524","316127.821481","316878.101588","326878.876985","Mapping"
"Mixed","Both","ball","10","F_ball.wav","None","723.635573282","115","325334.752627","317645.574919","318412.813281","319180.168819","319946.643533","320697.908345","321464.668113","322231.872466","326101.77488","326869.202454","327636.389185","328403.531396","314592.947783","315360.70524","316127.821481","316878.101588","327645.642627","Mapping"
"Mixed","Both","ball","10","M_dime.wav","space","545.485631039","115","325334.752627","317645.574919","318412.813281","319180.168819","319946.643533","320697.908345","321464.668113","322231.872466","326101.77488","326869.202454","327636.389185","328403.531396","329154.022666","315360.70524","316127.821481","316878.101588","328413.141619","Mapping"
"Mixed","Both","ball","10","F_priest.wav","None","732.040963718","115","325334.752627","317645.574919","318412.813281","319180.168819","319946.643533","320697.908345","321464.668113","322231.872466","326101.77488","326869.202454","327636.389185","328403.531396","329154.022666","329921.448076","316127.821481","316878.101588","329163.192323","Mapping"
"Mixed","Both","ball","10","F_romp.wav","None","727.348698645","115","325334.752627","317645.574919","318412.813281","319180.168819","319946.643533","320697.908345","321464.668113","322231.872466","326101.77488","326869.202454","327636.389185","328403.531396","329154.022666","329921.448076","330688.195477","316878.101588","329931.414463","Mapping"
"Mixed","Both","ball","10","M_ball.wav","None","724.972422082","115","325334.752627","317645.574919","318412.813281","319180.168819","319946.643533","320697.908345","321464.668113","322231.872466","326101.77488","326869.202454","327636.389185","328403.531396","329154.022666","329921.448076","330688.195477","331455.355001","330697.064312","Mapping"
"Mixed","Both","ball","10","M_lash.wav","space","565.717372105","115","325334.752627","332206.327339","318412.813281","319180.168819","319946.643533","320697.908345","321464.668113","322231.872466","326101.77488","326869.202454","327636.389185","328403.531396","329154.022666","329921.448076","330688.195477","331455.355001","331464.8329","Mapping"
"Mixed","Both","ball","10","M_dime.wav","None","732.074972359","115","325334.752627","332206.327339","332973.283738","319180.168819","319946.643533","320697.908345","321464.668113","322231.872466","326101.77488","326869.202454","327636.389185","328403.531396","329154.022666","329921.448076","330688.195477","331455.355001","332215.511836","Mapping"
"Mixed","Both","ball","10","M_ball.wav","None","728.147283386","115","325334.752627","332206.327339","332973.283738","333740.55951","319946.643533","320697.908345","321464.668113","322231.872466","326101.77488","326869.202454","327636.389185","328403.531396","329154.022666","329921.448076","330688.195477","331455.355001","332982.773695","Mapping"
"Mixed","Both","ball","10","M_jaw.wav","space","640.610275805","115","325334.752627","332206.327339","332973.283738","333740.55951","334491.361805","320697.908345","321464.668113","322231.872466","326101.77488","326869.202454","327636.389185","328403.531396","329154.022666","329921.448076","330688.195477","331455.355001","333749.812334","Mapping"
"Mixed","Both","ball","10","F_ball.wav","None","735.215825021","115","325334.752627","332206.327339","332973.283738","333740.55951","334491.361805","335258.250806","321464.668113","322231.872466","326101.77488","326869.202454","327636.389185","328403.531396","329154.022666","329921.448076","330688.195477","331455.355001","334501.444749","Mapping"
"Mixed","Both","ball","10","F_cling.wav","space","611.0474909","115","325334.752627","332206.327339","332973.283738","333740.55951","334491.361805","335258.250806","336025.649627","322231.872466","326101.77488","326869.202454","327636.389185","328403.531396","329154.022666","329921.448076","330688.195477","331455.355001","335267.382744","Mapping"
"Mixed","Both","ball","10","M_park.wav","None","727.192568062","115","325334.752627","332206.327339","332973.283738","333740.55951","334491.361805","335258.250806","336025.649627","336793.072563","326101.77488","326869.202454","327636.389185","328403.531396","329154.022666","329921.448076","330688.195477","331455.355001","336035.064765","Mapping"
"Mixed","Both","done","41","M_park.wav","None","723.153887251","115","339895.056751","332206.327339","332973.283738","333740.55951","334491.361805","335258.250806","336025.649627","336793.072563","326101.77488","326869.202454","327636.389185","328403.531396","329154.022666","329921.448076","330688.195477","331455.355001","336802.629919","Mapping"
"Mixed","Both","done","41","M_cave.wav","None","735.479237417","115","339895.056751","332206.327339","332973.283738","333740.55951","334491.361805","335258.250806","336025.649627","336793.072563","340662.347054","326869.202454","327636.389185","328403.531396","329154.022666","329921.448076","330688.195477","331455.355001","339904.685834","Mapping"
"Mixed","Both","done","41","F_gnash.wav","None","731.097996832","115","339895.056751","332206.327339","332973.283738","333740.55951","334491.361805","335258.250806","336025.649627","336793.072563","340662.347054","341429.740619","327636.389185","328403.531396","329154.022666","329921.448076","330688.195477","331455.355001","340672.202449","Mapping"
"Mixed","Both","done","41","F_bluff.wav","None","727.216374115","115","339895.056751","332206.327339","332973.283738","333740.55951","334491.361805","335258.250806","336025.649627","336793.072563","340662.347054","341429.740619","342196.926423","328403.531396","329154.022666","329921.448076","330688.195477","331455.355001","341439.387634","Mapping"
"Mixed","Both","done","41","F_done.wav","None","723.41637213","115","339895.056751","332206.327339","332973.283738","333740.55951","334491.361805","335258.250806","336025.649627","336793.072563","340662.347054","341429.740619","342196.926423","342947.660391","329154.022666","329921.448076","330688.195477","331455.355001","342206.381134","Mapping"
"Mixed","Both","done","41","M_cad.wav","space","512.645649738","115","339895.056751","332206.327339","332973.283738","333740.55951","334491.361805","335258.250806","336025.649627","336793.072563","340662.347054","341429.740619","342196.926423","342947.660391","343714.256608","329921.448076","330688.195477","331455.355001","342957.547321","Mapping"
"Mixed","Both","done","41","F_done.wav","None","732.426807219","115","339895.056751","332206.327339","332973.283738","333740.55951","334491.361805","335258.250806","336025.649627","336793.072563","340662.347054","341429.740619","342196.926423","342947.660391","343714.256608","344482.053021","330688.195477","331455.355001","343723.414517","Mapping"
"Mixed","Both","done","41","M_priest.wav","None","727.700842675","115","339895.056751","332206.327339","332973.283738","333740.55951","334491.361805","335258.250806","336025.649627","336793.072563","340662.347054","341429.740619","342196.926423","342947.660391","343714.256608","344482.053021","345249.24439","331455.355001","344491.370153","Mapping"
"Mixed","Both","done","41","F_cave.wav","space","330.734351694","115","339895.056751","332206.327339","332973.283738","333740.55951","334491.361805","335258.250806","336025.649627","336793.072563","340662.347054","341429.740619","342196.926423","342947.660391","343714.256608","344482.053021","345249.24439","346000.200342","345259.400916","Mapping"
"Mixed","Both","done","41","M_romp.wav","None","734.864299338","115","339895.056751","346766.623733","332973.283738","333740.55951","334491.361805","335258.250806","336025.649627","336793.072563","340662.347054","341429.740619","342196.926423","342947.660391","343714.256608","344482.053021","345249.24439","346000.200342","346010.145087","Mapping"
"Mixed","Both","done","41","M_romp.wav","None","732.240687197","115","339895.056751","346766.623733","347534.133237","333740.55951","334491.361805","335258.250806","336025.649627","336793.072563","340662.347054","341429.740619","342196.926423","342947.660391","343714.256608","344482.053021","345249.24439","346000.200342","346775.947975","Mapping"
"Mixed","Both","done","41","M_done.wav","None","727.046021733","115","339895.056751","346766.623733","347534.133237","348301.313785","334491.361805","335258.250806","336025.649627","336793.072563","340662.347054","341429.740619","342196.926423","342947.660391","343714.256608","344482.053021","345249.24439","346000.200342","347544.560905","Mapping"
"Mixed","Both","done","41","F_lash.wav","space","711.259210162","115","339895.056751","346766.623733","347534.133237","348301.313785","349052.199246","335258.250806","336025.649627","336793.072563","340662.347054","341429.740619","342196.926423","342947.660391","343714.256608","344482.053021","345249.24439","346000.200342","348310.751183","Mapping"
"Mixed","Both","done","41","F_knife.wav","None","735.849313271","115","339895.056751","346766.623733","347534.133237","348301.313785","349052.199246","349818.870901","336025.649627","336793.072563","340662.347054","341429.740619","342196.926423","342947.660391","343714.256608","344482.053021","345249.24439","346000.200342","349061.799267","Mapping"
"Mixed","Both","done","41","M_done.wav","None","732.726083268","115","339895.056751","346766.623733","347534.133237","348301.313785","349052.199246","349818.870901","350586.4713","336793.072563","340662.347054","341429.740619","342196.926423","342947.660391","343714.256608","344482.053021","345249.24439","346000.200342","349828.357457","Mapping"
"Mixed","Both","done","41","F_depth.wav","space","721.805599183","115","339895.056751","346766.623733","347534.133237","348301.313785","349052.199246","349818.870901","350586.4713","351353.698842","340662.347054","341429.740619","342196.926423","342947.660391","343714.256608","344482.053021","345249.24439","346000.200342","350596.168092","Mapping"
"Mixed","Both","ball","12","F_cad.wav","None","723.873633782","115","354455.512986","346766.623733","347534.133237","348301.313785","349052.199246","349818.870901","350586.4713","351353.698842","340662.347054","341429.740619","342196.926423","342947.660391","343714.256608","344482.053021","345249.24439","346000.200342","351363.165302","Mapping"
"Mixed","Both","ball","12","F_cave.wav","None","735.894452017","115","354455.512986","346766.623733","347534.133237","348301.313785","349052.199246","349818.870901","350586.4713","351353.698842","355222.962511","341429.740619","342196.926423","342947.660391","343714.256608","344482.053021","345249.24439","346000.200342","354464.590202","Mapping"
"Mixed","Both","ball","12","F_park.wav","None","731.008646857","115","354455.512986","346766.623733","347534.133237","348301.313785","349052.199246","349818.870901","350586.4713","351353.698842","355222.962511","355990.12049","342196.926423","342947.660391","343714.256608","344482.053021","345249.24439","346000.200342","355232.87634","Mapping"
"Mixed","Both","ball","12","M_priest.wav","None","728.173871968","115","354455.512986","346766.623733","347534.133237","348301.313785","349052.199246","349818.870901","350586.4713","351353.698842","355222.962511","355990.12049","356757.647307","342947.660391","343714.256608","344482.053021","345249.24439","346000.200342","355999.097225","Mapping"
"Mixed","Both","ball","12","F_lash.wav","None","722.958801307","115","354455.512986","346766.623733","347534.133237","348301.313785","349052.199246","349818.870901","350586.4713","351353.698842","355222.962511","355990.12049","356757.647307","357508.075816","343714.256608","344482.053021","345249.24439","346000.200342","356767.556807","Mapping"
"Mixed","Both","ball","12","F_ball.wav","None","736.990766964","115","354455.512986","346766.623733","347534.133237","348301.313785","349052.199246","349818.870901","350586.4713","351353.698842","355222.962511","355990.12049","356757.647307","357508.075816","358275.366428","344482.053021","345249.24439","346000.200342","357517.068628","Mapping"
"Mixed","Both","ball","12","M_depth.wav","space","569.166466739","115","354455.512986","346766.623733","347534.133237","348301.313785","349052.199246","349818.870901","350586.4713","351353.698842","355222.962511","355990.12049","356757.647307","357508.075816","358275.366428","359042.678681","345249.24439","346000.200342","358284.56391","Mapping"
"Mixed","Both","ball","12","M_knife.wav","None","727.47174809","115","354455.512986","346766.623733","347534.133237","348301.313785","349052.199246","349818.870901","350586.4713","351353.698842","355222.962511","355990.12049","356757.647307","357508.075816","358275.366428","359042.678681","359810.121714","346000.200342","359052.481827","Mapping"
"Mixed","Both","ball","12","M_done.wav","None","723.543749955","115","354455.512986","346766.623733","347534.133237","348301.313785","349052.199246","349818.870901","350586.4713","351353.698842","355222.962511","355990.12049","356757.647307","357508.075816","358275.366428","359042.678681","359810.121714","360577.0945","359819.977418","Mapping"
"Mixed","Both","ball","12","M_ball.wav","None","720.446181018","115","354455.512986","361327.674192","347534.133237","348301.313785","349052.199246","349818.870901","350586.4713","351353.698842","355222.962511","355990.12049","356757.647307","357508.075816","358275.366428","359042.678681","359810.121714","360577.0945","360586.579819","Mapping"
"Mixed","Both","ball","12","F_done.wav","space","555.945143438","115","354455.512986","361327.674192","362094.74653","348301.313785","349052.199246","349818.870901","350586.4713","351353.698842","355222.962511","355990.12049","356757.647307","357508.075816","358275.366428","359042.678681","359810.121714","360577.0945","361337.675516","Mapping"
"Mixed","Both","ball","12","M_ball.wav","None","729.065825893","115","354455.512986","361327.674192","362094.74653","362861.833091","349052.199246","349818.870901","350586.4713","351353.698842","355222.962511","355990.12049","356757.647307","357508.075816","358275.366428","359042.678681","359810.121714","360577.0945","362103.91897","Mapping"
"Mixed","Both","ball","12","M_priest.wav","space","526.315268769","115","354455.512986","361327.674192","362094.74653","362861.833091","363629.421433","349818.870901","350586.4713","351353.698842","355222.962511","355990.12049","356757.647307","357508.075816","358275.366428","359042.678681","359810.121714","360577.0945","362871.275126","Mapping"
"Mixed","Both","ball","12","M_priest.wav","None","719.062956799","115","354455.512986","361327.674192","362094.74653","362861.833091","363629.421433","364379.629195","350586.4713","351353.698842","355222.962511","355990.12049","356757.647307","357508.075816","358275.366428","359042.678681","359810.121714","360577.0945","363639.586307","Mapping"
"Mixed","Both","ball","12","F_ball.wav","None","733.417386204","115","354455.512986","361327.674192","362094.74653","362861.833091","363629.421433","364379.629195","365147.03018","351353.698842","355222.962511","355990.12049","356757.647307","357508.075816","358275.366428","359042.678681","359810.121714","360577.0945","364389.012488","Mapping"
"Mixed","Both","ball","12","F_bluff.wav","space","544.999616628","115","354455.512986","361327.674192","362094.74653","362861.833091","363629.421433","364379.629195","365147.03018","365914.448479","355222.962511","355990.12049","356757.647307","357508.075816","358275.366428","359042.678681","359810.121714","360577.0945","365156.550745","Mapping"
"Mixed","Both","ball","9","F_reek.wav","None","723.874561292","115","369016.387837","361327.674192","362094.74653","362861.833091","363629.421433","364379.629195","365147.03018","365914.448479","355222.962511","355990.12049","356757.647307","357508.075816","358275.366428","359042.678681","359810.121714","360577.0945","365924.419194","Mapping"
"Mixed","Both","ball","9","M_bluff.wav","None","734.682507689","115","369016.387837","361327.674192","362094.74653","362861.833091","363629.421433","364379.629195","365147.03018","365914.448479","369783.411326","355990.12049","356757.647307","357508.075816","358275.366428","359042.678681","359810.121714","360577.0945","369026.334746","Mapping"
"Mixed","Both","ball","9","F_ball.wav","None","731.859172076","115","369016.387837","361327.674192","362094.74653","362861.833091","363629.421433","364379.629195","365147.03018","365914.448479","369783.411326","370551.136631","356757.647307","357508.075816","358275.366428","359042.678681","359810.121714","360577.0945","369792.779471","Mapping"
"Mixed","Both","ball","9","F_priest.wav","space","557.004976392","115","369016.387837","361327.674192","362094.74653","362861.833091","363629.421433","364379.629195","365147.03018","365914.448479","369783.411326","370551.136631","371318.28286","357508.075816","358275.366428","359042.678681","359810.121714","360577.0945","370560.370286","Mapping"
"Mixed","Both","ball","9","M_ball.wav","None","722.276773457","115","369016.387837","361327.674192","362094.74653","362861.833091","363629.421433","364379.629195","365147.03018","365914.448479","369783.411326","370551.136631","371318.28286","372068.175579","358275.366428","359042.678681","359810.121714","360577.0945","371328.04365","Mapping"
"Mixed","Both","ball","9","M_bluff.wav","space","575.944389071","115","369016.387837","361327.674192","362094.74653","362861.833091","363629.421433","364379.629195","365147.03018","365914.448479","369783.411326","370551.136631","371318.28286","372068.175579","372836.201086","359042.678681","359810.121714","360577.0945","372077.376771","Mapping"
"Mixed","Both","ball","9","M_knife.wav","None","730.104944487","115","369016.387837","361327.674192","362094.74653","362861.833091","363629.421433","364379.629195","365147.03018","365914.448479","369783.411326","370551.136631","371318.28286","372068.175579","372836.201086","373603.410387","359810.121714","360577.0945","372846.140885","Mapping"
"Mixed","Both","ball","9","F_knife.wav","None","726.451798007","115","369016.387837","361327.674192","362094.74653","362861.833091","363629.421433","364379.629195","365147.03018","365914.448479","369783.411326","370551.136631","371318.28286","372068.175579","372836.201086","373603.410387","374370.097809","360577.0945","373613.289279","Mapping"
"Mixed","Both","ball","9","F_depth.wav","None","722.459492616","115","369016.387837","361327.674192","362094.74653","362861.833091","363629.421433","364379.629195","365147.03018","365914.448479","369783.411326","370551.136631","371318.28286","372068.175579","372836.201086","373603.410387","374370.097809","375120.579804","374380.745915","Mapping"
"Mixed","Both","ball","9","M_ball.wav","None","733.850532633","115","369016.387837","375888.298306","362094.74653","362861.833091","363629.421433","364379.629195","365147.03018","365914.448479","369783.411326","370551.136631","371318.28286","372068.175579","372836.201086","373603.410387","374370.097809","375120.579804","375132.7617","Mapping"
"Mixed","Both","ball","9","M_knife.wav","None","731.857317056","115","369016.387837","375888.298306","376655.24574","362861.833091","363629.421433","364379.629195","365147.03018","365914.448479","369783.411326","370551.136631","371318.28286","372068.175579","372836.201086","373603.410387","374370.097809","375120.579804","375898.16174","Mapping"
"Mixed","Both","ball","9","M_depth.wav","space","340.64570663","115","369016.387837","375888.298306","376655.24574","377423.199521","363629.421433","364379.629195","365147.03018","365914.448479","369783.411326","370551.136631","371318.28286","372068.175579","372836.201086","373603.410387","374370.097809","375120.579804","376664.513095","Mapping"
"Mixed","Both","ball","9","F_tile.wav","None","722.639120075","115","369016.387837","375888.298306","376655.24574","377423.199521","378190.000717","364379.629195","365147.03018","365914.448479","369783.411326","370551.136631","371318.28286","372068.175579","372836.201086","373603.410387","374370.097809","375120.579804","377433.12046","Mapping"
"Mixed","Both","ball","9","M_depth.wav","None","714.82176998","115","369016.387837","375888.298306","376655.24574","377423.199521","378190.000717","378940.682436","365147.03018","365914.448479","369783.411326","370551.136631","371318.28286","372068.175579","372836.201086","373603.410387","374370.097809","375120.579804","378204.310317","Mapping"
"Mixed","Both","ball","9","F_ball.wav","None","684.520379218","115","369016.387837","375888.298306","376655.24574","377423.199521","378190.000717","378940.682436","379707.90905","365914.448479","369783.411326","370551.136631","371318.28286","372068.175579","372836.201086","373603.410387","374370.097809","375120.579804","378998.169098","Mapping"
"Mixed","Both","ball","9","F_cling.wav","space","527.713333118","115","369016.387837","375888.298306","376655.24574","377423.199521","378190.000717","378940.682436","379707.90905","380474.637901","369783.411326","370551.136631","371318.28286","372068.175579","372836.201086","373603.410387","374370.097809","375120.579804","379717.377674","Mapping"
"Mixed","Both","tile","35","F_dime.wav","None","725.153904561","115","383577.056781","375888.298306","376655.24574","377423.199521","378190.000717","378940.682436","379707.90905","380474.637901","369783.411326","370551.136631","371318.28286","372068.175579","372836.201086","373603.410387","374370.097809","375120.579804","380483.744488","Mapping"
"Mixed","Both","tile","35","M_tile.wav","None","734.975291176","115","383577.056781","375888.298306","376655.24574","377423.199521","378190.000717","378940.682436","379707.90905","380474.637901","384344.497649","370551.136631","371318.28286","372068.175579","372836.201086","373603.410387","374370.097809","375120.579804","383586.791291","Mapping"
"Mixed","Both","tile","35","M_priest.wav","space","611.14920766","115","383577.056781","375888.298306","376655.24574","377423.199521","378190.000717","378940.682436","379707.90905","380474.637901","384344.497649","385111.743741","371318.28286","372068.175579","372836.201086","373603.410387","374370.097809","375120.579804","384353.800249","Mapping"
"Mixed","Both","tile","35","F_tile.wav","None","726.704080298","115","383577.056781","375888.298306","376655.24574","377423.199521","378190.000717","378940.682436","379707.90905","380474.637901","384344.497649","385111.743741","385878.966026","372068.175579","372836.201086","373603.410387","374370.097809","375120.579804","385121.064891","Mapping"
"Mixed","Both","tile","35","M_priest.wav","None","723.060208897","115","383577.056781","375888.298306","376655.24574","377423.199521","378190.000717","378940.682436","379707.90905","380474.637901","384344.497649","385111.743741","385878.966026","386645.661796","372836.201086","373603.410387","374370.097809","375120.579804","385888.43836","Mapping"
"Mixed","Both","tile","35","F_park.wav","space","494.059617769","115","383577.056781","375888.298306","376655.24574","377423.199521","378190.000717","378940.682436","379707.90905","380474.637901","384344.497649","385111.743741","385878.966026","386645.661796","387396.713281","373603.410387","374370.097809","375120.579804","386654.818777","Mapping"
"Mixed","Both","tile","35","M_tile.wav","None","731.71015238","115","383577.056781","375888.298306","376655.24574","377423.199521","378190.000717","378940.682436","379707.90905","380474.637901","384344.497649","385111.743741","385878.966026","386645.661796","387396.713281","388163.962155","374370.097809","375120.579804","387406.303718","Mapping"
"Mixed","Both","tile","35","F_romp.wav","space","607.637351626","115","383577.056781","375888.298306","376655.24574","377423.199521","378190.000717","378940.682436","379707.90905","380474.637901","384344.497649","385111.743741","385878.966026","386645.661796","387396.713281","388163.962155","388931.075613","375120.579804","388173.2258","Mapping"
"Mixed","Both","tile","35","M_cave.wav","None","724.070883902","115","383577.056781","375888.298306","376655.24574","377423.199521","378190.000717","378940.682436","379707.90905","380474.637901","384344.497649","385111.743741","385878.966026","386645.661796","387396.713281","388163.962155","388931.075613","389698.579861","388940.689547","Mapping"
"Mixed","Both","tile","35","F_tile.wav","None","719.739728775","115","383577.056781","390448.895523","376655.24574","377423.199521","378190.000717","378940.682436","379707.90905","380474.637901","384344.497649","385111.743741","385878.966026","386645.661796","387396.713281","388163.962155","388931.075613","389698.579861","389708.773178","Mapping"
"Mixed","Both","tile","35","M_cad.wav","space","458.972901914","115","383577.056781","390448.895523","391216.208395","377423.199521","378190.000717","378940.682436","379707.90905","380474.637901","384344.497649","385111.743741","385878.966026","386645.661796","387396.713281","388163.962155","388931.075613","389698.579861","390457.805478","Mapping"
"Mixed","Both","tile","35","F_ball.wav","None","729.00646535","115","383577.056781","390448.895523","391216.208395","391983.460361","378190.000717","378940.682436","379707.90905","380474.637901","384344.497649","385111.743741","385878.966026","386645.661796","387396.713281","388163.962155","388931.075613","389698.579861","391225.727414","Mapping"
"Mixed","Both","tile","35","F_priest.wav","None","725.711027946","115","383577.056781","390448.895523","391216.208395","391983.460361","392750.734896","378940.682436","379707.90905","380474.637901","384344.497649","385111.743741","385878.966026","386645.661796","387396.713281","388163.962155","388931.075613","389698.579861","391993.054817","Mapping"
"Mixed","Both","tile","35","F_lash.wav","None","722.368596791","115","383577.056781","390448.895523","391216.208395","391983.460361","392750.734896","393517.796722","379707.90905","380474.637901","384344.497649","385111.743741","385878.966026","386645.661796","387396.713281","388163.962155","388931.075613","389698.579861","392760.172294","Mapping"
"Mixed","Both","tile","35","M_park.wav","None","719.97995345","115","383577.056781","390448.895523","391216.208395","391983.460361","392750.734896","393517.796722","394268.413206","380474.637901","384344.497649","385111.743741","385878.966026","386645.661796","387396.713281","388163.962155","388931.075613","389698.579861","393526.967307","Mapping"
"Mixed","Both","tile","35","M_dime.wav","None","732.979293069","115","383577.056781","390448.895523","391216.208395","391983.460361","392750.734896","393517.796722","394268.413206","395035.711238","384344.497649","385111.743741","385878.966026","386645.661796","387396.713281","388163.962155","388931.075613","389698.579861","394277.763728","Mapping"
"Mixed","Both","cave","15","F_lash.wav","None","729.101689547","115","398154.584118","390448.895523","391216.208395","391983.460361","392750.734896","393517.796722","394268.413206","395035.711238","384344.497649","385111.743741","385878.966026","386645.661796","387396.713281","388163.962155","388931.075613","389698.579861","395045.392262","Mapping"
"Mixed","Both","cave","15","F_greet.wav","None","735.332381919","115","398154.584118","390448.895523","391216.208395","391983.460361","392750.734896","393517.796722","394268.413206","395035.711238","398921.803002","385111.743741","385878.966026","386645.661796","387396.713281","388163.962155","388931.075613","389698.579861","398163.684521","Mapping"
"Mixed","Both","cave","15","M_done.wav","None","731.788990597","115","398154.584118","390448.895523","391216.208395","391983.460361","392750.734896","393517.796722","394268.413206","395035.711238","398921.803002","399688.996535","385878.966026","386645.661796","387396.713281","388163.962155","388931.075613","389698.579861","398931.150123","Mapping"
"Mixed","Both","cave","15","F_cave.wav","None","728.351644408","115","398154.584118","390448.895523","391216.208395","391983.460361","392750.734896","393517.796722","394268.413206","395035.711238","398921.803002","399688.996535","400456.389482","386645.661796","387396.713281","388163.962155","388931.075613","389698.579861","399698.343346","Mapping"
"Mixed","Both","cave","15","M_dime.wav","space","618.64192981","115","398154.584118","390448.895523","391216.208395","391983.460361","392750.734896","393517.796722","394268.413206","395035.711238","398921.803002","399688.996535","400456.389482","401223.514379","387396.713281","388163.962155","388931.075613","389698.579861","400465.839556","Mapping"
"Mixed","Both","cave","15","F_cave.wav","None","720.509251587","115","398154.584118","390448.895523","391216.208395","391983.460361","392750.734896","393517.796722","394268.413206","395035.711238","398921.803002","399688.996535","400456.389482","401223.514379","401974.121588","388163.962155","388931.075613","389698.579861","401232.640443","Mapping"
"Mixed","Both","cave","15","M_done.wav","space","636.859740946","115","398154.584118","390448.895523","391216.208395","391983.460361","392750.734896","393517.796722","394268.413206","395035.711238","398921.803002","399688.996535","400456.389482","401223.514379","401974.121588","402741.256378","388931.075613","389698.579861","401983.539508","Mapping"
"Mixed","Both","cave","15","M_cave.wav","None","727.693422603","115","398154.584118","390448.895523","391216.208395","391983.460361","392750.734896","393517.796722","394268.413206","395035.711238","398921.803002","399688.996535","400456.389482","401223.514379","401974.121588","402741.256378","403508.477427","389698.579861","402751.24317","Mapping"
"Mixed","Both","cave","15","M_depth.wav","space","686.715791635","115","398154.584118","390448.895523","391216.208395","391983.460361","392750.734896","393517.796722","394268.413206","395035.711238","398921.803002","399688.996535","400456.389482","401223.514379","401974.121588","402741.256378","403508.477427","404258.862343","403517.660997","Mapping"
"Mixed","Both","cave","15","F_reek.wav","None","737.568295532","115","398154.584118","405025.932208","391216.208395","391983.460361","392750.734896","393517.796722","394268.413206","395035.711238","398921.803002","399688.996535","400456.389482","401223.514379","401974.121588","402741.256378","403508.477427","404258.862343","404267.491572","Mapping"
"Mixed","Both","cave","15","M_cad.wav","None","734.005117374","115","398154.584118","405025.932208","405793.174589","391983.460361","392750.734896","393517.796722","394268.413206","395035.711238","398921.803002","399688.996535","400456.389482","401223.514379","401974.121588","402741.256378","403508.477427","404258.862343","405034.651096","Mapping"
"Mixed","Both","cave","15","F_dime.wav","None","730.086394316","115","398154.584118","405025.932208","405793.174589","406560.804669","392750.734896","393517.796722","394268.413206","395035.711238","398921.803002","399688.996535","400456.389482","401223.514379","401974.121588","402741.256378","403508.477427","404258.862343","405802.327551","Mapping"
"Mixed","Both","cave","15","F_priest.wav","None","725.88539953","115","398154.584118","405025.932208","405793.174589","406560.804669","407328.036539","393517.796722","394268.413206","395035.711238","398921.803002","399688.996535","400456.389482","401223.514379","401974.121588","402741.256378","403508.477427","404258.862343","406570.547218","Mapping"
"Mixed","Both","cave","15","M_depth.wav","None","722.486081184","115","398154.584118","405025.932208","405793.174589","406560.804669","407328.036539","408078.305207","394268.413206","395035.711238","398921.803002","399688.996535","400456.389482","401223.514379","401974.121588","402741.256378","403508.477427","404258.862343","407337.537008","Mapping"
"Mixed","Both","cave","15","M_cave.wav","None","736.040070835","115","398154.584118","405025.932208","405793.174589","406560.804669","407328.036539","408078.305207","408845.732163","395035.711238","398921.803002","399688.996535","400456.389482","401223.514379","401974.121588","402741.256378","403508.477427","404258.862343","408087.709215","Mapping"
"Mixed","Both","cave","15","F_romp.wav","None","732.097850901","115","398154.584118","405025.932208","405793.174589","406560.804669","407328.036539","408078.305207","408845.732163","409612.91642","398921.803002","399688.996535","400456.389482","401223.514379","401974.121588","402741.256378","403508.477427","404258.862343","408855.433282","Mapping"
"Mixed","Both","ball","11","F_park.wav","space","13.7595873457","115","412715.171131","405025.932208","405793.174589","406560.804669","407328.036539","408078.305207","408845.732163","409612.91642","398921.803002","399688.996535","400456.389482","401223.514379","401974.121588","402741.256378","403508.477427","404258.862343","409622.479341","Mapping"
"Mixed","Both","ball","11","F_ball.wav","None","735.419567711","115","412715.171131","405025.932208","405793.174589","406560.804669","407328.036539","408078.305207","408845.732163","409612.91642","413482.50781","399688.996535","400456.389482","401223.514379","401974.121588","402741.256378","403508.477427","404258.862343","412724.554734","Mapping"
"Mixed","Both","ball","11","M_lash.wav","space","632.115535394","115","412715.171131","405025.932208","405793.174589","406560.804669","407328.036539","408078.305207","408845.732163","409612.91642","413482.50781","414249.910341","400456.389482","401223.514379","401974.121588","402741.256378","403508.477427","404258.862343","413491.961903","Mapping"
"Mixed","Both","ball","11","M_park.wav","None","726.750455717","115","412715.171131","405025.932208","405793.174589","406560.804669","407328.036539","408078.305207","408845.732163","409612.91642","413482.50781","414249.910341","415016.425556","401223.514379","401974.121588","402741.256378","403508.477427","404258.862343","414259.314967","Mapping"
"Mixed","Both","ball","11","M_romp.wav","None","726.978622792","115","412715.171131","405025.932208","405793.174589","406560.804669","407328.036539","408078.305207","408845.732163","409612.91642","413482.50781","414249.910341","415016.425556","415784.097683","401974.121588","402741.256378","403508.477427","404258.862343","415025.215862","Mapping"
"Mixed","Both","ball","11","M_ball.wav","None","722.808544946","115","412715.171131","405025.932208","405793.174589","406560.804669","407328.036539","408078.305207","408845.732163","409612.91642","413482.50781","414249.910341","415016.425556","415784.097683","416534.751267","402741.256378","403508.477427","404258.862343","415793.301658","Mapping"
"Mixed","Both","ball","11","M_cad.wav","space","611.888431871","115","412715.171131","405025.932208","405793.174589","406560.804669","407328.036539","408078.305207","408845.732163","409612.91642","413482.50781","414249.910341","415016.425556","415784.097683","416534.751267","417301.994576","403508.477427","404258.862343","416544.118484","Mapping"
"Mixed","Both","ball","11","F_bluff.wav","None","731.539181666","115","412715.171131","405025.932208","405793.174589","406560.804669","407328.036539","408078.305207","408845.732163","409612.91642","413482.50781","414249.910341","415016.425556","415784.097683","416534.751267","417301.994576","418069.073098","404258.862343","417311.394255","Mapping"
"Mixed","Both","ball","11","F_jaw.wav","None","727.958380841","115","412715.171131","405025.932208","405793.174589","406560.804669","407328.036539","408078.305207","408845.732163","409612.91642","413482.50781","414249.910341","415016.425556","415784.097683","416534.751267","417301.994576","418069.073098","418836.418432","418078.719185","Mapping"
"Mixed","Both","ball","11","F_ball.wav","None","724.678401915","115","412715.171131","419603.645046","405793.174589","406560.804669","407328.036539","408078.305207","408845.732163","409612.91642","413482.50781","414249.910341","415016.425556","415784.097683","416534.751267","417301.994576","418069.073098","418836.418432","418845.938997","Mapping"
"Mixed","Both","ball","11","F_depth.wav","space","622.835813701","115","412715.171131","419603.645046","420354.187948","406560.804669","407328.036539","408078.305207","408845.732163","409612.91642","413482.50781","414249.910341","415016.425556","415784.097683","416534.751267","417301.994576","418069.073098","418836.418432","419613.032359","Mapping"
"Mixed","Both","ball","11","F_lash.wav","None","733.089666566","115","412715.171131","419603.645046","420354.187948","421121.390137","407328.036539","408078.305207","408845.732163","409612.91642","413482.50781","414249.910341","415016.425556","415784.097683","416534.751267","417301.994576","418069.073098","418836.418432","420363.825069","Mapping"
"Mixed","Both","ball","11","M_ball.wav","None","729.278534483","115","412715.171131","419603.645046","420354.187948","421121.390137","421888.606858","408078.305207","408845.732163","409612.91642","413482.50781","414249.910341","415016.425556","415784.097683","416534.751267","417301.994576","418069.073098","418836.418432","421131.561813","Mapping"
"Mixed","Both","ball","11","F_cad.wav","space","625.712326459","115","412715.171131","419603.645046","420354.187948","421121.390137","421888.606858","422655.994858","408845.732163","409612.91642","413482.50781","414249.910341","415016.425556","415784.097683","416534.751267","417301.994576","418069.073098","418836.418432","421898.113201","Mapping"
"Mixed","Both","ball","11","M_jolt.wav","None","721.74716615","115","412715.171131","419603.645046","420354.187948","421121.390137","421888.606858","422655.994858","423406.181596","409612.91642","413482.50781","414249.910341","415016.425556","415784.097683","416534.751267","417301.994576","418069.073098","418836.418432","422665.351254","Mapping"
"Mixed","Both","ball","11","M_bluff.wav","None","735.669067471","115","412715.171131","419603.645046","420354.187948","421121.390137","421888.606858","422655.994858","423406.181596","424173.350395","413482.50781","414249.910341","415016.425556","415784.097683","416534.751267","417301.994576","418069.073098","418836.418432","423415.429783","Mapping"
"Mixed","Both","cave","21","M_bluff.wav","None","732.959815388","115","427292.436911","419603.645046","420354.187948","421121.390137","421888.606858","422655.994858","423406.181596","424173.350395","413482.50781","414249.910341","415016.425556","415784.097683","416534.751267","417301.994576","418069.073098","418836.418432","424182.088452","Mapping"
"Mixed","Both","cave","21","F_cling.wav","None","735.476764057","115","427292.436911","419603.645046","420354.187948","421121.390137","421888.606858","422655.994858","423406.181596","424173.350395","428059.891073","414249.910341","415016.425556","415784.097683","416534.751267","417301.994576","418069.073098","418836.418432","427301.809693","Mapping"
"Mixed","Both","cave","21","F_greet.wav","None","732.470709285","115","427292.436911","419603.645046","420354.187948","421121.390137","421888.606858","422655.994858","423406.181596","424173.350395","428059.891073","428827.126344","415016.425556","415784.097683","416534.751267","417301.994576","418069.073098","418836.418432","428068.959014","Mapping"
"Mixed","Both","cave","21","M_cave.wav","None","728.486442305","115","427292.436911","419603.645046","420354.187948","421121.390137","421888.606858","422655.994858","423406.181596","424173.350395","428059.891073","428827.126344","429594.37089","415784.097683","416534.751267","417301.994576","418069.073098","418836.418432","428836.827464","Mapping"
"Mixed","Both","cave","21","M_reek.wav","space","535.992582409","115","427292.436911","419603.645046","420354.187948","421121.390137","421888.606858","422655.994858","423406.181596","424173.350395","428059.891073","428827.126344","429594.37089","430361.435808","416534.751267","417301.994576","418069.073098","418836.418432","429603.594342","Mapping"
"Mixed","Both","cave","21","F_tile.wav","None","720.580978901","115","427292.436911","419603.645046","420354.187948","421121.390137","421888.606858","422655.994858","423406.181596","424173.350395","428059.891073","428827.126344","429594.37089","430361.435808","431111.625019","417301.994576","418069.073098","418836.418432","430370.960701","Mapping"
"Mixed","Both","cave","21","M_depth.wav","None","734.601814453","115","427292.436911","419603.645046","420354.187948","421121.390137","421888.606858","422655.994858","423406.181596","424173.350395","428059.891073","428827.126344","429594.37089","430361.435808","431111.625019","431879.38526","418069.073098","418836.418432","431120.615977","Mapping"
"Mixed","Both","cave","21","M_priest.wav","None","729.870594027","115","427292.436911","419603.645046","420354.187948","421121.390137","421888.606858","422655.994858","423406.181596","424173.350395","428059.891073","428827.126344","429594.37089","430361.435808","431111.625019","431879.38526","432646.704624","418836.418432","431889.240655","Mapping"
"Mixed","Both","cave","21","M_reek.wav","None","726.694805213","115","427292.436911","419603.645046","420354.187948","421121.390137","421888.606858","422655.994858","423406.181596","424173.350395","428059.891073","428827.126344","429594.37089","430361.435808","431111.625019","431879.38526","432646.704624","433413.523753","432656.258889","Mapping"
"Mixed","Both","cave","21","M_cave.wav","None","723.90300488","115","427292.436911","434180.920101","420354.187948","421121.390137","421888.606858","422655.994858","423406.181596","424173.350395","428059.891073","428827.126344","429594.37089","430361.435808","431111.625019","431879.38526","432646.704624","433413.523753","433422.822952","Mapping"
"Mixed","Both","cave","21","F_cad.wav","space","661.608138827","115","427292.436911","434180.920101","434931.568429","421121.390137","421888.606858","422655.994858","423406.181596","424173.350395","428059.891073","428827.126344","429594.37089","430361.435808","431111.625019","431879.38526","432646.704624","433413.523753","434189.809341","Mapping"
"Mixed","Both","cave","21","M_dime.wav","None","731.395727031","115","427292.436911","434180.920101","434931.568429","435698.836472","421888.606858","422655.994858","423406.181596","424173.350395","428059.891073","428827.126344","429594.37089","430361.435808","431111.625019","431879.38526","432646.704624","433413.523753","434941.551821","Mapping"
"Mixed","Both","cave","21","F_cave.wav","None","728.814161936","115","427292.436911","434180.920101","434931.568429","435698.836472","436466.170986","422655.994858","423406.181596","424173.350395","428059.891073","428827.126344","429594.37089","430361.435808","431111.625019","431879.38526","432646.704624","433413.523753","435708.082185","Mapping"
"Mixed","Both","cave","21","F_romp.wav","None","725.450088918","115","427292.436911","434180.920101","434931.568429","435698.836472","436466.170986","437233.209006","423406.181596","424173.350395","428059.891073","428827.126344","429594.37089","430361.435808","431111.625019","431879.38526","432646.704624","433413.523753","436475.421954","Mapping"
"Mixed","Both","cave","21","F_cave.wav","space","129.166367806","115","427292.436911","434180.920101","434931.568429","435698.836472","436466.170986","437233.209006","437983.744178","424173.350395","428059.891073","428827.126344","429594.37089","430361.435808","431111.625019","431879.38526","432646.704624","433413.523753","437242.227479","Mapping"
"Mixed","Both","cave","21","F_greet.wav","None","733.684817795","115","427292.436911","434180.920101","434931.568429","435698.836472","436466.170986","437233.209006","437983.744178","438750.668734","428059.891073","428827.126344","429594.37089","430361.435808","431111.625019","431879.38526","432646.704624","433413.523753","437993.236918","Mapping"
"Mixed","Both","tile","25","M_dime.wav","space","123.963045597","115","441869.839034","434180.920101","434931.568429","435698.836472","436466.170986","437233.209006","437983.744178","438750.668734","428059.891073","428827.126344","429594.37089","430361.435808","431111.625019","431879.38526","432646.704624","433413.523753","438759.354541","Mapping"
"Mixed","Both","tile","25","F_tile.wav","None","734.634586421","115","441869.839034","434180.920101","434931.568429","435698.836472","436466.170986","437233.209006","437983.744178","438750.668734","442637.260425","428827.126344","429594.37089","430361.435808","431111.625019","431879.38526","432646.704624","433413.523753","441879.294364","Mapping"
"Mixed","Both","tile","25","M_done.wav","space","540.554687126","115","441869.839034","434180.920101","434931.568429","435698.836472","436466.170986","437233.209006","437983.744178","438750.668734","442637.260425","443404.394288","429594.37089","430361.435808","431111.625019","431879.38526","432646.704624","433413.523753","442646.665669","Mapping"
"Mixed","Both","tile","25","M_cad.wav","None","726.965946837","115","441869.839034","434180.920101","434931.568429","435698.836472","436466.170986","437233.209006","437983.744178","438750.668734","442637.260425","443404.394288","444171.523822","430361.435808","431111.625019","431879.38526","432646.704624","433413.523753","443413.839106","Mapping"
"Mixed","Both","tile","25","M_tile.wav","None","724.308016892","115","441869.839034","434180.920101","434931.568429","435698.836472","436466.170986","437233.209006","437983.744178","438750.668734","442637.260425","443404.394288","444171.523822","444939.190693","431111.625019","431879.38526","432646.704624","433413.523753","444180.524982","Mapping"
"Mixed","Both","tile","25","F_romp.wav","space","606.605653098","115","441869.839034","434180.920101","434931.568429","435698.836472","436466.170986","437233.209006","437983.744178","438750.668734","442637.260425","443404.394288","444171.523822","444939.190693","445689.450086","431879.38526","432646.704624","433413.523753","444948.51339","Mapping"
"Mixed","Both","tile","25","F_knife.wav","None","733.16479475","115","441869.839034","434180.920101","434931.568429","435698.836472","436466.170986","437233.209006","437983.744178","438750.668734","442637.260425","443404.394288","444171.523822","444939.190693","445689.450086","446456.620122","432646.704624","433413.523753","445698.497622","Mapping"
"Mixed","Both","tile","25","F_tile.wav","None","729.390453838","115","441869.839034","434180.920101","434931.568429","435698.836472","436466.170986","437233.209006","437983.744178","438750.668734","442637.260425","443404.394288","444171.523822","444939.190693","445689.450086","446456.620122","447223.935159","433413.523753","446466.310112","Mapping"
"Mixed","Both","tile","25","F_bluff.wav","None","726.517960276","115","441869.839034","434180.920101","434931.568429","435698.836472","436466.170986","437233.209006","437983.744178","438750.668734","442637.260425","443404.394288","444171.523822","444939.190693","445689.450086","446456.620122","447223.935159","447990.645459","447233.421715","Mapping"
"Mixed","Both","tile","25","M_jaw.wav","space","19.715737224","115","441869.839034","448741.04336","434931.568429","435698.836472","436466.170986","437233.209006","437983.744178","438750.668734","442637.260425","443404.394288","444171.523822","444939.190693","445689.450086","446456.620122","447223.935159","447990.645459","447999.369913","Mapping"
"Mixed","Both","tile","25","F_cad.wav","None","736.234847609","115","441869.839034","448741.04336","449508.970861","435698.836472","436466.170986","437233.209006","437983.744178","438750.668734","442637.260425","443404.394288","444171.523822","444939.190693","445689.450086","446456.620122","447223.935159","447990.645459","448750.080075","Mapping"
"Mixed","Both","tile","25","M_lash.wav","None","731.561132699","115","441869.839034","448741.04336","449508.970861","450276.100705","436466.170986","437233.209006","437983.744178","438750.668734","442637.260425","443404.394288","444171.523822","444939.190693","445689.450086","446456.620122","447223.935159","447990.645459","449518.811726","Mapping"
"Mixed","Both","tile","25","M_tile.wav","None","729.618620906","115","441869.839034","448741.04336","449508.970861","450276.100705","451043.253118","437233.209006","437983.744178","438750.668734","442637.260425","443404.394288","444171.523822","444939.190693","445689.450086","446456.620122","447223.935159","447990.645459","450285.315192","Mapping"
"Mixed","Both","tile","25","M_jaw.wav","space","558.68716749","115","441869.839034","448741.04336","449508.970861","450276.100705","451043.253118","451810.05246","437983.744178","438750.668734","442637.260425","443404.394288","444171.523822","444939.190693","445689.450086","446456.620122","447223.935159","447990.645459","451052.250259","Mapping"
"Mixed","Both","tile","25","F_cad.wav","None","722.45238172","115","441869.839034","448741.04336","449508.970861","450276.100705","451043.253118","451810.05246","452560.826311","438750.668734","442637.260425","443404.394288","444171.523822","444939.190693","445689.450086","446456.620122","447223.935159","447990.645459","451819.141115","Mapping"
"Mixed","Both","tile","25","F_cave.wav","None","735.543544666","115","441869.839034","448741.04336","449508.970861","450276.100705","451043.253118","451810.05246","452560.826311","453328.358075","442637.260425","443404.394288","444171.523822","444939.190693","445689.450086","446456.620122","447223.935159","447990.645459","452570.30081","Mapping"
"Mixed","Both","cave","14","F_cling.wav","None","731.734885943","115","456447.105432","448741.04336","449508.970861","450276.100705","451043.253118","451810.05246","452560.826311","453328.358075","442637.260425","443404.394288","444171.523822","444939.190693","445689.450086","446456.620122","447223.935159","447990.645459","453338.144216","Mapping"
"Mixed","Both","cave","14","F_cave.wav","None","735.403181723","115","456447.105432","448741.04336","449508.970861","450276.100705","451043.253118","451810.05246","452560.826311","453328.358075","457214.178079","443404.394288","444171.523822","444939.190693","445689.450086","446456.620122","447223.935159","447990.645459","456456.038574","Mapping"
"Mixed","Both","cave","14","M_done.wav","space","635.971806216","115","456447.105432","448741.04336","449508.970861","450276.100705","451043.253118","451810.05246","452560.826311","453328.358075","457214.178079","457981.758074","444171.523822","444939.190693","445689.450086","446456.620122","447223.935159","447990.645459","457222.842554","Mapping"
"Mixed","Both","cave","14","F_bluff.wav","None","726.626169584","115","456447.105432","448741.04336","449508.970861","450276.100705","451043.253118","451810.05246","452560.826311","453328.358075","457214.178079","457981.758074","458749.066617","444939.190693","445689.450086","446456.620122","447223.935159","447990.645459","457991.09561","Mapping"
"Mixed","Both","cave","14","M_cave.wav","None","723.644848367","115","456447.105432","448741.04336","449508.970861","450276.100705","451043.253118","451810.05246","452560.826311","453328.358075","457214.178079","457981.758074","458749.066617","459515.75775","445689.450086","446456.620122","447223.935159","447990.645459","458758.074888","Mapping"
"Mixed","Both","cave","14","F_done.wav","None","721.523327455","115","456447.105432","448741.04336","449508.970861","450276.100705","451043.253118","451810.05246","452560.826311","453328.358075","457214.178079","457981.758074","458749.066617","459515.75775","460266.301579","446456.620122","447223.935159","447990.645459","459524.553003","Mapping"
"Mixed","Both","cave","14","M_cling.wav","space","119.647348933","115","456447.105432","448741.04336","449508.970861","450276.100705","451043.253118","451810.05246","452560.826311","453328.358075","457214.178079","457981.758074","458749.066617","459515.75775","460266.301579","461033.888993","447223.935159","447990.645459","460275.04922","Mapping"
"Mixed","Both","cave","14","F_reek.wav","None","729.14249992","115","456447.105432","448741.04336","449508.970861","450276.100705","451043.253118","451810.05246","452560.826311","453328.358075","457214.178079","457981.758074","458749.066617","459515.75775","460266.301579","461033.888993","461801.230927","447990.645459","461043.522405","Mapping"
"Mixed","Both","cave","14","M_romp.wav","None","725.858192622","115","456447.105432","448741.04336","449508.970861","450276.100705","451043.253118","451810.05246","452560.826311","453328.358075","457214.178079","457981.758074","458749.066617","459515.75775","460266.301579","461033.888993","461801.230927","462568.071698","461810.777153","Mapping"
"Mixed","Both","cave","14","M_romp.wav","None","724.013687548","115","456447.105432","463335.659112","449508.970861","450276.100705","451043.253118","451810.05246","452560.826311","453328.358075","457214.178079","457981.758074","458749.066617","459515.75775","460266.301579","461033.888993","461801.230927","462568.071698","462576.727206","Mapping"
"Mixed","Both","cave","14","M_cave.wav","None","720.336735023","115","456447.105432","463335.659112","464086.340831","450276.100705","451043.253118","451810.05246","452560.826311","453328.358075","457214.178079","457981.758074","458749.066617","459515.75775","460266.301579","461033.888993","461801.230927","462568.071698","463344.643268","Mapping"
"Mixed","Both","cave","14","F_knife.wav","space","650.967143942","115","456447.105432","463335.659112","464086.340831","464853.203552","451043.253118","451810.05246","452560.826311","453328.358075","457214.178079","457981.758074","458749.066617","459515.75775","460266.301579","461033.888993","461801.230927","462568.071698","464095.605403","Mapping"
"Mixed","Both","cave","14","M_priest.wav","None","728.800867648","115","456447.105432","463335.659112","464086.340831","464853.203552","465620.641947","451810.05246","452560.826311","453328.358075","457214.178079","457981.758074","458749.066617","459515.75775","460266.301579","461033.888993","461801.230927","462568.071698","464862.421131","Mapping"
"Mixed","Both","cave","14","F_ball.wav","None","725.283137399","115","456447.105432","463335.659112","464086.340831","464853.203552","465620.641947","466387.903188","452560.826311","453328.358075","457214.178079","457981.758074","458749.066617","459515.75775","460266.301579","461033.888993","461801.230927","462568.071698","465629.802948","Mapping"
"Mixed","Both","cave","14","F_cave.wav","None","721.852283772","115","456447.105432","463335.659112","464086.340831","464853.203552","465620.641947","466387.903188","467138.353648","453328.358075","457214.178079","457981.758074","458749.066617","459515.75775","460266.301579","461033.888993","461801.230927","462568.071698","466397.471674","Mapping"
"Mixed","Both","cave","14","M_greet.wav","space","678.22878046","115","456447.105432","463335.659112","464086.340831","464853.203552","465620.641947","466387.903188","467138.353648","467905.576861","457214.178079","457981.758074","458749.066617","459515.75775","460266.301579","461033.888993","461801.230927","462568.071698","467148.251399","Mapping"
