"Condition","Talker","Target","Trial","current_stimulus","response_response","response_time_response","subject_nr","time_Audio1","time_Audio10","time_Audio11","time_Audio12","time_Audio13","time_Audio14","time_Audio15","time_Audio16","time_Audio2","time_Audio3","time_Audio4","time_Audio5","time_Audio6","time_Audio7","time_Audio8","time_Audio9","time_response","title"
"Blocked","Female","ball","5","F_park.wav","NA","NA","210","949927.593182","NA","NA","NA","NA","NA","NA","NA","NA","NA","NA","NA","NA","NA","NA","NA","NA","Mapping"
"Blocked","Female","ball","5","F_greet.wav","None","720.057580416","210","949927.593182","NA","NA","NA","NA","NA","NA","NA","950694.205445","NA","NA","NA","NA","NA","NA","NA","949941.444142","Mapping"
"Blocked","Female","ball","5","F_greet.wav","None","725.49129941","210","949927.593182","NA","NA","NA","NA","NA","NA","NA","950694.205445","951460.68198","NA","NA","NA","NA","NA","NA","950703.600909","Mapping"
"Blocked","Female","ball","5","F_cave.wav","None","723.712935171","210","949927.593182","NA","NA","NA","NA","NA","NA","NA","950694.205445","951460.68198","952227.207674","NA","NA","NA","NA","NA","951470.036016","Mapping"
"Blocked","Female","ball","5","F_depth.wav","None","725.135441055","210","949927.593182","NA","NA","NA","NA","NA","NA","NA","950694.205445","951460.68198","952227.207674","952994.056145","NA","NA","NA","NA","952236.126703","Mapping"
"Blocked","Female","ball","5","F_ball.wav","None","725.706174766","210","949927.593182","NA","NA","NA","NA","NA","NA","NA","950694.205445","951460.68198","952227.207674","952994.056145","953760.946354","NA","NA","NA","953003.226532","Mapping"
"Blocked","Female","ball","5","F_reek.wav","space","401.907227642","210","949927.593182","NA","NA","NA","NA","NA","NA","NA","950694.205445","951460.68198","952227.207674","952994.056145","953760.946354","954527.196266","NA","NA","953770.050268","Mapping"
"Blocked","Female","ball","5","F_cling.wav","None","727.436308021","210","949927.593182","NA","NA","NA","NA","NA","NA","NA","950694.205445","951460.68198","952227.207674","952994.056145","953760.946354","954527.196266","955294.231787","NA","954536.455694","Mapping"
"Blocked","Female","ball","5","F_bluff.wav","None","728.671145742","210","949927.593182","NA","NA","NA","NA","NA","NA","NA","950694.205445","951460.68198","952227.207674","952994.056145","953760.946354","954527.196266","955294.231787","956060.477988","955303.851711","Mapping"
"Blocked","Female","ball","5","F_greet.wav","None","730.848034262","210","949927.593182","956827.299561","NA","NA","NA","NA","NA","NA","950694.205445","951460.68198","952227.207674","952994.056145","953760.946354","954527.196266","955294.231787","956060.477988","956069.450194","Mapping"
"Blocked","Female","ball","5","F_ball.wav","None","729.105534119","210","949927.593182","956827.299561","957594.123916","NA","NA","NA","NA","NA","950694.205445","951460.68198","952227.207674","952994.056145","953760.946354","954527.196266","955294.231787","956060.477988","956835.982381","Mapping"
"Blocked","Female","ball","5","F_cling.wav","space","408.744902117","210","949927.593182","956827.299561","957594.123916","958360.8515","NA","NA","NA","NA","950694.205445","951460.68198","952227.207674","952994.056145","953760.946354","954527.196266","955294.231787","956060.477988","957603.127349","Mapping"
"Blocked","Female","ball","5","F_ball.wav","None","725.413387758","210","949927.593182","956827.299561","957594.123916","958360.8515","959128.17517","NA","NA","NA","950694.205445","951460.68198","952227.207674","952994.056145","953760.946354","954527.196266","955294.231787","956060.477988","958369.879358","Mapping"
"Blocked","Female","ball","5","F_knife.wav","space","465.681620233","210","949927.593182","956827.299561","957594.123916","958360.8515","959128.17517","959894.413642","NA","NA","950694.205445","951460.68198","952227.207674","952994.056145","953760.946354","954527.196266","955294.231787","956060.477988","959138.182488","Mapping"
"Blocked","Female","ball","5","F_ball.wav","None","724.358797976","210","949927.593182","956827.299561","957594.123916","958360.8515","959128.17517","959894.413642","960660.950466","NA","950694.205445","951460.68198","952227.207674","952994.056145","953760.946354","954527.196266","955294.231787","956060.477988","959903.364516","Mapping"
"Blocked","Female","ball","5","F_knife.wav","space","405.867736321","210","949927.593182","956827.299561","957594.123916","958360.8515","959128.17517","959894.413642","960660.950466","961428.275064","950694.205445","951460.68198","952227.207674","952994.056145","953760.946354","954527.196266","955294.231787","956060.477988","960669.99471","Mapping"
"Blocked","Female","tile","13","F_jolt.wav","None","718.836346263","210","964561.185222","956827.299561","957594.123916","958360.8515","959128.17517","959894.413642","960660.950466","961428.275064","950694.205445","951460.68198","952227.207674","952994.056145","953760.946354","954527.196266","955294.231787","956060.477988","961438.248373","Mapping"
"Blocked","Female","tile","13","F_depth.wav","None","726.019676396","210","964561.185222","956827.299561","957594.123916","958360.8515","959128.17517","959894.413642","960660.950466","961428.275064","965328.159835","951460.68198","952227.207674","952994.056145","953760.946354","954527.196266","955294.231787","956060.477988","964569.961721","Mapping"
"Blocked","Female","tile","13","F_tile.wav","None","722.590636433","210","964561.185222","956827.299561","957594.123916","958360.8515","959128.17517","959894.413642","960660.950466","961428.275064","965328.159835","966093.793564","952227.207674","952994.056145","953760.946354","954527.196266","955294.231787","956060.477988","965338.217858","Mapping"
"Blocked","Female","tile","13","F_done.wav","space","557.189158018","210","964561.185222","956827.299561","957594.123916","958360.8515","959128.17517","959894.413642","960660.950466","961428.275064","965328.159835","966093.793564","966860.97687","952994.056145","953760.946354","954527.196266","955294.231787","956060.477988","966102.547185","Mapping"
"Blocked","Female","tile","13","F_park.wav","None","728.476057469","210","964561.185222","956827.299561","957594.123916","958360.8515","959128.17517","959894.413642","960660.950466","961428.275064","965328.159835","966093.793564","966860.97687","967627.721768","953760.946354","954527.196266","955294.231787","956060.477988","966869.74935","Mapping"
"Blocked","Female","tile","13","F_tile.wav","None","726.250937965","210","964561.185222","956827.299561","957594.123916","958360.8515","959128.17517","959894.413642","960660.950466","961428.275064","965328.159835","966093.793564","966860.97687","967627.721768","968394.664227","954527.196266","955294.231787","956060.477988","967636.758591","Mapping"
"Blocked","Female","tile","13","F_jolt.wav","space","358.488489321","210","964561.185222","956827.299561","957594.123916","958360.8515","959128.17517","959894.413642","960660.950466","961428.275064","965328.159835","966093.793564","966860.97687","967627.721768","968394.664227","969161.316991","955294.231787","956060.477988","968405.223419","Mapping"
"Blocked","Female","tile","13","F_jolt.wav","None","721.855422598","210","964561.185222","956827.299561","957594.123916","958360.8515","959128.17517","959894.413642","960660.950466","961428.275064","965328.159835","966093.793564","966860.97687","967627.721768","968394.664227","969161.316991","969927.550207","956060.477988","969171.319363","Mapping"
"Blocked","Female","tile","13","F_tile.wav","None","721.726497373","210","964561.185222","956827.299561","957594.123916","958360.8515","959128.17517","959894.413642","960660.950466","961428.275064","965328.159835","966093.793564","966860.97687","967627.721768","968394.664227","969161.316991","969927.550207","970678.182853","969936.404","Mapping"
"Blocked","Female","tile","13","F_depth.wav","space","364.011868543","210","964561.185222","971444.292091","957594.123916","958360.8515","959128.17517","959894.413642","960660.950466","961428.275064","965328.159835","966093.793564","966860.97687","967627.721768","968394.664227","969161.316991","969927.550207","970678.182853","970687.626858","Mapping"
"Blocked","Female","tile","13","F_tile.wav","None","733.431485511","210","964561.185222","971444.292091","972210.52407","958360.8515","959128.17517","959894.413642","960660.950466","961428.275064","965328.159835","966093.793564","966860.97687","967627.721768","968394.664227","969161.316991","969927.550207","970678.182853","971454.254888","Mapping"
"Blocked","Female","tile","13","F_gnash.wav","space","496.280182648","210","964561.185222","971444.292091","972210.52407","972977.626063","959128.17517","959894.413642","960660.950466","961428.275064","965328.159835","966093.793564","966860.97687","967627.721768","968394.664227","969161.316991","969927.550207","970678.182853","972219.347873","Mapping"
"Blocked","Female","tile","13","F_bluff.wav","None","733.609878458","210","964561.185222","971444.292091","972210.52407","972977.626063","973744.254093","959894.413642","960660.950466","961428.275064","965328.159835","966093.793564","966860.97687","967627.721768","968394.664227","969161.316991","969927.550207","970678.182853","972986.65052","Mapping"
"Blocked","Female","tile","13","F_cling.wav","None","732.308259292","210","964561.185222","971444.292091","972210.52407","972977.626063","973744.254093","974510.372915","960660.950466","961428.275064","965328.159835","966093.793564","966860.97687","967627.721768","968394.664227","969161.316991","969927.550207","970678.182853","973753.634099","Mapping"
"Blocked","Female","tile","13","F_priest.wav","None","731.267582305","210","964561.185222","971444.292091","972210.52407","972977.626063","973744.254093","974510.372915","975277.156769","961428.275064","965328.159835","966093.793564","966860.97687","967627.721768","968394.664227","969161.316991","969927.550207","970678.182853","974519.523205","Mapping"
"Blocked","Female","tile","13","F_jolt.wav","None","732.654842432","210","964561.185222","971444.292091","972210.52407","972977.626063","973744.254093","974510.372915","975277.156769","976043.846016","965328.159835","966093.793564","966860.97687","967627.721768","968394.664227","969161.316991","969927.550207","970678.182853","975286.142888","Mapping"
"Blocked","Female","ball","3","F_romp.wav","None","731.165245961","210","979177.558478","971444.292091","972210.52407","972977.626063","973744.254093","974510.372915","975277.156769","976043.846016","965328.159835","966093.793564","966860.97687","967627.721768","968394.664227","969161.316991","969927.550207","970678.182853","976052.578304","Mapping"
"Blocked","Female","ball","3","F_ball.wav","None","725.300230377","210","979177.558478","971444.292091","972210.52407","972977.626063","973744.254093","974510.372915","975277.156769","976043.846016","979944.658306","966093.793564","966860.97687","967627.721768","968394.664227","969161.316991","969927.550207","970678.182853","979186.655281","Mapping"
"Blocked","Female","ball","3","F_done.wav","space","401.010934525","210","979177.558478","971444.292091","972210.52407","972977.626063","973744.254093","974510.372915","975277.156769","976043.846016","979944.658306","980710.943154","966860.97687","967627.721768","968394.664227","969161.316991","969927.550207","970678.182853","979954.511347","Mapping"
"Blocked","Female","ball","3","F_park.wav","None","721.39413617","210","979177.558478","971444.292091","972210.52407","972977.626063","973744.254093","974510.372915","975277.156769","976043.846016","979944.658306","980710.943154","981460.654464","967627.721768","968394.664227","969161.316991","969927.550207","970678.182853","980720.033774","Mapping"
"Blocked","Female","ball","3","F_ball.wav","None","736.581651232","210","979177.558478","971444.292091","972210.52407","972977.626063","973744.254093","974510.372915","975277.156769","976043.846016","979944.658306","980710.943154","981460.654464","982226.984761","968394.664227","969161.316991","969927.550207","970678.182853","981469.7389","Mapping"
"Blocked","Female","ball","3","F_dime.wav","space","319.573477027","210","979177.558478","971444.292091","972210.52407","972977.626063","973744.254093","974510.372915","975277.156769","976043.846016","979944.658306","980710.943154","981460.654464","982226.984761","982993.565797","969161.316991","969927.550207","970678.182853","982235.881838","Mapping"
"Blocked","Female","ball","3","F_ball.wav","None","736.218991078","210","979177.558478","971444.292091","972210.52407","972977.626063","973744.254093","974510.372915","975277.156769","976043.846016","979944.658306","980710.943154","981460.654464","982226.984761","982993.565797","983760.219179","969927.550207","970678.182853","983002.367958","Mapping"
"Blocked","Female","ball","3","F_gnash.wav","space","466.144761711","210","979177.558478","971444.292091","972210.52407","972977.626063","973744.254093","974510.372915","975277.156769","976043.846016","979944.658306","980710.943154","981460.654464","982226.984761","982993.565797","983760.219179","984526.984791","970678.182853","983769.306707","Mapping"
"Blocked","Female","ball","3","F_tile.wav","None","724.324479728","210","979177.558478","971444.292091","972210.52407","972977.626063","973744.254093","974510.372915","975277.156769","976043.846016","979944.658306","980710.943154","981460.654464","982226.984761","982993.565797","983760.219179","984526.984791","985294.023095","984543.759293","Mapping"
"Blocked","Female","ball","3","F_dime.wav","None","729.582279193","210","979177.558478","986060.265895","972210.52407","972977.626063","973744.254093","974510.372915","975277.156769","976043.846016","979944.658306","980710.943154","981460.654464","982226.984761","982993.565797","983760.219179","984526.984791","985294.023095","985303.988056","Mapping"
"Blocked","Female","ball","3","F_reek.wav","None","728.955275932","210","979177.558478","986060.265895","986827.014503","972977.626063","973744.254093","974510.372915","975277.156769","976043.846016","979944.658306","980710.943154","981460.654464","982226.984761","982993.565797","983760.219179","984526.984791","985294.023095","986069.47431","Mapping"
"Blocked","Female","ball","3","F_ball.wav","None","727.300271799","210","979177.558478","986060.265895","986827.014503","987594.003648","973744.254093","974510.372915","975277.156769","976043.846016","979944.658306","980710.943154","981460.654464","982226.984761","982993.565797","983760.219179","984526.984791","985294.023095","986836.204367","Mapping"
"Blocked","Female","ball","3","F_romp.wav","space","423.677040148","210","979177.558478","986060.265895","986827.014503","987594.003648","988360.416493","974510.372915","975277.156769","976043.846016","979944.658306","980710.943154","981460.654464","982226.984761","982993.565797","983760.219179","984526.984791","985294.023095","987603.682624","Mapping"
"Blocked","Female","ball","3","F_lash.wav","None","721.434947016","210","979177.558478","986060.265895","986827.014503","987594.003648","988360.416493","989127.373793","975277.156769","976043.846016","979944.658306","980710.943154","981460.654464","982226.984761","982993.565797","983760.219179","984526.984791","985294.023095","988372.115916","Mapping"
"Blocked","Female","ball","3","F_gnash.wav","None","723.769513861","210","979177.558478","986060.265895","986827.014503","987594.003648","988360.416493","989127.373793","989893.796842","976043.846016","979944.658306","980710.943154","981460.654464","982226.984761","982993.565797","983760.219179","984526.984791","985294.023095","989137.664623","Mapping"
"Blocked","Female","ball","3","F_gnash.wav","None","723.281020182","210","979177.558478","986060.265895","986827.014503","987594.003648","988360.416493","989127.373793","989893.796842","990660.314497","979944.658306","980710.943154","981460.654464","982226.984761","982993.565797","983760.219179","984526.984791","985294.023095","989903.191379","Mapping"
"Blocked","Female","ball","4","F_depth.wav","None","721.982183575","210","993777.63336","986060.265895","986827.014503","987594.003648","988360.416493","989127.373793","989893.796842","990660.314497","979944.658306","980710.943154","981460.654464","982226.984761","982993.565797","983760.219179","984526.984791","985294.023095","990669.42645","Mapping"
"Blocked","Female","ball","4","F_bluff.wav","None","721.488743147","210","993777.63336","986060.265895","986827.014503","987594.003648","988360.416493","989127.373793","989893.796842","990660.314497","994544.267883","980710.943154","981460.654464","982226.984761","982993.565797","983760.219179","984526.984791","985294.023095","993787.274617","Mapping"
"Blocked","Female","ball","4","F_ball.wav","space","272.366748657","210","993777.63336","986060.265895","986827.014503","987594.003648","988360.416493","989127.373793","989893.796842","990660.314497","994544.267883","995293.411241","981460.654464","982226.984761","982993.565797","983760.219179","984526.984791","985294.023095","994554.871596","Mapping"
"Blocked","Female","ball","4","F_cling.wav","space","476.874926768","210","993777.63336","986060.265895","986827.014503","987594.003648","988360.416493","989127.373793","989893.796842","990660.314497","994544.267883","995293.411241","996060.05473","982226.984761","982993.565797","983760.219179","984526.984791","985294.023095","995302.351911","Mapping"
"Blocked","Female","ball","4","F_romp.wav","None","739.147788816","210","993777.63336","986060.265895","986827.014503","987594.003648","988360.416493","989127.373793","989893.796842","990660.314497","994544.267883","995293.411241","996060.05473","996826.793135","982993.565797","983760.219179","984526.984791","985294.023095","996063.651651","Mapping"
"Blocked","Female","ball","4","F_ball.wav","None","731.430207379","210","993777.63336","986060.265895","986827.014503","987594.003648","988360.416493","989127.373793","989893.796842","990660.314497","994544.267883","995293.411241","996060.05473","996826.793135","997593.788463","983760.219179","984526.984791","985294.023095","996836.283516","Mapping"
"Blocked","Female","ball","4","F_cave.wav","space","327.350728854","210","993777.63336","986060.265895","986827.014503","987594.003648","988360.416493","989127.373793","989893.796842","990660.314497","994544.267883","995293.411241","996060.05473","996826.793135","997593.788463","998360.443082","984526.984791","985294.023095","997603.819278","Mapping"
"Blocked","Female","ball","4","F_depth.wav","None","727.501852729","210","993777.63336","986060.265895","986827.014503","987594.003648","988360.416493","989127.373793","989893.796842","990660.314497","994544.267883","995293.411241","996060.05473","996826.793135","997593.788463","998360.443082","999126.728858","985294.023095","998370.185439","Mapping"
"Blocked","Female","ball","4","F_ball.wav","None","726.714388584","210","993777.63336","986060.265895","986827.014503","987594.003648","988360.416493","989127.373793","989893.796842","990660.314497","994544.267883","995293.411241","996060.05473","996826.793135","997593.788463","998360.443082","999126.728858","999893.469118","999135.982103","Mapping"
"Blocked","Female","ball","4","F_cad.wav","space","291.954416753","210","993777.63336","1000660.01893","986827.014503","987594.003648","988360.416493","989127.373793","989893.796842","990660.314497","994544.267883","995293.411241","996060.05473","996826.793135","997593.788463","998360.443082","999126.728858","999893.469118","999903.204982","Mapping"
"Blocked","Female","ball","4","F_park.wav","None","725.422662974","210","993777.63336","1000660.01893","1001426.80804","987594.003648","988360.416493","989127.373793","989893.796842","990660.314497","994544.267883","995293.411241","996060.05473","996826.793135","997593.788463","998360.443082","999126.728858","999893.469118","1000669.71089","Mapping"
"Blocked","Female","ball","4","F_jaw.wav","None","724.027673481","210","993777.63336","1000660.01893","1001426.80804","1002193.42772","988360.416493","989127.373793","989893.796842","990660.314497","994544.267883","995293.411241","996060.05473","996826.793135","997593.788463","998360.443082","999126.728858","999893.469118","1001436.26997","Mapping"
"Blocked","Female","ball","4","F_cling.wav","None","725.681750104","210","993777.63336","1000660.01893","1001426.80804","1002193.42772","1002960.17169","989127.373793","989893.796842","990660.314497","994544.267883","995293.411241","996060.05473","996826.793135","997593.788463","998360.443082","999126.728858","999893.469118","1002202.43486","Mapping"
"Blocked","Female","ball","4","F_ball.wav","None","723.832276009","210","993777.63336","1000660.01893","1001426.80804","1002193.42772","1002960.17169","1003727.55287","989893.796842","990660.314497","994544.267883","995293.411241","996060.05473","996826.793135","997593.788463","998360.443082","999126.728858","999893.469118","1002969.25829","Mapping"
"Blocked","Female","ball","4","F_park.wav","space","328.709235881","210","993777.63336","1000660.01893","1001426.80804","1002193.42772","1002960.17169","1003727.55287","1004494.07021","990660.314497","994544.267883","995293.411241","996060.05473","996826.793135","997593.788463","998360.443082","999126.728858","999893.469118","1003738.3863","Mapping"
"Blocked","Female","ball","4","F_knife.wav","None","718.053519726","210","993777.63336","1000660.01893","1001426.80804","1002193.42772","1002960.17169","1003727.55287","1004494.07021","1005243.54037","994544.267883","995293.411241","996060.05473","996826.793135","997593.788463","998360.443082","999126.728858","999893.469118","1004504.78616","Mapping"
"Blocked","Female","done","22","F_greet.wav","None","734.687037882","210","1008377.46585","1000660.01893","1001426.80804","1002193.42772","1002960.17169","1003727.55287","1004494.07021","1005243.54037","994544.267883","995293.411241","996060.05473","996826.793135","997593.788463","998360.443082","999126.728858","999893.469118","1005253.17513","Mapping"
"Blocked","Female","done","22","F_dime.wav","None","721.631271997","210","1008377.46585","1000660.01893","1001426.80804","1002193.42772","1002960.17169","1003727.55287","1004494.07021","1005243.54037","1009143.34444","995293.411241","996060.05473","996826.793135","997593.788463","998360.443082","999126.728858","999893.469118","1008387.31394","Mapping"
"Blocked","Female","done","22","F_done.wav","None","721.331064822","210","1008377.46585","1000660.01893","1001426.80804","1002193.42772","1002960.17169","1003727.55287","1004494.07021","1005243.54037","1009143.34444","1009893.54054","996060.05473","996826.793135","997593.788463","998360.443082","999126.728858","999893.469118","1009152.67962","Mapping"
"Blocked","Female","done","22","F_dime.wav","space","378.934113047","210","1008377.46585","1000660.01893","1001426.80804","1002193.42772","1002960.17169","1003727.55287","1004494.07021","1005243.54037","1009143.34444","1009893.54054","1010659.69306","996826.793135","997593.788463","998360.443082","999126.728858","999893.469118","1009904.06541","Mapping"
"Blocked","Female","done","22","F_done.wav","None","734.066836449","210","1008377.46585","1000660.01893","1001426.80804","1002193.42772","1002960.17169","1003727.55287","1004494.07021","1005243.54037","1009143.34444","1009893.54054","1010659.69306","1011426.99756","997593.788463","998360.443082","999126.728858","999893.469118","1010669.5597","Mapping"
"Blocked","Female","done","22","F_cave.wav","space","333.975073852","210","1008377.46585","1000660.01893","1001426.80804","1002193.42772","1002960.17169","1003727.55287","1004494.07021","1005243.54037","1009143.34444","1009893.54054","1010659.69306","1011426.99756","1012193.15627","998360.443082","999126.728858","999893.469118","1011436.99622","Mapping"
"Blocked","Female","done","22","F_done.wav","None","730.399733118","210","1008377.46585","1000660.01893","1001426.80804","1002193.42772","1002960.17169","1003727.55287","1004494.07021","1005243.54037","1009143.34444","1009893.54054","1010659.69306","1011426.99756","1012193.15627","1012959.88849","999126.728858","999893.469118","1012202.71343","Mapping"
"Blocked","Female","done","22","F_cave.wav","space","449.987988628","210","1008377.46585","1000660.01893","1001426.80804","1002193.42772","1002960.17169","1003727.55287","1004494.07021","1005243.54037","1009143.34444","1009893.54054","1010659.69306","1011426.99756","1012193.15627","1012959.88849","1013726.9104","999893.469118","1012968.95963","Mapping"
"Blocked","Female","done","22","F_greet.wav","None","726.144273212","210","1008377.46585","1000660.01893","1001426.80804","1002193.42772","1002960.17169","1003727.55287","1004494.07021","1005243.54037","1009143.34444","1009893.54054","1010659.69306","1011426.99756","1012193.15627","1012959.88849","1013726.9104","1014493.53627","1013736.53466","Mapping"
"Blocked","Female","done","22","F_done.wav","None","724.746191991","210","1008377.46585","1015260.48244","1001426.80804","1002193.42772","1002960.17169","1003727.55287","1004494.07021","1005243.54037","1009143.34444","1009893.54054","1010659.69306","1011426.99756","1012193.15627","1012959.88849","1013726.9104","1014493.53627","1014503.16423","Mapping"
"Blocked","Female","done","22","F_ball.wav","space","532.255266997","210","1008377.46585","1015260.48244","1016027.33679","1002193.42772","1002960.17169","1003727.55287","1004494.07021","1005243.54037","1009143.34444","1009893.54054","1010659.69306","1011426.99756","1012193.15627","1012959.88849","1013726.9104","1014493.53627","1015270.68917","Mapping"
"Blocked","Female","done","22","F_park.wav","None","720.000074216","210","1008377.46585","1015260.48244","1016027.33679","1016793.20085","1002960.17169","1003727.55287","1004494.07021","1005243.54037","1009143.34444","1009893.54054","1010659.69306","1011426.99756","1012193.15627","1012959.88849","1013726.9104","1014493.53627","1016037.39326","Mapping"
"Blocked","Female","done","22","F_jaw.wav","None","720.096536214","210","1008377.46585","1015260.48244","1016027.33679","1016793.20085","1017543.38457","1003727.55287","1004494.07021","1005243.54037","1009143.34444","1009893.54054","1010659.69306","1011426.99756","1012193.15627","1012959.88849","1013726.9104","1014493.53627","1016802.44234","Mapping"
"Blocked","Female","done","22","F_romp.wav","None","734.103009716","210","1008377.46585","1015260.48244","1016027.33679","1016793.20085","1017543.38457","1018309.94675","1004494.07021","1005243.54037","1009143.34444","1009893.54054","1010659.69306","1011426.99756","1012193.15627","1012959.88849","1013726.9104","1014493.53627","1017553.46022","Mapping"
"Blocked","Female","done","22","F_bluff.wav","None","732.71605873","210","1008377.46585","1015260.48244","1016027.33679","1016793.20085","1017543.38457","1018309.94675","1019076.80141","1005243.54037","1009143.34444","1009893.54054","1010659.69306","1011426.99756","1012193.15627","1012959.88849","1013726.9104","1014493.53627","1018319.85792","Mapping"
"Blocked","Female","done","22","F_reek.wav","None","731.724231096","210","1008377.46585","1015260.48244","1016027.33679","1016793.20085","1017543.38457","1018309.94675","1019076.80141","1019843.37162","1009143.34444","1009893.54054","1010659.69306","1011426.99756","1012193.15627","1012959.88849","1013726.9104","1014493.53627","1019086.03394","Mapping"
"Blocked","Female","done","23","F_reek.wav","None","729.13181383","210","1022977.14468","1015260.48244","1016027.33679","1016793.20085","1017543.38457","1018309.94675","1019076.80141","1019843.37162","1009143.34444","1009893.54054","1010659.69306","1011426.99756","1012193.15627","1012959.88849","1013726.9104","1014493.53627","1019853.71006","Mapping"
"Blocked","Female","done","23","F_done.wav","None","720.972733077","210","1022977.14468","1015260.48244","1016027.33679","1016793.20085","1017543.38457","1018309.94675","1019076.80141","1019843.37162","1023743.12159","1009893.54054","1010659.69306","1011426.99756","1012193.15627","1012959.88849","1013726.9104","1014493.53627","1022987.27938","Mapping"
"Blocked","Female","done","23","F_priest.wav","space","362.279261928","210","1022977.14468","1015260.48244","1016027.33679","1016793.20085","1017543.38457","1018309.94675","1019076.80141","1019843.37162","1023743.12159","1024492.78993","1010659.69306","1011426.99756","1012193.15627","1012959.88849","1013726.9104","1014493.53627","1023752.42616","Mapping"
"Blocked","Female","done","23","F_lash.wav","None","735.609610711","210","1022977.14468","1015260.48244","1016027.33679","1016793.20085","1017543.38457","1018309.94675","1019076.80141","1019843.37162","1023743.12159","1024492.78993","1025260.04558","1011426.99756","1012193.15627","1012959.88849","1013726.9104","1014493.53627","1024502.20178","Mapping"
"Blocked","Female","done","23","F_done.wav","None","733.455601032","210","1022977.14468","1015260.48244","1016027.33679","1016793.20085","1017543.38457","1018309.94675","1019076.80141","1019843.37162","1023743.12159","1024492.78993","1025260.04558","1026026.29302","1012193.15627","1012959.88849","1013726.9104","1014493.53627","1025269.34705","Mapping"
"Blocked","Female","done","23","F_greet.wav","space","422.856494464","210","1022977.14468","1015260.48244","1016027.33679","1016793.20085","1017543.38457","1018309.94675","1019076.80141","1019843.37162","1023743.12159","1024492.78993","1025260.04558","1026026.29302","1026792.99741","1012959.88849","1013726.9104","1014493.53627","1026035.81091","Mapping"
"Blocked","Female","done","23","F_done.wav","None","736.032559653","210","1022977.14468","1015260.48244","1016027.33679","1016793.20085","1017543.38457","1018309.94675","1019076.80141","1019843.37162","1023743.12159","1024492.78993","1025260.04558","1026026.29302","1026792.99741","1027559.93956","1013726.9104","1014493.53627","1026796.63298","Mapping"
"Blocked","Female","done","23","F_park.wav","space","481.346189597","210","1022977.14468","1015260.48244","1016027.33679","1016793.20085","1017543.38457","1018309.94675","1019076.80141","1019843.37162","1023743.12159","1024492.78993","1025260.04558","1026026.29302","1026792.99741","1027559.93956","1028326.41022","1014493.53627","1027569.29236","Mapping"
"Blocked","Female","done","23","F_lash.wav","None","726.030497462","210","1022977.14468","1015260.48244","1016027.33679","1016793.20085","1017543.38457","1018309.94675","1019076.80141","1019843.37162","1023743.12159","1024492.78993","1025260.04558","1026026.29302","1026792.99741","1027559.93956","1028326.41022","1029093.29394","1028336.06416","Mapping"
"Blocked","Female","done","23","F_jolt.wav","None","724.514930422","210","1022977.14468","1029860.20734","1016027.33679","1016793.20085","1017543.38457","1018309.94675","1019076.80141","1019843.37162","1023743.12159","1024492.78993","1025260.04558","1026026.29302","1026792.99741","1027559.93956","1028326.41022","1029093.29394","1029102.68755","Mapping"
"Blocked","Female","done","23","F_knife.wav","None","722.010318335","210","1022977.14468","1029860.20734","1030626.3376","1016793.20085","1017543.38457","1018309.94675","1019076.80141","1019843.37162","1023743.12159","1024492.78993","1025260.04558","1026026.29302","1026792.99741","1027559.93956","1028326.41022","1029093.29394","1029870.43541","Mapping"
"Blocked","Female","done","23","F_done.wav","None","722.079573141","210","1022977.14468","1029860.20734","1030626.3376","1031393.06302","1017543.38457","1018309.94675","1019076.80141","1019843.37162","1023743.12159","1024492.78993","1025260.04558","1026026.29302","1026792.99741","1027559.93956","1028326.41022","1029093.29394","1030635.59981","Mapping"
"Blocked","Female","done","23","F_priest.wav","space","343.953020492","210","1022977.14468","1029860.20734","1030626.3376","1031393.06302","1032142.77495","1018309.94675","1019076.80141","1019843.37162","1023743.12159","1024492.78993","1025260.04558","1026026.29302","1026792.99741","1027559.93956","1028326.41022","1029093.29394","1031402.64337","Mapping"
"Blocked","Female","done","23","F_cad.wav","None","735.579620901","210","1022977.14468","1029860.20734","1030626.3376","1031393.06302","1032142.77495","1032909.30559","1019076.80141","1019843.37162","1023743.12159","1024492.78993","1025260.04558","1026026.29302","1026792.99741","1027559.93956","1028326.41022","1029093.29394","1032151.68285","Mapping"
"Blocked","Female","done","23","F_gnash.wav","None","733.406133309","210","1022977.14468","1029860.20734","1030626.3376","1031393.06302","1032142.77495","1032909.30559","1033676.54918","1019843.37162","1023743.12159","1024492.78993","1025260.04558","1026026.29302","1026792.99741","1027559.93956","1028326.41022","1029093.29394","1032919.11998","Mapping"
"Blocked","Female","done","23","F_bluff.wav","None","731.198018329","210","1022977.14468","1029860.20734","1030626.3376","1031393.06302","1032142.77495","1032909.30559","1033676.54918","1034443.21431","1023743.12159","1024492.78993","1025260.04558","1026026.29302","1026792.99741","1027559.93956","1028326.41022","1029093.29394","1033686.51754","Mapping"
"Blocked","Female","cave","10","F_jaw.wav","None","730.223504419","210","1037576.85659","1029860.20734","1030626.3376","1031393.06302","1032142.77495","1032909.30559","1033676.54918","1034443.21431","1023743.12159","1024492.78993","1025260.04558","1026026.29302","1026792.99741","1027559.93956","1028326.41022","1029093.29394","1034453.10415","Mapping"
"Blocked","Female","cave","10","F_reek.wav","None","721.061156626","210","1037576.85659","1029860.20734","1030626.3376","1031393.06302","1032142.77495","1032909.30559","1033676.54918","1034443.21431","1038342.86782","1024492.78993","1025260.04558","1026026.29302","1026792.99741","1027559.93956","1028326.41022","1029093.29394","1037587.03241","Mapping"
"Blocked","Female","cave","10","F_greet.wav","None","720.93625064","210","1037576.85659","1029860.20734","1030626.3376","1031393.06302","1032142.77495","1032909.30559","1033676.54918","1034443.21431","1038342.86782","1039093.0197","1025260.04558","1026026.29302","1026792.99741","1027559.93956","1028326.41022","1029093.29394","1038352.35542","Mapping"
"Blocked","Female","cave","10","F_bluff.wav","None","736.477150727","210","1037576.85659","1029860.20734","1030626.3376","1031393.06302","1032142.77495","1032909.30559","1033676.54918","1034443.21431","1038342.86782","1039093.0197","1039859.48944","1026026.29302","1026792.99741","1027559.93956","1028326.41022","1029093.29394","1039102.16752","Mapping"
"Blocked","Female","cave","10","F_cave.wav","None","734.117540851","210","1037576.85659","1029860.20734","1030626.3376","1031393.06302","1032142.77495","1032909.30559","1033676.54918","1034443.21431","1038342.86782","1039093.0197","1039859.48944","1040626.40902","1026792.99741","1027559.93956","1028326.41022","1029093.29394","1039869.63094","Mapping"
"Blocked","Female","cave","10","F_jaw.wav","space","310.602507467","210","1037576.85659","1029860.20734","1030626.3376","1031393.06302","1032142.77495","1032909.30559","1033676.54918","1034443.21431","1038342.86782","1039093.0197","1039859.48944","1040626.40902","1041393.05034","1027559.93956","1028326.41022","1029093.29394","1040635.83664","Mapping"
"Blocked","Female","cave","10","F_cad.wav","None","730.516291427","210","1037576.85659","1029860.20734","1030626.3376","1031393.06302","1032142.77495","1032909.30559","1033676.54918","1034443.21431","1038342.86782","1039093.0197","1039859.48944","1040626.40902","1041393.05034","1042159.23687","1028326.41022","1029093.29394","1041403.32912","Mapping"
"Blocked","Female","cave","10","F_tile.wav","None","730.656346888","210","1037576.85659","1029860.20734","1030626.3376","1031393.06302","1032142.77495","1032909.30559","1033676.54918","1034443.21431","1038342.86782","1039093.0197","1039859.48944","1040626.40902","1041393.05034","1042159.23687","1042926.35834","1029093.29394","1042168.39706","Mapping"
"Blocked","Female","cave","10","F_greet.wav","None","728.32889104","210","1037576.85659","1029860.20734","1030626.3376","1031393.06302","1032142.77495","1032909.30559","1033676.54918","1034443.21431","1038342.86782","1039093.0197","1039859.48944","1040626.40902","1041393.05034","1042159.23687","1042926.35834","1043693.02688","1042935.92385","Mapping"
"Blocked","Female","cave","10","F_cave.wav","None","726.550526771","210","1037576.85659","1044459.64625","1030626.3376","1031393.06302","1032142.77495","1032909.30559","1033676.54918","1034443.21431","1038342.86782","1039093.0197","1039859.48944","1040626.40902","1041393.05034","1042159.23687","1042926.35834","1043693.02688","1043702.80386","Mapping"
"Blocked","Female","cave","10","F_jaw.wav","space","492.369450832","210","1037576.85659","1044459.64625","1045226.76123","1031393.06302","1032142.77495","1032909.30559","1033676.54918","1034443.21431","1038342.86782","1039093.0197","1039859.48944","1040626.40902","1041393.05034","1042159.23687","1042926.35834","1043693.02688","1044469.99211","Mapping"
"Blocked","Female","cave","10","F_cave.wav","None","722.804584278","210","1037576.85659","1044459.64625","1045226.76123","1045993.29743","1032142.77495","1032909.30559","1033676.54918","1034443.21431","1038342.86782","1039093.0197","1039859.48944","1040626.40902","1041393.05034","1042159.23687","1042926.35834","1043693.02688","1045236.71073","Mapping"
"Blocked","Female","cave","10","F_jaw.wav","space","518.956181797","210","1037576.85659","1044459.64625","1045226.76123","1045993.29743","1046760.04542","1032909.30559","1033676.54918","1034443.21431","1038342.86782","1039093.0197","1039859.48944","1040626.40902","1041393.05034","1042159.23687","1042926.35834","1043693.02688","1046003.34958","Mapping"
"Blocked","Female","cave","10","F_romp.wav","None","719.53105845","210","1037576.85659","1044459.64625","1045226.76123","1045993.29743","1046760.04542","1047508.87219","1033676.54918","1034443.21431","1038342.86782","1039093.0197","1039859.48944","1040626.40902","1041393.05034","1042159.23687","1042926.35834","1043693.02688","1046769.97019","Mapping"
"Blocked","Female","cave","10","F_cave.wav","None","736.374505184","210","1037576.85659","1044459.64625","1045226.76123","1045993.29743","1046760.04542","1047508.87219","1048276.23512","1034443.21431","1038342.86782","1039093.0197","1039859.48944","1040626.40902","1041393.05034","1042159.23687","1042926.35834","1043693.02688","1047518.30475","Mapping"
"Blocked","Female","cave","10","F_cad.wav","space","484.40669509","210","1037576.85659","1044459.64625","1045226.76123","1045993.29743","1046760.04542","1047508.87219","1048276.23512","1049042.96116","1038342.86782","1039093.0197","1039859.48944","1040626.40902","1041393.05034","1042159.23687","1042926.35834","1043693.02688","1048285.87205","Mapping"
"Blocked","Female","tile","17","F_knife.wav","None","731.79905102","210","1052176.43711","1044459.64625","1045226.76123","1045993.29743","1046760.04542","1047508.87219","1048276.23512","1049042.96116","1038342.86782","1039093.0197","1039859.48944","1040626.40902","1041393.05034","1042159.23687","1042926.35834","1043693.02688","1049052.70321","Mapping"
"Blocked","Female","tile","17","F_tile.wav","None","720.412511233","210","1052176.43711","1044459.64625","1045226.76123","1045993.29743","1046760.04542","1047508.87219","1048276.23512","1049042.96116","1052942.5686","1039093.0197","1039859.48944","1040626.40902","1041393.05034","1042159.23687","1042926.35834","1043693.02688","1052187.49221","Mapping"
"Blocked","Female","tile","17","F_romp.wav","space","474.016311375","210","1052176.43711","1044459.64625","1045226.76123","1045993.29743","1046760.04542","1047508.87219","1048276.23512","1049042.96116","1052942.5686","1053709.98843","1039859.48944","1040626.40902","1041393.05034","1042159.23687","1042926.35834","1043693.02688","1052952.15978","Mapping"
"Blocked","Female","tile","17","F_depth.wav","None","717.975608102","210","1052176.43711","1044459.64625","1045226.76123","1045993.29743","1046760.04542","1047508.87219","1048276.23512","1049042.96116","1052942.5686","1053709.98843","1054458.87084","1040626.40902","1041393.05034","1042159.23687","1042926.35834","1043693.02688","1053720.09654","Mapping"
"Blocked","Female","tile","17","F_ball.wav","None","735.478212096","210","1052176.43711","1044459.64625","1045226.76123","1045993.29743","1046760.04542","1047508.87219","1048276.23512","1049042.96116","1052942.5686","1053709.98843","1054458.87084","1055226.14257","1041393.05034","1042159.23687","1042926.35834","1043693.02688","1054468.30341","Mapping"
"Blocked","Female","tile","17","F_tile.wav","None","733.190021245","210","1052176.43711","1044459.64625","1045226.76123","1045993.29743","1046760.04542","1047508.87219","1048276.23512","1049042.96116","1052942.5686","1053709.98843","1054458.87084","1055226.14257","1055992.78111","1042159.23687","1042926.35834","1043693.02688","1055236.00396","Mapping"
"Blocked","Female","tile","17","F_dime.wav","space","295.267825917","210","1052176.43711","1044459.64625","1045226.76123","1045993.29743","1046760.04542","1047508.87219","1048276.23512","1049042.96116","1052942.5686","1053709.98843","1054458.87084","1055226.14257","1055992.78111","1056758.99918","1042926.35834","1043693.02688","1056002.85954","Mapping"
"Blocked","Female","tile","17","F_depth.wav","None","731.439482595","210","1052176.43711","1044459.64625","1045226.76123","1045993.29743","1046760.04542","1047508.87219","1048276.23512","1049042.96116","1052942.5686","1053709.98843","1054458.87084","1055226.14257","1055992.78111","1056758.99918","1057526.10674","1043693.02688","1056768.02055","Mapping"
"Blocked","Female","tile","17","F_depth.wav","None","734.298097988","210","1052176.43711","1044459.64625","1045226.76123","1045993.29743","1046760.04542","1047508.87219","1048276.23512","1049042.96116","1052942.5686","1053709.98843","1054458.87084","1055226.14257","1055992.78111","1056758.99918","1057526.10674","1058292.36098","1057530.55451","Mapping"
"Blocked","Female","tile","17","F_jolt.wav","None","728.7317437","210","1052176.43711","1059058.95655","1045226.76123","1045993.29743","1046760.04542","1047508.87219","1048276.23512","1049042.96116","1052942.5686","1053709.98843","1054458.87084","1055226.14257","1055992.78111","1056758.99918","1057526.10674","1058292.36098","1058301.67328","Mapping"
"Blocked","Female","tile","17","F_tile.wav","None","727.794639737","210","1052176.43711","1059058.95655","1059825.85016","1045993.29743","1046760.04542","1047508.87219","1048276.23512","1049042.96116","1052942.5686","1053709.98843","1054458.87084","1055226.14257","1055992.78111","1056758.99918","1057526.10674","1058292.36098","1059067.91546","Mapping"
"Blocked","Female","tile","17","F_cad.wav","space","366.958907485","210","1052176.43711","1059058.95655","1059825.85016","1060592.70265","1046760.04542","1047508.87219","1048276.23512","1049042.96116","1052942.5686","1053709.98843","1054458.87084","1055226.14257","1055992.78111","1056758.99918","1057526.10674","1058292.36098","1059835.10402","Mapping"
"Blocked","Female","tile","17","F_reek.wav","None","724.237292889","210","1052176.43711","1059058.95655","1059825.85016","1060592.70265","1061358.97482","1047508.87219","1048276.23512","1049042.96116","1052942.5686","1053709.98843","1054458.87084","1055226.14257","1055992.78111","1056758.99918","1057526.10674","1058292.36098","1060602.46479","Mapping"
"Blocked","Female","tile","17","F_jolt.wav","None","725.560554187","210","1052176.43711","1059058.95655","1059825.85016","1060592.70265","1061358.97482","1062126.34023","1048276.23512","1049042.96116","1052942.5686","1053709.98843","1054458.87084","1055226.14257","1055992.78111","1056758.99918","1057526.10674","1058292.36098","1061368.00886","Mapping"
"Blocked","Female","tile","17","F_tile.wav","None","721.835017146","210","1052176.43711","1059058.95655","1059825.85016","1060592.70265","1061358.97482","1062126.34023","1062893.02607","1049042.96116","1052942.5686","1053709.98843","1054458.87084","1055226.14257","1055992.78111","1056758.99918","1057526.10674","1058292.36098","1062137.08802","Mapping"
"Blocked","Female","tile","17","F_bluff.wav","space","411.329590075","210","1052176.43711","1059058.95655","1059825.85016","1060592.70265","1061358.97482","1062126.34023","1062893.02607","1063659.8631","1052942.5686","1053709.98843","1054458.87084","1055226.14257","1055992.78111","1056758.99918","1057526.10674","1058292.36098","1062902.68526","Mapping"
"Blocked","Female","tile","18","F_priest.wav","None","718.657953345","210","1066776.24177","1059058.95655","1059825.85016","1060592.70265","1061358.97482","1062126.34023","1062893.02607","1063659.8631","1052942.5686","1053709.98843","1054458.87084","1055226.14257","1055992.78111","1056758.99918","1057526.10674","1058292.36098","1063670.33325","Mapping"
"Blocked","Female","tile","18","F_tile.wav","None","720.917700266","210","1066776.24177","1059058.95655","1059825.85016","1060592.70265","1061358.97482","1062126.34023","1062893.02607","1063659.8631","1067542.36863","1053709.98843","1054458.87084","1055226.14257","1055992.78111","1056758.99918","1057526.10674","1058292.36098","1066786.69739","Mapping"
"Blocked","Female","tile","18","F_jolt.wav","space","322.047480964","210","1066776.24177","1059058.95655","1059825.85016","1060592.70265","1061358.97482","1062126.34023","1062893.02607","1063659.8631","1067542.36863","1068292.83092","1054458.87084","1055226.14257","1055992.78111","1056758.99918","1057526.10674","1058292.36098","1067551.87323","Mapping"
"Blocked","Female","tile","18","F_gnash.wav","None","735.800679773","210","1066776.24177","1059058.95655","1059825.85016","1060592.70265","1061358.97482","1062126.34023","1062893.02607","1063659.8631","1067542.36863","1068292.83092","1069058.99581","1055226.14257","1055992.78111","1056758.99918","1057526.10674","1058292.36098","1068302.04521","Mapping"
"Blocked","Female","tile","18","F_ball.wav","None","734.520084341","210","1066776.24177","1059058.95655","1059825.85016","1060592.70265","1061358.97482","1062126.34023","1062893.02607","1063659.8631","1067542.36863","1068292.83092","1069058.99581","1069825.89066","1055992.78111","1056758.99918","1057526.10674","1058292.36098","1069068.82195","Mapping"
"Blocked","Female","tile","18","F_greet.wav","None","732.851785782","210","1066776.24177","1059058.95655","1059825.85016","1060592.70265","1061358.97482","1062126.34023","1062893.02607","1063659.8631","1067542.36863","1068292.83092","1069058.99581","1069825.89066","1070592.20055","1056758.99918","1057526.10674","1058292.36098","1069836.06586","Mapping"
"Blocked","Female","tile","18","F_tile.wav","space","256.281085429","210","1066776.24177","1059058.95655","1059825.85016","1060592.70265","1061358.97482","1062126.34023","1062893.02607","1063659.8631","1067542.36863","1068292.83092","1069058.99581","1069825.89066","1070592.20055","1071358.61154","1057526.10674","1058292.36098","1070601.61209","Mapping"
"Blocked","Female","tile","18","F_priest.wav","space","497.870569583","210","1066776.24177","1059058.95655","1059825.85016","1060592.70265","1061358.97482","1062126.34023","1062893.02607","1063659.8631","1067542.36863","1068292.83092","1069058.99581","1069825.89066","1070592.20055","1071358.61154","1072126.16647","1058292.36098","1071367.99649","Mapping"
"Blocked","Female","tile","18","F_gnash.wav","None","727.571725874","210","1066776.24177","1059058.95655","1059825.85016","1060592.70265","1061358.97482","1062126.34023","1062893.02607","1063659.8631","1067542.36863","1068292.83092","1069058.99581","1069825.89066","1070592.20055","1071358.61154","1072126.16647","1072892.13751","1072136.40165","Mapping"
"Blocked","Female","tile","18","F_tile.wav","None","733.667384658","210","1066776.24177","1073659.01721","1059825.85016","1060592.70265","1061358.97482","1062126.34023","1062893.02607","1063659.8631","1067542.36863","1068292.83092","1069058.99581","1069825.89066","1070592.20055","1071358.61154","1072126.16647","1072892.13751","1072896.13666","Mapping"
"Blocked","Female","tile","18","F_bluff.wav","space","357.039085357","210","1066776.24177","1073659.01721","1074425.35925","1060592.70265","1061358.97482","1062126.34023","1062893.02607","1063659.8631","1067542.36863","1068292.83092","1069058.99581","1069825.89066","1070592.20055","1071358.61154","1072126.16647","1072892.13751","1073668.80563","Mapping"
"Blocked","Female","tile","18","F_tile.wav","None","724.579856818","210","1066776.24177","1073659.01721","1074425.35925","1075192.04139","1061358.97482","1062126.34023","1062893.02607","1063659.8631","1067542.36863","1068292.83092","1069058.99581","1069825.89066","1070592.20055","1071358.61154","1072126.16647","1072892.13751","1074435.38048","Mapping"
"Blocked","Female","tile","18","F_bluff.wav","space","384.129150305","210","1066776.24177","1073659.01721","1074425.35925","1075192.04139","1075959.37371","1062126.34023","1062893.02607","1063659.8631","1067542.36863","1068292.83092","1069058.99581","1069825.89066","1070592.20055","1071358.61154","1072126.16647","1072892.13751","1075201.69563","Mapping"
"Blocked","Female","tile","18","F_greet.wav","None","721.661261807","210","1066776.24177","1073659.01721","1074425.35925","1075192.04139","1075959.37371","1076726.15695","1062893.02607","1063659.8631","1067542.36863","1068292.83092","1069058.99581","1069825.89066","1070592.20055","1071358.61154","1072126.16647","1072892.13751","1075969.65403","Mapping"
"Blocked","Female","tile","18","F_jolt.wav","None","720.298426313","210","1066776.24177","1073659.01721","1074425.35925","1075192.04139","1075959.37371","1076726.15695","1077492.23743","1063659.8631","1067542.36863","1068292.83092","1069058.99581","1069825.89066","1070592.20055","1071358.61154","1072126.16647","1072892.13751","1076736.62803","Mapping"
"Blocked","Female","tile","18","F_gnash.wav","None","721.031785186","210","1066776.24177","1073659.01721","1074425.35925","1075192.04139","1075959.37371","1076726.15695","1077492.23743","1078242.34047","1067542.36863","1068292.83092","1069058.99581","1069825.89066","1070592.20055","1071358.61154","1072126.16647","1072892.13751","1077501.65516","Mapping"
"Blocked","Female","cave","9","F_greet.wav","None","736.511778116","210","1081376.18309","1073659.01721","1074425.35925","1075192.04139","1075959.37371","1076726.15695","1077492.23743","1078242.34047","1067542.36863","1068292.83092","1069058.99581","1069825.89066","1070592.20055","1071358.61154","1072126.16647","1072892.13751","1078251.67224","Mapping"
"Blocked","Female","cave","9","F_cave.wav","None","720.920791995","210","1081376.18309","1073659.01721","1074425.35925","1075192.04139","1075959.37371","1076726.15695","1077492.23743","1078242.34047","1082142.18566","1068292.83092","1069058.99581","1069825.89066","1070592.20055","1071358.61154","1072126.16647","1072892.13751","1081386.35149","Mapping"
"Blocked","Female","cave","9","F_greet.wav","space","650.057985418","210","1081376.18309","1073659.01721","1074425.35925","1075192.04139","1075959.37371","1076726.15695","1077492.23743","1078242.34047","1082142.18566","1082891.81319","1069058.99581","1069825.89066","1070592.20055","1071358.61154","1072126.16647","1072892.13751","1082151.61204","Mapping"
"Blocked","Female","cave","9","F_jolt.wav","None","736.379761162","210","1081376.18309","1073659.01721","1074425.35925","1075192.04139","1075959.37371","1076726.15695","1077492.23743","1078242.34047","1082142.18566","1082891.81319","1083658.74699","1069825.89066","1070592.20055","1071358.61154","1072126.16647","1072892.13751","1082900.72789","Mapping"
"Blocked","Female","cave","9","F_lash.wav","None","734.282639314","210","1081376.18309","1073659.01721","1074425.35925","1075192.04139","1075959.37371","1076726.15695","1077492.23743","1078242.34047","1082142.18566","1082891.81319","1083658.74699","1084425.64029","1070592.20055","1071358.61154","1072126.16647","1072892.13751","1083668.19161","Mapping"
"Blocked","Female","cave","9","F_cave.wav","None","732.340722461","210","1081376.18309","1073659.01721","1074425.35925","1075192.04139","1075959.37371","1076726.15695","1077492.23743","1078242.34047","1082142.18566","1082891.81319","1083658.74699","1084425.64029","1085192.25905","1071358.61154","1072126.16647","1072892.13751","1084435.58454","Mapping"
"Blocked","Female","cave","9","F_romp.wav","space","359.919342882","210","1081376.18309","1073659.01721","1074425.35925","1075192.04139","1075959.37371","1076726.15695","1077492.23743","1078242.34047","1082142.18566","1082891.81319","1083658.74699","1084425.64029","1085192.25905","1085958.77701","1072126.16647","1072892.13751","1085201.69501","Mapping"
"Blocked","Female","cave","9","F_gnash.wav","None","730.913888168","210","1081376.18309","1073659.01721","1074425.35925","1075192.04139","1075959.37371","1076726.15695","1077492.23743","1078242.34047","1082142.18566","1082891.81319","1083658.74699","1084425.64029","1085192.25905","1085958.77701","1086725.14286","1072892.13751","1085968.45506","Mapping"
"Blocked","Female","cave","9","F_gnash.wav","None","730.241127283","210","1081376.18309","1073659.01721","1074425.35925","1075192.04139","1075959.37371","1076726.15695","1077492.23743","1078242.34047","1082142.18566","1082891.81319","1083658.74699","1084425.64029","1085192.25905","1085958.77701","1086725.14286","1087491.83644","1086734.59336","Mapping"
"Blocked","Female","cave","9","F_knife.wav","None","728.311577317","210","1081376.18309","1088259.05282","1074425.35925","1075192.04139","1075959.37371","1076726.15695","1077492.23743","1078242.34047","1082142.18566","1082891.81319","1083658.74699","1084425.64029","1085192.25905","1085958.77701","1086725.14286","1087491.83644","1087501.97917","Mapping"
"Blocked","Female","cave","9","F_knife.wav","None","726.749634312","210","1081376.18309","1088259.05282","1089025.54853","1075192.04139","1075959.37371","1076726.15695","1077492.23743","1078242.34047","1082142.18566","1082891.81319","1083658.74699","1084425.64029","1085192.25905","1085958.77701","1086725.14286","1087491.83644","1088268.98161","Mapping"
"Blocked","Female","cave","9","F_cave.wav","None","726.519918622","210","1081376.18309","1088259.05282","1089025.54853","1089791.79906","1075959.37371","1076726.15695","1077492.23743","1078242.34047","1082142.18566","1082891.81319","1083658.74699","1084425.64029","1085192.25905","1085958.77701","1086725.14286","1087491.83644","1089034.91277","Mapping"
"Blocked","Female","cave","9","F_bluff.wav","space","392.688610329","210","1081376.18309","1088259.05282","1089025.54853","1089791.79906","1090558.57116","1076726.15695","1077492.23743","1078242.34047","1082142.18566","1082891.81319","1083658.74699","1084425.64029","1085192.25905","1085958.77701","1086725.14286","1087491.83644","1089800.86092","Mapping"
"Blocked","Female","cave","9","F_cave.wav","None","723.357695155","210","1081376.18309","1088259.05282","1089025.54853","1089791.79906","1090558.57116","1091325.25113","1077492.23743","1078242.34047","1082142.18566","1082891.81319","1083658.74699","1084425.64029","1085192.25905","1085958.77701","1086725.14286","1087491.83644","1090568.12832","Mapping"
"Blocked","Female","cave","9","F_ball.wav","space","522.863512713","210","1081376.18309","1088259.05282","1089025.54853","1089791.79906","1090558.57116","1091325.25113","1092091.88411","1078242.34047","1082142.18566","1082891.81319","1083658.74699","1084425.64029","1085192.25905","1085958.77701","1086725.14286","1087491.83644","1091334.6299","Mapping"
"Blocked","Female","cave","9","F_dime.wav","None","720.602034417","210","1081376.18309","1088259.05282","1089025.54853","1089791.79906","1090558.57116","1091325.25113","1092091.88411","1092858.47844","1082142.18566","1082891.81319","1083658.74699","1084425.64029","1085192.25905","1085958.77701","1086725.14286","1087491.83644","1092101.08634","Mapping"
"Blocked","Female","tile","16","F_reek.wav","None","721.648585721","210","1095975.92685","1088259.05282","1089025.54853","1089791.79906","1090558.57116","1091325.25113","1092091.88411","1092858.47844","1082142.18566","1082891.81319","1083658.74699","1084425.64029","1085192.25905","1085958.77701","1086725.14286","1087491.83644","1092867.30503","Mapping"
"Blocked","Female","tile","16","F_lash.wav","None","721.27974208","210","1095975.92685","1088259.05282","1089025.54853","1089791.79906","1090558.57116","1091325.25113","1092091.88411","1092858.47844","1096741.75443","1082891.81319","1083658.74699","1084425.64029","1085192.25905","1085958.77701","1086725.14286","1087491.83644","1095985.84729","Mapping"
"Blocked","Female","tile","16","F_cling.wav","None","721.495544945","210","1095975.92685","1088259.05282","1089025.54853","1089791.79906","1090558.57116","1091325.25113","1092091.88411","1092858.47844","1096741.75443","1097508.41492","1083658.74699","1084425.64029","1085192.25905","1085958.77701","1086725.14286","1087491.83644","1096751.37837","Mapping"
"Blocked","Female","tile","16","F_jaw.wav","None","720.715810166","210","1095975.92685","1088259.05282","1089025.54853","1089791.79906","1090558.57116","1091325.25113","1092091.88411","1092858.47844","1096741.75443","1097508.41492","1098258.49631","1084425.64029","1085192.25905","1085958.77701","1086725.14286","1087491.83644","1097517.77329","Mapping"
"Blocked","Female","tile","16","F_tile.wav","space","237.516436435","210","1095975.92685","1088259.05282","1089025.54853","1089791.79906","1090558.57116","1091325.25113","1092091.88411","1092858.47844","1096741.75443","1097508.41492","1098258.49631","1099025.07487","1085192.25905","1085958.77701","1086725.14286","1087491.83644","1098267.88436","Mapping"
"Blocked","Female","tile","16","F_jaw.wav","space","382.061709097","210","1095975.92685","1088259.05282","1089025.54853","1089791.79906","1090558.57116","1091325.25113","1092091.88411","1092858.47844","1096741.75443","1097508.41492","1098258.49631","1099025.07487","1099791.63458","1085958.77701","1086725.14286","1087491.83644","1099035.29707","Mapping"
"Blocked","Female","tile","16","F_tile.wav","None","732.411832316","210","1095975.92685","1088259.05282","1089025.54853","1089791.79906","1090558.57116","1091325.25113","1092091.88411","1092858.47844","1096741.75443","1097508.41492","1098258.49631","1099025.07487","1099791.63458","1100558.56034","1086725.14286","1087491.83644","1099801.3049","Mapping"
"Blocked","Female","tile","16","F_jolt.wav","space","505.069049192","210","1095975.92685","1088259.05282","1089025.54853","1089791.79906","1090558.57116","1091325.25113","1092091.88411","1092858.47844","1096741.75443","1097508.41492","1098258.49631","1099025.07487","1099791.63458","1100558.56034","1101324.8792","1087491.83644","1100568.28724","Mapping"
"Blocked","Female","tile","16","F_tile.wav","None","730.379636865","210","1095975.92685","1088259.05282","1089025.54853","1089791.79906","1090558.57116","1091325.25113","1092091.88411","1092858.47844","1096741.75443","1097508.41492","1098258.49631","1099025.07487","1099791.63458","1100558.56034","1101324.8792","1102091.58854","1101334.3365","Mapping"
"Blocked","Female","tile","16","F_cave.wav","space","622.013812012","210","1095975.92685","1102858.15752","1089025.54853","1089791.79906","1090558.57116","1091325.25113","1092091.88411","1092858.47844","1096741.75443","1097508.41492","1098258.49631","1099025.07487","1099791.63458","1100558.56034","1101324.8792","1102091.58854","1102107.28681","Mapping"
"Blocked","Female","tile","16","F_knife.wav","None","727.683028206","210","1095975.92685","1102858.15752","1103625.25766","1089791.79906","1090558.57116","1091325.25113","1092091.88411","1092858.47844","1096741.75443","1097508.41492","1098258.49631","1099025.07487","1099791.63458","1100558.56034","1101324.8792","1102091.58854","1102867.35388","Mapping"
"Blocked","Female","tile","16","F_tile.wav","None","726.281236915","210","1095975.92685","1102858.15752","1103625.25766","1104391.60125","1090558.57116","1091325.25113","1092091.88411","1092858.47844","1096741.75443","1097508.41492","1098258.49631","1099025.07487","1099791.63458","1100558.56034","1101324.8792","1102091.58854","1103634.52172","Mapping"
"Blocked","Female","tile","16","F_romp.wav","space","479.897403973","210","1095975.92685","1102858.15752","1103625.25766","1104391.60125","1105158.28215","1091325.25113","1092091.88411","1092858.47844","1096741.75443","1097508.41492","1098258.49631","1099025.07487","1099791.63458","1100558.56034","1101324.8792","1102091.58854","1104401.377","Mapping"
"Blocked","Female","tile","16","F_reek.wav","None","723.622656573","210","1095975.92685","1102858.15752","1103625.25766","1104391.60125","1105158.28215","1105925.76535","1092091.88411","1092858.47844","1096741.75443","1097508.41492","1098258.49631","1099025.07487","1099791.63458","1100558.56034","1101324.8792","1102091.58854","1105167.75305","Mapping"
"Blocked","Female","tile","16","F_priest.wav","None","721.1375224","210","1095975.92685","1102858.15752","1103625.25766","1104391.60125","1105158.28215","1105925.76535","1106692.28486","1092858.47844","1096741.75443","1097508.41492","1098258.49631","1099025.07487","1099791.63458","1100558.56034","1101324.8792","1102091.58854","1105935.7569","Mapping"
"Blocked","Female","tile","16","F_bluff.wav","None","720.821547409","210","1095975.92685","1102858.15752","1103625.25766","1104391.60125","1105158.28215","1105925.76535","1106692.28486","1107458.87888","1096741.75443","1097508.41492","1098258.49631","1099025.07487","1099791.63458","1100558.56034","1101324.8792","1102091.58854","1106702.55652","Mapping"
"Blocked","Female","done","21","F_romp.wav","None","720.044904301","210","1110575.53488","1102858.15752","1103625.25766","1104391.60125","1105158.28215","1105925.76535","1106692.28486","1107458.87888","1096741.75443","1097508.41492","1098258.49631","1099025.07487","1099791.63458","1100558.56034","1101324.8792","1102091.58854","1107469.0615","Mapping"
"Blocked","Female","done","21","F_greet.wav","None","721.006432985","210","1110575.53488","1102858.15752","1103625.25766","1104391.60125","1105158.28215","1105925.76535","1106692.28486","1107458.87888","1111341.5458","1097508.41492","1098258.49631","1099025.07487","1099791.63458","1100558.56034","1101324.8792","1102091.58854","1110585.65566","Mapping"
"Blocked","Female","done","21","F_cave.wav","None","720.832368446","210","1110575.53488","1102858.15752","1103625.25766","1104391.60125","1105158.28215","1105925.76535","1106692.28486","1107458.87888","1111341.5458","1112109.18544","1098258.49631","1099025.07487","1099791.63458","1100558.56034","1101324.8792","1102091.58854","1111351.53735","Mapping"
"Blocked","Female","done","21","F_done.wav","None","718.975783413","210","1110575.53488","1102858.15752","1103625.25766","1104391.60125","1105158.28215","1105925.76535","1106692.28486","1107458.87888","1111341.5458","1112109.18544","1112858.59345","1099025.07487","1099791.63458","1100558.56034","1101324.8792","1102091.58854","1112119.04621","Mapping"
"Blocked","Female","done","21","F_greet.wav","space","324.812107719","210","1110575.53488","1102858.15752","1103625.25766","1104391.60125","1105158.28215","1105925.76535","1106692.28486","1107458.87888","1111341.5458","1112109.18544","1112858.59345","1113624.61179","1099791.63458","1100558.56034","1101324.8792","1102091.58854","1112868.27923","Mapping"
"Blocked","Female","done","21","F_reek.wav","None","734.538325545","210","1110575.53488","1102858.15752","1103625.25766","1104391.60125","1105158.28215","1105925.76535","1106692.28486","1107458.87888","1111341.5458","1112109.18544","1112858.59345","1113624.61179","1114391.73883","1100558.56034","1101324.8792","1102091.58854","1113633.82052","Mapping"
"Blocked","Female","done","21","F_gnash.wav","None","732.067413366","210","1110575.53488","1102858.15752","1103625.25766","1104391.60125","1105158.28215","1105925.76535","1106692.28486","1107458.87888","1111341.5458","1112109.18544","1112858.59345","1113624.61179","1114391.73883","1115158.24783","1101324.8792","1102091.58854","1114402.03615","Mapping"
"Blocked","Female","done","21","F_cave.wav","None","731.624059001","210","1110575.53488","1102858.15752","1103625.25766","1104391.60125","1105158.28215","1105925.76535","1106692.28486","1107458.87888","1111341.5458","1112109.18544","1112858.59345","1113624.61179","1114391.73883","1115158.24783","1115925.04436","1102091.58854","1115167.96514","Mapping"
"Blocked","Female","done","21","F_done.wav","None","731.264490576","210","1110575.53488","1102858.15752","1103625.25766","1104391.60125","1105158.28215","1105925.76535","1106692.28486","1107458.87888","1111341.5458","1112109.18544","1112858.59345","1113624.61179","1114391.73883","1115158.24783","1115925.04436","1116691.68754","1115934.22495","Mapping"
"Blocked","Female","done","21","F_cave.wav","space","371.471290331","210","1110575.53488","1117457.82398","1103625.25766","1104391.60125","1105158.28215","1105925.76535","1106692.28486","1107458.87888","1111341.5458","1112109.18544","1112858.59345","1113624.61179","1114391.73883","1115158.24783","1115925.04436","1116691.68754","1116701.5817","Mapping"
"Blocked","Female","done","21","F_done.wav","None","728.806254454","210","1110575.53488","1117457.82398","1118224.76706","1104391.60125","1105158.28215","1105925.76535","1106692.28486","1107458.87888","1111341.5458","1112109.18544","1112858.59345","1113624.61179","1114391.73883","1115158.24783","1115925.04436","1116691.68754","1117467.1941","Mapping"
"Blocked","Female","done","21","F_park.wav","space","383.018909342","210","1110575.53488","1117457.82398","1118224.76706","1118991.12766","1105158.28215","1105925.76535","1106692.28486","1107458.87888","1111341.5458","1112109.18544","1112858.59345","1113624.61179","1114391.73883","1115158.24783","1115925.04436","1116691.68754","1118234.00176","Mapping"
"Blocked","Female","done","21","F_lash.wav","None","725.983503129","210","1110575.53488","1117457.82398","1118224.76706","1118991.12766","1119758.69774","1105925.76535","1106692.28486","1107458.87888","1111341.5458","1112109.18544","1112858.59345","1113624.61179","1114391.73883","1115158.24783","1115925.04436","1116691.68754","1119000.16108","Mapping"
"Blocked","Female","done","21","F_reek.wav","None","723.017604614","210","1110575.53488","1117457.82398","1118224.76706","1118991.12766","1119758.69774","1120524.91148","1106692.28486","1107458.87888","1111341.5458","1112109.18544","1112858.59345","1113624.61179","1114391.73883","1115158.24783","1115925.04436","1116691.68754","1119768.97775","Mapping"
"Blocked","Female","done","21","F_done.wav","None","723.278237623","210","1110575.53488","1117457.82398","1118224.76706","1118991.12766","1119758.69774","1120524.91148","1121291.93834","1107458.87888","1111341.5458","1112109.18544","1112858.59345","1113624.61179","1114391.73883","1115158.24783","1115925.04436","1116691.68754","1120534.38763","Mapping"
"Blocked","Female","done","21","F_depth.wav","space","355.015546782","210","1110575.53488","1117457.82398","1118224.76706","1118991.12766","1119758.69774","1120524.91148","1121291.93834","1122058.01388","1111341.5458","1112109.18544","1112858.59345","1113624.61179","1114391.73883","1115158.24783","1115925.04436","1116691.68754","1121301.96854","Mapping"
"Blocked","Female","tile","14","F_gnash.wav","None","719.633394765","210","1125175.33274","1117457.82398","1118224.76706","1118991.12766","1119758.69774","1120524.91148","1121291.93834","1122058.01388","1111341.5458","1112109.18544","1112858.59345","1113624.61179","1114391.73883","1115158.24783","1115925.04436","1116691.68754","1122068.6247","Mapping"
"Blocked","Female","tile","14","F_depth.wav","None","720.658303937","210","1125175.33274","1117457.82398","1118224.76706","1118991.12766","1119758.69774","1120524.91148","1121291.93834","1122058.01388","1125941.76445","1112109.18544","1112858.59345","1113624.61179","1114391.73883","1115158.24783","1115925.04436","1116691.68754","1125185.85421","Mapping"
"Blocked","Female","tile","14","F_cave.wav","None","720.102101361","210","1125175.33274","1117457.82398","1118224.76706","1118991.12766","1119758.69774","1120524.91148","1121291.93834","1122058.01388","1125941.76445","1126707.92377","1112858.59345","1113624.61179","1114391.73883","1115158.24783","1115925.04436","1116691.68754","1125952.24696","Mapping"
"Blocked","Female","tile","14","F_tile.wav","None","720.732196321","210","1125175.33274","1117457.82398","1118224.76706","1118991.12766","1119758.69774","1120524.91148","1121291.93834","1122058.01388","1125941.76445","1126707.92377","1127475.16427","1113624.61179","1114391.73883","1115158.24783","1115925.04436","1116691.68754","1126717.38632","Mapping"
"Blocked","Female","tile","14","F_gnash.wav","space","243.526145088","210","1125175.33274","1117457.82398","1118224.76706","1118991.12766","1119758.69774","1120524.91148","1121291.93834","1122058.01388","1125941.76445","1126707.92377","1127475.16427","1128224.68575","1114391.73883","1115158.24783","1115925.04436","1116691.68754","1127485.34936","Mapping"
"Blocked","Female","tile","14","F_dime.wav","None","733.750243089","210","1125175.33274","1117457.82398","1118224.76706","1118991.12766","1119758.69774","1120524.91148","1121291.93834","1122058.01388","1125941.76445","1126707.92377","1127475.16427","1128224.68575","1128991.04758","1115158.24783","1115925.04436","1116691.68754","1128234.73264","Mapping"
"Blocked","Female","tile","14","F_tile.wav","None","734.281711804","210","1125175.33274","1117457.82398","1118224.76706","1118991.12766","1119758.69774","1120524.91148","1121291.93834","1122058.01388","1125941.76445","1126707.92377","1127475.16427","1128224.68575","1128991.04758","1129757.60728","1115925.04436","1116691.68754","1129000.09924","Mapping"
"Blocked","Female","tile","14","F_jaw.wav","space","593.95819917","210","1125175.33274","1117457.82398","1118224.76706","1118991.12766","1119758.69774","1120524.91148","1121291.93834","1122058.01388","1125941.76445","1126707.92377","1127475.16427","1128224.68575","1128991.04758","1129757.60728","1130524.84779","1116691.68754","1129766.86455","Mapping"
"Blocked","Female","tile","14","F_park.wav","None","731.05177941","210","1125175.33274","1117457.82398","1118224.76706","1118991.12766","1119758.69774","1120524.91148","1121291.93834","1122058.01388","1125941.76445","1126707.92377","1127475.16427","1128224.68575","1128991.04758","1129757.60728","1130524.84779","1131291.41955","1130534.38794","Mapping"
"Blocked","Female","tile","14","F_gnash.wav","None","729.828381067","210","1125175.33274","1132057.62463","1118224.76706","1118991.12766","1119758.69774","1120524.91148","1121291.93834","1122058.01388","1125941.76445","1126707.92377","1127475.16427","1128224.68575","1128991.04758","1129757.60728","1130524.84779","1131291.41955","1131301.44789","Mapping"
"Blocked","Female","tile","14","F_tile.wav","None","730.101071793","210","1125175.33274","1132057.62463","1132824.32872","1118991.12766","1119758.69774","1120524.91148","1121291.93834","1122058.01388","1125941.76445","1126707.92377","1127475.16427","1128224.68575","1128991.04758","1129757.60728","1130524.84779","1131291.41955","1132067.13912","Mapping"
"Blocked","Female","tile","14","F_gnash.wav","space","559.086863126","210","1125175.33274","1132057.62463","1132824.32872","1133591.29374","1119758.69774","1120524.91148","1121291.93834","1122058.01388","1125941.76445","1126707.92377","1127475.16427","1128224.68575","1128991.04758","1129757.60728","1130524.84779","1131291.41955","1132833.70347","Mapping"
"Blocked","Female","tile","14","F_gnash.wav","None","727.431670384","210","1125175.33274","1132057.62463","1132824.32872","1133591.29374","1134357.97279","1120524.91148","1121291.93834","1122058.01388","1125941.76445","1126707.92377","1127475.16427","1128224.68575","1128991.04758","1129757.60728","1130524.84779","1131291.41955","1133601.08186","Mapping"
"Blocked","Female","tile","14","F_jolt.wav","None","726.605559612","210","1125175.33274","1132057.62463","1132824.32872","1133591.29374","1134357.97279","1135124.75448","1121291.93834","1122058.01388","1125941.76445","1126707.92377","1127475.16427","1128224.68575","1128991.04758","1129757.60728","1130524.84779","1131291.41955","1134367.82738","Mapping"
"Blocked","Female","tile","14","F_tile.wav","None","726.63895032","210","1125175.33274","1132057.62463","1132824.32872","1133591.29374","1134357.97279","1135124.75448","1135891.33861","1122058.01388","1125941.76445","1126707.92377","1127475.16427","1128224.68575","1128991.04758","1129757.60728","1130524.84779","1131291.41955","1135134.14067","Mapping"
"Blocked","Female","tile","14","F_park.wav","space","450.107638666","210","1125175.33274","1132057.62463","1132824.32872","1133591.29374","1134357.97279","1135124.75448","1135891.33861","1136657.70508","1125941.76445","1126707.92377","1127475.16427","1128224.68575","1128991.04758","1129757.60728","1130524.84779","1131291.41955","1135902.58447","Mapping"
"Blocked","Female","done","19","F_cling.wav","None","724.25924422","210","1139791.62036","1132057.62463","1132824.32872","1133591.29374","1134357.97279","1135124.75448","1135891.33861","1136657.70508","1125941.76445","1126707.92377","1127475.16427","1128224.68575","1128991.04758","1129757.60728","1130524.84779","1131291.41955","1136667.12249","Mapping"
"Blocked","Female","done","19","F_lash.wav","None","720.787538332","210","1139791.62036","1132057.62463","1132824.32872","1133591.29374","1134357.97279","1135124.75448","1135891.33861","1136657.70508","1140557.67209","1126707.92377","1127475.16427","1128224.68575","1128991.04758","1129757.60728","1130524.84779","1131291.41955","1139802.04413","Mapping"
"Blocked","Female","done","19","F_ball.wav","None","721.659097588","210","1139791.62036","1132057.62463","1132824.32872","1133591.29374","1134357.97279","1135124.75448","1135891.33861","1136657.70508","1140557.67209","1141324.3771","1127475.16427","1128224.68575","1128991.04758","1129757.60728","1130524.84779","1131291.41955","1140566.95192","Mapping"
"Blocked","Female","done","19","F_gnash.wav","None","720.646246162","210","1139791.62036","1132057.62463","1132824.32872","1133591.29374","1134357.97279","1135124.75448","1135891.33861","1136657.70508","1140557.67209","1141324.3771","1142091.6646","1128224.68575","1128991.04758","1129757.60728","1130524.84779","1131291.41955","1141333.79452","Mapping"
"Blocked","Female","done","19","F_done.wav","None","718.428855995","210","1139791.62036","1132057.62463","1132824.32872","1133591.29374","1134357.97279","1135124.75448","1135891.33861","1136657.70508","1140557.67209","1141324.3771","1142091.6646","1142841.20153","1128991.04758","1129757.60728","1130524.84779","1131291.41955","1142101.9579","Mapping"
"Blocked","Female","done","19","F_ball.wav","space","445.103670412","210","1139791.62036","1132057.62463","1132824.32872","1133591.29374","1134357.97279","1135124.75448","1135891.33861","1136657.70508","1140557.67209","1141324.3771","1142091.6646","1142841.20153","1143607.71239","1129757.60728","1130524.84779","1131291.41955","1142851.46577","Mapping"
"Blocked","Female","done","19","F_done.wav","None","732.895070018","210","1139791.62036","1132057.62463","1132824.32872","1133591.29374","1134357.97279","1135124.75448","1135891.33861","1136657.70508","1140557.67209","1141324.3771","1142091.6646","1142841.20153","1143607.71239","1144374.12771","1130524.84779","1131291.41955","1143617.99858","Mapping"
"Blocked","Female","done","19","F_greet.wav","space","577.010870213","210","1139791.62036","1132057.62463","1132824.32872","1133591.29374","1134357.97279","1135124.75448","1135891.33861","1136657.70508","1140557.67209","1141324.3771","1142091.6646","1142841.20153","1143607.71239","1144374.12771","1145140.75883","1131291.41955","1144383.55069","Mapping"
"Blocked","Female","done","19","F_jaw.wav","None","731.785756565","210","1139791.62036","1132057.62463","1132824.32872","1133591.29374","1134357.97279","1135124.75448","1135891.33861","1136657.70508","1140557.67209","1141324.3771","1142091.6646","1142841.20153","1143607.71239","1144374.12771","1145140.75883","1145907.27865","1145149.75608","Mapping"
"Blocked","Female","done","19","F_done.wav","None","730.350574566","210","1139791.62036","1146674.05292","1132824.32872","1133591.29374","1134357.97279","1135124.75448","1135891.33861","1136657.70508","1140557.67209","1141324.3771","1142091.6646","1142841.20153","1143607.71239","1144374.12771","1145140.75883","1145907.27865","1145916.93505","Mapping"
"Blocked","Female","done","19","F_tile.wav","space","485.233424231","210","1139791.62036","1146674.05292","1147440.69981","1133591.29374","1134357.97279","1135124.75448","1135891.33861","1136657.70508","1140557.67209","1141324.3771","1142091.6646","1142841.20153","1143607.71239","1144374.12771","1145140.75883","1145907.27865","1146683.29998","Mapping"
"Blocked","Female","done","19","F_done.wav","None","728.001476615","210","1139791.62036","1146674.05292","1147440.69981","1148207.43945","1134357.97279","1135124.75448","1135891.33861","1136657.70508","1140557.67209","1141324.3771","1142091.6646","1142841.20153","1143607.71239","1144374.12771","1145140.75883","1145907.27865","1147449.94749","Mapping"
"Blocked","Female","done","19","F_cad.wav","space","504.01415024","210","1139791.62036","1146674.05292","1147440.69981","1148207.43945","1148974.01739","1135124.75448","1135891.33861","1136657.70508","1140557.67209","1141324.3771","1142091.6646","1142841.20153","1143607.71239","1144374.12771","1145140.75883","1145907.27865","1148216.46576","Mapping"
"Blocked","Female","done","19","F_priest.wav","None","725.161102426","210","1139791.62036","1146674.05292","1147440.69981","1148207.43945","1148974.01739","1149740.85813","1135891.33861","1136657.70508","1140557.67209","1141324.3771","1142091.6646","1142841.20153","1143607.71239","1144374.12771","1145140.75883","1145907.27865","1148983.26631","Mapping"
"Blocked","Female","done","19","F_priest.wav","None","724.450004054","210","1139791.62036","1146674.05292","1147440.69981","1148207.43945","1148974.01739","1149740.85813","1150508.33825","1136657.70508","1140557.67209","1141324.3771","1142091.6646","1142841.20153","1143607.71239","1144374.12771","1145140.75883","1145907.27865","1149749.93113","Mapping"
"Blocked","Female","done","19","F_cling.wav","None","721.514713718","210","1139791.62036","1146674.05292","1147440.69981","1148207.43945","1148974.01739","1149740.85813","1150508.33825","1151274.77521","1140557.67209","1141324.3771","1142091.6646","1142841.20153","1143607.71239","1144374.12771","1145140.75883","1145907.27865","1150518.61269","Mapping"
"Blocked","Female","done","20","F_park.wav","None","721.947556187","210","1154391.27322","1146674.05292","1147440.69981","1148207.43945","1148974.01739","1149740.85813","1150508.33825","1151274.77521","1140557.67209","1141324.3771","1142091.6646","1142841.20153","1143607.71239","1144374.12771","1145140.75883","1145907.27865","1151284.56981","Mapping"
"Blocked","Female","done","20","F_done.wav","None","720.021407149","210","1154391.27322","1146674.05292","1147440.69981","1148207.43945","1148974.01739","1149740.85813","1150508.33825","1151274.77521","1155157.37565","1141324.3771","1142091.6646","1142841.20153","1143607.71239","1144374.12771","1145140.75883","1145907.27865","1154402.04512","Mapping"
"Blocked","Female","done","20","F_gnash.wav","space","401.866416767","210","1154391.27322","1146674.05292","1147440.69981","1148207.43945","1148974.01739","1149740.85813","1150508.33825","1151274.77521","1155157.37565","1155924.6347","1142091.6646","1142841.20153","1143607.71239","1144374.12771","1145140.75883","1145907.27865","1155166.46287","Mapping"
"Blocked","Female","done","20","F_cling.wav","None","717.115179054","210","1154391.27322","1146674.05292","1147440.69981","1148207.43945","1148974.01739","1149740.85813","1150508.33825","1151274.77521","1155157.37565","1155924.6347","1156673.71808","1142841.20153","1143607.71239","1144374.12771","1145140.75883","1145907.27865","1155936.02279","Mapping"
"Blocked","Female","done","20","F_done.wav","None","735.849529126","210","1154391.27322","1146674.05292","1147440.69981","1148207.43945","1148974.01739","1149740.85813","1150508.33825","1151274.77521","1155157.37565","1155924.6347","1156673.71808","1157440.87109","1143607.71239","1144374.12771","1145140.75883","1145907.27865","1156683.1423","Mapping"
"Blocked","Female","done","20","F_tile.wav","space","365.137568151","210","1154391.27322","1146674.05292","1147440.69981","1148207.43945","1148974.01739","1149740.85813","1150508.33825","1151274.77521","1155157.37565","1155924.6347","1156673.71808","1157440.87109","1158207.97246","1144374.12771","1145140.75883","1145907.27865","1157451.19778","Mapping"
"Blocked","Female","done","20","F_park.wav","None","731.527906144","210","1154391.27322","1146674.05292","1147440.69981","1148207.43945","1148974.01739","1149740.85813","1150508.33825","1151274.77521","1155157.37565","1155924.6347","1156673.71808","1157440.87109","1158207.97246","1158974.27493","1145140.75883","1145907.27865","1158217.78995","Mapping"
"Blocked","Female","done","20","F_priest.wav","None","731.456177949","210","1154391.27322","1146674.05292","1147440.69981","1148207.43945","1148974.01739","1149740.85813","1150508.33825","1151274.77521","1155157.37565","1155924.6347","1156673.71808","1157440.87109","1158207.97246","1158974.27493","1159740.51403","1145907.27865","1158983.83117","Mapping"
"Blocked","Female","done","20","F_done.wav","None","731.967859581","210","1154391.27322","1146674.05292","1147440.69981","1148207.43945","1148974.01739","1149740.85813","1150508.33825","1151274.77521","1155157.37565","1155924.6347","1156673.71808","1157440.87109","1158207.97246","1158974.27493","1159740.51403","1160507.03013","1159749.54188","Mapping"
"Blocked","Female","done","20","F_reek.wav","space","347.867462377","210","1154391.27322","1161273.79327","1147440.69981","1148207.43945","1148974.01739","1149740.85813","1150508.33825","1151274.77521","1155157.37565","1155924.6347","1156673.71808","1157440.87109","1158207.97246","1158974.27493","1159740.51403","1160507.03013","1160516.41261","Mapping"
"Blocked","Female","done","20","F_reek.wav","None","728.911373328","210","1154391.27322","1161273.79327","1162040.87795","1148207.43945","1148974.01739","1149740.85813","1150508.33825","1151274.77521","1155157.37565","1155924.6347","1156673.71808","1157440.87109","1158207.97246","1158974.27493","1159740.51403","1160507.03013","1161282.97294","Mapping"
"Blocked","Female","done","20","F_bluff.wav","None","727.097454161","210","1154391.27322","1161273.79327","1162040.87795","1162806.98224","1148974.01739","1149740.85813","1150508.33825","1151274.77521","1155157.37565","1155924.6347","1156673.71808","1157440.87109","1158207.97246","1158974.27493","1159740.51403","1160507.03013","1162050.6336","Mapping"
"Blocked","Female","done","20","F_done.wav","None","727.640671481","210","1154391.27322","1161273.79327","1162040.87795","1162806.98224","1163573.73394","1149740.85813","1150508.33825","1151274.77521","1155157.37565","1155924.6347","1156673.71808","1157440.87109","1158207.97246","1158974.27493","1159740.51403","1160507.03013","1162816.08214","Mapping"
"Blocked","Female","done","20","F_cling.wav","space","353.21584958","210","1154391.27322","1161273.79327","1162040.87795","1162806.98224","1163573.73394","1164340.83686","1150508.33825","1151274.77521","1155157.37565","1155924.6347","1156673.71808","1157440.87109","1158207.97246","1158974.27493","1159740.51403","1160507.03013","1163582.99059","Mapping"
"Blocked","Female","done","20","F_romp.wav","None","724.03200189","210","1154391.27322","1161273.79327","1162040.87795","1162806.98224","1163573.73394","1164340.83686","1165107.83219","1151274.77521","1155157.37565","1155924.6347","1156673.71808","1157440.87109","1158207.97246","1158974.27493","1159740.51403","1160507.03013","1164350.7808","Mapping"
"Blocked","Female","done","20","F_depth.wav","None","728.647957789","210","1154391.27322","1161273.79327","1162040.87795","1162806.98224","1163573.73394","1164340.83686","1165107.83219","1165874.52824","1155157.37565","1155924.6347","1156673.71808","1157440.87109","1158207.97246","1158974.27493","1159740.51403","1160507.03013","1165112.31366","Mapping"
"Blocked","Female","cave","12","F_cling.wav","None","722.898572974","210","1169007.79797","1161273.79327","1162040.87795","1162806.98224","1163573.73394","1164340.83686","1165107.83219","1165874.52824","1155157.37565","1155924.6347","1156673.71808","1157440.87109","1158207.97246","1158974.27493","1159740.51403","1160507.03013","1165884.46754","Mapping"
"Blocked","Female","cave","12","F_done.wav","None","719.814879471","210","1169007.79797","1161273.79327","1162040.87795","1162806.98224","1163573.73394","1164340.83686","1165107.83219","1165874.52824","1169774.38271","1155924.6347","1156673.71808","1157440.87109","1158207.97246","1158974.27493","1159740.51403","1160507.03013","1169018.9786","Mapping"
"Blocked","Female","cave","12","F_cave.wav","None","719.659056136","210","1169007.79797","1161273.79327","1162040.87795","1162806.98224","1163573.73394","1164340.83686","1165107.83219","1165874.52824","1169774.38271","1170541.0395","1156673.71808","1157440.87109","1158207.97246","1158974.27493","1159740.51403","1160507.03013","1169785.08443","Mapping"
"Blocked","Female","cave","12","F_cling.wav","space","544.711236871","210","1169007.79797","1161273.79327","1162040.87795","1162806.98224","1163573.73394","1164340.83686","1165107.83219","1165874.52824","1169774.38271","1170541.0395","1171290.59158","1157440.87109","1158207.97246","1158974.27493","1159740.51403","1160507.03013","1170551.36588","Mapping"
"Blocked","Female","cave","12","F_cave.wav","None","734.829566733","210","1169007.79797","1161273.79327","1162040.87795","1162806.98224","1163573.73394","1164340.83686","1165107.83219","1165874.52824","1169774.38271","1170541.0395","1171290.59158","1172056.72988","1158207.97246","1158974.27493","1159740.51403","1160507.03013","1171300.444","Mapping"
"Blocked","Female","cave","12","F_ball.wav","space","573.980354529","210","1169007.79797","1161273.79327","1162040.87795","1162806.98224","1163573.73394","1164340.83686","1165107.83219","1165874.52824","1169774.38271","1170541.0395","1171290.59158","1172056.72988","1172824.00779","1158974.27493","1159740.51403","1160507.03013","1172066.06629","Mapping"
"Blocked","Female","cave","12","F_cave.wav","None","732.417397405","210","1169007.79797","1161273.79327","1162040.87795","1162806.98224","1163573.73394","1164340.83686","1165107.83219","1165874.52824","1169774.38271","1170541.0395","1171290.59158","1172056.72988","1172824.00779","1173590.33624","1159740.51403","1160507.03013","1172833.37265","Mapping"
"Blocked","Female","cave","12","F_romp.wav","space","679.264031758","210","1169007.79797","1161273.79327","1162040.87795","1162806.98224","1163573.73394","1164340.83686","1165107.83219","1165874.52824","1169774.38271","1170541.0395","1171290.59158","1172056.72988","1172824.00779","1173590.33624","1174357.30776","1160507.03013","1173600.73342","Mapping"
"Blocked","Female","cave","12","F_reek.wav","None","729.137069779","210","1169007.79797","1161273.79327","1162040.87795","1162806.98224","1163573.73394","1164340.83686","1165107.83219","1165874.52824","1169774.38271","1170541.0395","1171290.59158","1172056.72988","1172824.00779","1173590.33624","1174357.30776","1175123.97227","1174367.30085","Mapping"
"Blocked","Female","cave","12","F_jolt.wav","None","728.889112885","210","1169007.79797","1175890.38883","1162040.87795","1162806.98224","1163573.73394","1164340.83686","1165107.83219","1165874.52824","1169774.38271","1170541.0395","1171290.59158","1172056.72988","1172824.00779","1173590.33624","1174357.30776","1175123.97227","1175133.52108","Mapping"
"Blocked","Female","cave","12","F_romp.wav","None","729.266613343","210","1169007.79797","1175890.38883","1176657.2645","1162806.98224","1163573.73394","1164340.83686","1165107.83219","1165874.52824","1169774.38271","1170541.0395","1171290.59158","1172056.72988","1172824.00779","1173590.33624","1174357.30776","1175123.97227","1175899.73513","Mapping"
"Blocked","Female","cave","12","F_park.wav","None","728.089590993","210","1169007.79797","1175890.38883","1176657.2645","1177423.53173","1163573.73394","1164340.83686","1165107.83219","1165874.52824","1169774.38271","1170541.0395","1171290.59158","1172056.72988","1172824.00779","1173590.33624","1174357.30776","1175123.97227","1176666.91504","Mapping"
"Blocked","Female","cave","12","F_depth.wav","None","728.138749517","210","1169007.79797","1175890.38883","1176657.2645","1177423.53173","1178190.57467","1164340.83686","1165107.83219","1165874.52824","1169774.38271","1170541.0395","1171290.59158","1172056.72988","1172824.00779","1173590.33624","1174357.30776","1175123.97227","1177432.96275","Mapping"
"Blocked","Female","cave","12","F_bluff.wav","None","725.789651537","210","1169007.79797","1175890.38883","1176657.2645","1177423.53173","1178190.57467","1178956.9464","1165107.83219","1165874.52824","1169774.38271","1170541.0395","1171290.59158","1172056.72988","1172824.00779","1173590.33624","1174357.30776","1175123.97227","1178201.49127","Mapping"
"Blocked","Female","cave","12","F_cave.wav","None","726.073781698","210","1169007.79797","1175890.38883","1176657.2645","1177423.53173","1178190.57467","1178956.9464","1179723.46096","1165874.52824","1169774.38271","1170541.0395","1171290.59158","1172056.72988","1172824.00779","1173590.33624","1174357.30776","1175123.97227","1178967.25639","Mapping"
"Blocked","Female","cave","12","F_dime.wav","space","371.288878145","210","1169007.79797","1175890.38883","1176657.2645","1177423.53173","1178190.57467","1178956.9464","1179723.46096","1180490.12022","1169774.38271","1170541.0395","1171290.59158","1172056.72988","1172824.00779","1173590.33624","1174357.30776","1175123.97227","1179732.66412","Mapping"
"Blocked","Female","tile","15","F_priest.wav","None","724.636744679","210","1183624.06239","1175890.38883","1176657.2645","1177423.53173","1178190.57467","1178956.9464","1179723.46096","1180490.12022","1169774.38271","1170541.0395","1171290.59158","1172056.72988","1172824.00779","1173590.33624","1174357.30776","1175123.97227","1180499.5939","Mapping"
"Blocked","Female","tile","15","F_tile.wav","None","721.753395395","210","1183624.06239","1175890.38883","1176657.2645","1177423.53173","1178190.57467","1178956.9464","1179723.46096","1180490.12022","1184390.22697","1170541.0395","1171290.59158","1172056.72988","1172824.00779","1173590.33624","1174357.30776","1175123.97227","1183634.77957","Mapping"
"Blocked","Female","tile","15","F_romp.wav","space","416.07508951","210","1183624.06239","1175890.38883","1176657.2645","1177423.53173","1178190.57467","1178956.9464","1179723.46096","1180490.12022","1184390.22697","1185157.59022","1171290.59158","1172056.72988","1172824.00779","1173590.33624","1174357.30776","1175123.97227","1184399.77919","Mapping"
"Blocked","Female","tile","15","F_priest.wav","None","719.959572511","210","1183624.06239","1175890.38883","1176657.2645","1177423.53173","1178190.57467","1178956.9464","1179723.46096","1180490.12022","1184390.22697","1185157.59022","1185923.52137","1172056.72988","1172824.00779","1173590.33624","1174357.30776","1175123.97227","1185167.63896","Mapping"
"Blocked","Female","tile","15","F_tile.wav","None","721.208632225","210","1183624.06239","1175890.38883","1176657.2645","1177423.53173","1178190.57467","1178956.9464","1179723.46096","1180490.12022","1184390.22697","1185157.59022","1185923.52137","1186690.21309","1172824.00779","1173590.33624","1174357.30776","1175123.97227","1185932.70258","Mapping"
"Blocked","Female","tile","15","F_romp.wav","None","720.679018559","210","1183624.06239","1175890.38883","1176657.2645","1177423.53173","1178190.57467","1178956.9464","1179723.46096","1180490.12022","1184390.22697","1185157.59022","1185923.52137","1186690.21309","1187457.36703","1173590.33624","1174357.30776","1175123.97227","1186699.48767","Mapping"
"Blocked","Female","tile","15","F_gnash.wav","space","107.801274571","210","1183624.06239","1175890.38883","1176657.2645","1177423.53173","1178190.57467","1178956.9464","1179723.46096","1180490.12022","1184390.22697","1185157.59022","1185923.52137","1186690.21309","1187457.36703","1188206.46803","1174357.30776","1175123.97227","1187467.98929","Mapping"
"Blocked","Female","tile","15","F_tile.wav","None","735.498926719","210","1183624.06239","1175890.38883","1176657.2645","1177423.53173","1178190.57467","1178956.9464","1179723.46096","1180490.12022","1184390.22697","1185157.59022","1185923.52137","1186690.21309","1187457.36703","1188206.46803","1188973.72522","1175123.97227","1188215.64676","Mapping"
"Blocked","Female","tile","15","F_park.wav","space","520.288718282","210","1183624.06239","1175890.38883","1176657.2645","1177423.53173","1178190.57467","1178956.9464","1179723.46096","1180490.12022","1184390.22697","1185157.59022","1185923.52137","1186690.21309","1187457.36703","1188206.46803","1188973.72522","1189739.98998","1188983.47809","Mapping"
"Blocked","Female","tile","15","F_knife.wav","None","732.595172012","210","1183624.06239","1190507.06198","1176657.2645","1177423.53173","1178190.57467","1178956.9464","1179723.46096","1180490.12022","1184390.22697","1185157.59022","1185923.52137","1186690.21309","1187457.36703","1188206.46803","1188973.72522","1189739.98998","1189749.44109","Mapping"
"Blocked","Female","tile","15","F_depth.wav","None","731.576446327","210","1183624.06239","1190507.06198","1191273.703","1177423.53173","1178190.57467","1178956.9464","1179723.46096","1180490.12022","1184390.22697","1185157.59022","1185923.52137","1186690.21309","1187457.36703","1188206.46803","1188973.72522","1189739.98998","1190517.26099","Mapping"
"Blocked","Female","tile","15","F_tile.wav","None","730.787436303","210","1183624.06239","1190507.06198","1191273.703","1192040.36936","1178190.57467","1178956.9464","1179723.46096","1180490.12022","1184390.22697","1185157.59022","1185923.52137","1186690.21309","1187457.36703","1188206.46803","1188973.72522","1189739.98998","1191284.25075","Mapping"
"Blocked","Female","tile","15","F_knife.wav","space","373.582015745","210","1183624.06239","1190507.06198","1191273.703","1192040.36936","1192806.883","1178956.9464","1179723.46096","1180490.12022","1184390.22697","1185157.59022","1185923.52137","1186690.21309","1187457.36703","1188206.46803","1188973.72522","1189739.98998","1192050.11728","Mapping"
"Blocked","Female","tile","15","F_romp.wav","None","728.413604491","210","1183624.06239","1190507.06198","1191273.703","1192040.36936","1192806.883","1193573.55246","1179723.46096","1180490.12022","1184390.22697","1185157.59022","1185923.52137","1186690.21309","1187457.36703","1188206.46803","1188973.72522","1189739.98998","1192817.53896","Mapping"
"Blocked","Female","tile","15","F_dime.wav","None","728.534800379","210","1183624.06239","1190507.06198","1191273.703","1192040.36936","1192806.883","1193573.55246","1194340.33848","1180490.12022","1184390.22697","1185157.59022","1185923.52137","1186690.21309","1187457.36703","1188206.46803","1188973.72522","1189739.98998","1193583.63336","Mapping"
"Blocked","Female","tile","15","F_ball.wav","None","727.89852196","210","1183624.06239","1190507.06198","1191273.703","1192040.36936","1192806.883","1193573.55246","1194340.33848","1195106.99928","1184390.22697","1185157.59022","1185923.52137","1186690.21309","1187457.36703","1188206.46803","1188973.72522","1189739.98998","1194350.44288","Mapping"
"Blocked","Female","cave","11","F_jolt.wav","None","727.922946622","210","1198240.6193","1190507.06198","1191273.703","1192040.36936","1192806.883","1193573.55246","1194340.33848","1195106.99928","1184390.22697","1185157.59022","1185923.52137","1186690.21309","1187457.36703","1188206.46803","1188973.72522","1189739.98998","1195116.7741","Mapping"
"Blocked","Female","cave","11","F_bluff.wav","None","720.527523663","210","1198240.6193","1190507.06198","1191273.703","1192040.36936","1192806.883","1193573.55246","1194340.33848","1195106.99928","1199006.62929","1185157.59022","1185923.52137","1186690.21309","1187457.36703","1188206.46803","1188973.72522","1189739.98998","1198250.74039","Mapping"
"Blocked","Female","cave","11","F_cad.wav","None","721.415159962","210","1198240.6193","1190507.06198","1191273.703","1192040.36936","1192806.883","1193573.55246","1194340.33848","1195106.99928","1199006.62929","1199773.47931","1185923.52137","1186690.21309","1187457.36703","1188206.46803","1188973.72522","1189739.98998","1199016.02599","Mapping"
"Blocked","Female","cave","11","F_priest.wav","None","721.110933519","210","1198240.6193","1190507.06198","1191273.703","1192040.36936","1192806.883","1193573.55246","1194340.33848","1195106.99928","1199006.62929","1199773.47931","1200540.51637","1186690.21309","1187457.36703","1188206.46803","1188973.72522","1189739.98998","1199782.50036","Mapping"
"Blocked","Female","cave","11","F_greet.wav","None","719.206117414","210","1198240.6193","1190507.06198","1191273.703","1192040.36936","1192806.883","1193573.55246","1194340.33848","1195106.99928","1199006.62929","1199773.47931","1200540.51637","1201307.22263","1187457.36703","1188206.46803","1188973.72522","1189739.98998","1200550.55956","Mapping"
"Blocked","Female","cave","11","F_cave.wav","None","718.484507175","210","1198240.6193","1190507.06198","1191273.703","1192040.36936","1192806.883","1193573.55246","1194340.33848","1195106.99928","1199006.62929","1199773.47931","1200540.51637","1201307.22263","1202056.67732","1188206.46803","1188973.72522","1189739.98998","1201317.44822","Mapping"
"Blocked","Female","cave","11","F_gnash.wav","space","445.555063285","210","1198240.6193","1190507.06198","1191273.703","1192040.36936","1192806.883","1193573.55246","1194340.33848","1195106.99928","1199006.62929","1199773.47931","1200540.51637","1201307.22263","1202056.67732","1202823.22188","1188973.72522","1189739.98998","1202065.96025","Mapping"
"Blocked","Female","cave","11","F_cave.wav","None","734.201635962","210","1198240.6193","1190507.06198","1191273.703","1192040.36936","1192806.883","1193573.55246","1194340.33848","1195106.99928","1199006.62929","1199773.47931","1200540.51637","1201307.22263","1202056.67732","1202823.22188","1203589.73922","1189739.98998","1202832.66804","Mapping"
"Blocked","Female","cave","11","F_romp.wav","space","503.822462866","210","1198240.6193","1190507.06198","1191273.703","1192040.36936","1192806.883","1193573.55246","1194340.33848","1195106.99928","1199006.62929","1199773.47931","1200540.51637","1201307.22263","1202056.67732","1202823.22188","1203589.73922","1204356.37684","1203599.68934","Mapping"
"Blocked","Female","cave","11","F_cling.wav","None","731.890257099","210","1198240.6193","1205123.00579","1191273.703","1192040.36936","1192806.883","1193573.55246","1194340.33848","1195106.99928","1199006.62929","1199773.47931","1200540.51637","1201307.22263","1202056.67732","1202823.22188","1203589.73922","1204356.37684","1204365.70985","Mapping"
"Blocked","Female","cave","11","F_depth.wav","None","731.216877874","210","1198240.6193","1205123.00579","1205889.74451","1192040.36936","1192806.883","1193573.55246","1194340.33848","1195106.99928","1199006.62929","1199773.47931","1200540.51637","1201307.22263","1202056.67732","1202823.22188","1203589.73922","1204356.37684","1205132.56945","Mapping"
"Blocked","Female","cave","11","F_cave.wav","None","731.547074858","210","1198240.6193","1205123.00579","1205889.74451","1206656.67058","1192806.883","1193573.55246","1194340.33848","1195106.99928","1199006.62929","1199773.47931","1200540.51637","1201307.22263","1202056.67732","1202823.22188","1203589.73922","1204356.37684","1205898.77886","Mapping"
