"Condition","Talker","Target","Trial","current_stimulus","response_response","response_time_response","subject_nr","time_Audio1","time_Audio10","time_Audio11","time_Audio12","time_Audio13","time_Audio14","time_Audio15","time_Audio16","time_Audio2","time_Audio3","time_Audio4","time_Audio5","time_Audio6","time_Audio7","time_Audio8","time_Audio9","time_response"
"Mixed","both","done","38","F_bluff.wav","NA","NA","336","50813.0238876","NA","NA","NA","NA","NA","NA","NA","NA","NA","NA","NA","NA","NA","NA","NA","NA"
"Mixed","both","done","38","M_reek.wav","None","718.318476807","336","50813.0238876","NA","NA","NA","NA","NA","NA","NA","51579.9759589","NA","NA","NA","NA","NA","NA","NA","50827.3684233"
"Mixed","both","done","38","M_greet.wav","None","721.417900641","336","50813.0238876","NA","NA","NA","NA","NA","NA","NA","51579.9759589","52346.0561722","NA","NA","NA","NA","NA","NA","51590.0258217"
"Mixed","both","done","38","F_done.wav","None","721.413881518","336","50813.0238876","NA","NA","NA","NA","NA","NA","NA","51579.9759589","52346.0561722","53096.2976334","NA","NA","NA","NA","NA","52355.2607656"
"Mixed","both","done","38","F_knife.wav","space","409.179303329","336","50813.0238876","NA","NA","NA","NA","NA","NA","NA","51579.9759589","52346.0561722","53096.2976334","53862.516664","NA","NA","NA","NA","53105.1847101"
"Mixed","both","done","38","F_done.wav","None","736.243195366","336","50813.0238876","NA","NA","NA","NA","NA","NA","NA","51579.9759589","52346.0561722","53096.2976334","53862.516664","54629.2263465","NA","NA","NA","53871.7076541"
"Mixed","both","done","38","M_knife.wav","space","531.485200394","336","50813.0238876","NA","NA","NA","NA","NA","NA","NA","51579.9759589","52346.0561722","53096.2976334","53862.516664","54629.2263465","55396.023524","NA","NA","54638.8075086"
"Mixed","both","done","38","M_done.wav","None","733.307631221","336","50813.0238876","NA","NA","NA","NA","NA","NA","NA","51579.9759589","52346.0561722","53096.2976334","53862.516664","54629.2263465","55396.023524","56162.3754972","NA","55405.5094616"
"Mixed","both","done","38","F_greet.wav","space","534.990255255","336","50813.0238876","NA","NA","NA","NA","NA","NA","NA","51579.9759589","52346.0561722","53096.2976334","53862.516664","54629.2263465","55396.023524","56162.3754972","56929.3523021","56171.2248549"
"Mixed","both","done","38","M_jolt.wav","None","730.681545567","336","50813.0238876","57696.2428489","NA","NA","NA","NA","NA","NA","51579.9759589","52346.0561722","53096.2976334","53862.516664","54629.2263465","55396.023524","56162.3754972","56929.3523021","56939.2970474"
"Mixed","both","done","38","M_done.wav","None","730.103398673","336","50813.0238876","57696.2428489","58462.8928616","NA","NA","NA","NA","NA","51579.9759589","52346.0561722","53096.2976334","53862.516664","54629.2263465","55396.023524","56162.3754972","56929.3523021","57705.7124004"
"Mixed","both","done","38","M_cling.wav","space","625.861655455","336","50813.0238876","57696.2428489","58462.8928616","59229.5883223","NA","NA","NA","NA","51579.9759589","52346.0561722","53096.2976334","53862.516664","54629.2263465","55396.023524","56162.3754972","56929.3523021","58472.3250037"
"Mixed","both","done","38","F_gnash.wav","None","728.16768894","336","50813.0238876","57696.2428489","58462.8928616","59229.5883223","59996.2272048","NA","NA","NA","51579.9759589","52346.0561722","53096.2976334","53862.516664","54629.2263465","55396.023524","56162.3754972","56929.3523021","59238.9546111"
"Mixed","both","done","38","F_cad.wav","None","727.291811258","336","50813.0238876","57696.2428489","58462.8928616","59229.5883223","59996.2272048","60762.6091675","NA","NA","51579.9759589","52346.0561722","53096.2976334","53862.516664","54629.2263465","55396.023524","56162.3754972","56929.3523021","60005.5938032"
"Mixed","both","done","38","M_bluff.wav","None","726.998409722","336","50813.0238876","57696.2428489","58462.8928616","59229.5883223","59996.2272048","60762.6091675","61529.2424853","NA","51579.9759589","52346.0561722","53096.2976334","53862.516664","54629.2263465","55396.023524","56162.3754972","56929.3523021","60771.3487702"
"Mixed","both","done","38","F_depth.wav","None","725.498937536","336","50813.0238876","57696.2428489","58462.8928616","59229.5883223","59996.2272048","60762.6091675","61529.2424853","62296.830209","51579.9759589","52346.0561722","53096.2976334","53862.516664","54629.2263465","55396.023524","56162.3754972","56929.3523021","61538.2232401"
"Mixed","both","ball","9","M_cling.wav","space","367.646713275","336","65512.929467","57696.2428489","58462.8928616","59229.5883223","59996.2272048","60762.6091675","61529.2424853","62296.830209","51579.9759589","52346.0561722","53096.2976334","53862.516664","54629.2263465","55396.023524","56162.3754972","56929.3523021","62306.4348679"
"Mixed","both","ball","9","F_ball.wav","None","721.933595371","336","65512.929467","57696.2428489","58462.8928616","59229.5883223","59996.2272048","60762.6091675","61529.2424853","62296.830209","66279.6320389","52346.0561722","53096.2976334","53862.516664","54629.2263465","55396.023524","56162.3754972","56929.3523021","65523.1753434"
"Mixed","both","ball","9","F_knife.wav","space","496.279454324","336","65512.929467","57696.2428489","58462.8928616","59229.5883223","59996.2272048","60762.6091675","61529.2424853","62296.830209","66279.6320389","67045.8523058","53096.2976334","53862.516664","54629.2263465","55396.023524","56162.3754972","56929.3523021","66289.6630424"
"Mixed","both","ball","9","F_bluff.wav","None","722.623043228","336","65512.929467","57696.2428489","58462.8928616","59229.5883223","59996.2272048","60762.6091675","61529.2424853","62296.830209","66279.6320389","67045.8523058","67813.5139211","53862.516664","54629.2263465","55396.023524","56162.3754972","56929.3523021","67054.8129645"
"Mixed","both","ball","9","M_ball.wav","None","720.618697815","336","65512.929467","57696.2428489","58462.8928616","59229.5883223","59996.2272048","60762.6091675","61529.2424853","62296.830209","66279.6320389","67045.8523058","67813.5139211","68579.7950947","54629.2263465","55396.023524","56162.3754972","56929.3523021","67822.9473"
"Mixed","both","ball","9","M_bluff.wav","space","644.343806431","336","65512.929467","57696.2428489","58462.8928616","59229.5883223","59996.2272048","60762.6091675","61529.2424853","62296.830209","66279.6320389","67045.8523058","67813.5139211","68579.7950947","69346.2883583","55396.023524","56162.3754972","56929.3523021","68589.5428988"
"Mixed","both","ball","9","F_knife.wav","None","719.220942352","336","65512.929467","57696.2428489","58462.8928616","59229.5883223","59996.2272048","60762.6091675","61529.2424853","62296.830209","66279.6320389","67045.8523058","67813.5139211","68579.7950947","69346.2883583","70096.0144345","56162.3754972","56929.3523021","69356.1035618"
"Mixed","both","ball","9","F_priest.wav","None","735.649280716","336","65512.929467","57696.2428489","58462.8928616","59229.5883223","59996.2272048","60762.6091675","61529.2424853","62296.830209","66279.6320389","67045.8523058","67813.5139211","68579.7950947","69346.2883583","70096.0144345","70861.9669606","56929.3523021","70105.5387091"
"Mixed","both","ball","9","F_cling.wav","None","736.199602485","336","65512.929467","57696.2428489","58462.8928616","59229.5883223","59996.2272048","60762.6091675","61529.2424853","62296.830209","66279.6320389","67045.8523058","67813.5139211","68579.7950947","69346.2883583","70096.0144345","70861.9669606","71628.7329122","70870.7835465"
"Mixed","both","ball","9","M_dime.wav","None","735.157082789","336","65512.929467","72395.8052504","58462.8928616","59229.5883223","59996.2272048","60762.6091675","61529.2424853","62296.830209","66279.6320389","67045.8523058","67813.5139211","68579.7950947","69346.2883583","70096.0144345","70861.9669606","71628.7329122","71637.680586"
"Mixed","both","ball","9","F_park.wav","None","734.342730604","336","65512.929467","72395.8052504","73162.3971392","59229.5883223","59996.2272048","60762.6091675","61529.2424853","62296.830209","66279.6320389","67045.8523058","67813.5139211","68579.7950947","69346.2883583","70096.0144345","70861.9669606","71628.7329122","72404.6725398"
"Mixed","both","ball","9","M_jaw.wav","None","732.554803137","336","65512.929467","72395.8052504","73162.3971392","73929.1473227","59996.2272048","60762.6091675","61529.2424853","62296.830209","66279.6320389","67045.8523058","67813.5139211","68579.7950947","69346.2883583","70096.0144345","70861.9669606","71628.7329122","73171.8787486"
"Mixed","both","ball","9","F_ball.wav","None","732.335911598","336","65512.929467","72395.8052504","73162.3971392","73929.1473227","74695.3839757","60762.6091675","61529.2424853","62296.830209","66279.6320389","67045.8523058","67813.5139211","68579.7950947","69346.2883583","70096.0144345","70861.9669606","71628.7329122","73938.4171511"
"Mixed","both","ball","9","M_knife.wav","space","585.342213511","336","65512.929467","72395.8052504","73162.3971392","73929.1473227","74695.3839757","75462.1295221","61529.2424853","62296.830209","66279.6320389","67045.8523058","67813.5139211","68579.7950947","69346.2883583","70096.0144345","70861.9669606","71628.7329122","74704.364731"
"Mixed","both","ball","9","M_ball.wav","None","731.102015823","336","65512.929467","72395.8052504","73162.3971392","73929.1473227","74695.3839757","75462.1295221","76229.1199304","62296.830209","66279.6320389","67045.8523058","67813.5139211","68579.7950947","69346.2883583","70096.0144345","70861.9669606","71628.7329122","75470.9127177"
"Mixed","both","ball","9","M_jolt.wav","space","675.160273444","336","65512.929467","72395.8052504","73162.3971392","73929.1473227","74695.3839757","75462.1295221","76229.1199304","76995.7387168","66279.6320389","67045.8523058","67813.5139211","68579.7950947","69346.2883583","70096.0144345","70861.9669606","71628.7329122","76238.5072429"
"Mixed","both","tile","27","F_cling.wav","None","728.174490388","336","80129.3144599","72395.8052504","73162.3971392","73929.1473227","74695.3839757","75462.1295221","76229.1199304","76995.7387168","66279.6320389","67045.8523058","67813.5139211","68579.7950947","69346.2883583","70096.0144345","70861.9669606","71628.7329122","77005.095731"
"Mixed","both","tile","27","F_tile.wav","None","722.042422742","336","80129.3144599","72395.8052504","73162.3971392","73929.1473227","74695.3839757","75462.1295221","76229.1199304","76995.7387168","80895.9780759","67045.8523058","67813.5139211","68579.7950947","69346.2883583","70096.0144345","70861.9669606","71628.7329122","80138.7289795"
"Mixed","both","tile","27","M_knife.wav","space","519.513849635","336","80129.3144599","72395.8052504","73162.3971392","73929.1473227","74695.3839757","75462.1295221","76229.1199304","76995.7387168","80895.9780759","81662.6914684","67813.5139211","68579.7950947","69346.2883583","70096.0144345","70861.9669606","71628.7329122","80906.0183545"
"Mixed","both","tile","27","M_tile.wav","None","719.304418191","336","80129.3144599","72395.8052504","73162.3971392","73929.1473227","74695.3839757","75462.1295221","76229.1199304","76995.7387168","80895.9780759","81662.6914684","82412.3179917","68579.7950947","69346.2883583","70096.0144345","70861.9669606","71628.7329122","81672.665894"
"Mixed","both","tile","27","M_park.wav","space","707.86700258","336","80129.3144599","72395.8052504","73162.3971392","73929.1473227","74695.3839757","75462.1295221","76229.1199304","76995.7387168","80895.9780759","81662.6914684","82412.3179917","83178.7018096","69346.2883583","70096.0144345","70861.9669606","71628.7329122","82421.6063702"
"Mixed","both","tile","27","F_dime.wav","None","734.7975187","336","80129.3144599","72395.8052504","73162.3971392","73929.1473227","74695.3839757","75462.1295221","76229.1199304","76995.7387168","80895.9780759","81662.6914684","82412.3179917","83178.7018096","83945.2380477","70096.0144345","70861.9669606","71628.7329122","83187.9512328"
"Mixed","both","tile","27","M_park.wav","None","733.661011327","336","80129.3144599","72395.8052504","73162.3971392","73929.1473227","74695.3839757","75462.1295221","76229.1199304","76995.7387168","80895.9780759","81662.6914684","82412.3179917","83178.7018096","83945.2380477","84712.2080512","70861.9669606","71628.7329122","83954.5156057"
"Mixed","both","tile","27","F_dime.wav","None","732.631477062","336","80129.3144599","72395.8052504","73162.3971392","73929.1473227","74695.3839757","75462.1295221","76229.1199304","76995.7387168","80895.9780759","81662.6914684","82412.3179917","83178.7018096","83945.2380477","84712.2080512","85478.7816992","71628.7329122","84721.5539352"
"Mixed","both","tile","27","M_cad.wav","None","732.181636151","336","80129.3144599","72395.8052504","73162.3971392","73929.1473227","74695.3839757","75462.1295221","76229.1199304","76995.7387168","80895.9780759","81662.6914684","82412.3179917","83178.7018096","83945.2380477","84712.2080512","85478.7816992","86245.5192069","85488.5520726"
"Mixed","both","tile","27","F_tile.wav","None","731.308232062","336","80129.3144599","87011.8504656","73162.3971392","73929.1473227","74695.3839757","75462.1295221","76229.1199304","76995.7387168","80895.9780759","81662.6914684","82412.3179917","83178.7018096","83945.2380477","84712.2080512","85478.7816992","86245.5192069","86254.9120844"
"Mixed","both","tile","27","F_lash.wav","space","620.521679986","336","80129.3144599","87011.8504656","87778.6525898","73929.1473227","74695.3839757","75462.1295221","76229.1199304","76995.7387168","80895.9780759","81662.6914684","82412.3179917","83178.7018096","83945.2380477","84712.2080512","85478.7816992","86245.5192069","87020.8188538"
"Mixed","both","tile","27","M_tile.wav","None","730.103089474","336","80129.3144599","87011.8504656","87778.6525898","88544.9544778","74695.3839757","75462.1295221","76229.1199304","76995.7387168","80895.9780759","81662.6914684","82412.3179917","83178.7018096","83945.2380477","84712.2080512","85478.7816992","86245.5192069","87788.3648397"
"Mixed","both","tile","27","F_romp.wav","None","731.375940144","336","80129.3144599","87011.8504656","87778.6525898","88544.9544778","89311.5414199","75462.1295221","76229.1199304","76995.7387168","80895.9780759","81662.6914684","82412.3179917","83178.7018096","83945.2380477","84712.2080512","85478.7816992","86245.5192069","88553.7620978"
"Mixed","both","tile","27","M_priest.wav","space","0.0213328748941","336","80129.3144599","87011.8504656","87778.6525898","88544.9544778","89311.5414199","90078.230388","76229.1199304","76995.7387168","80895.9780759","81662.6914684","82412.3179917","83178.7018096","83945.2380477","84712.2080512","85478.7816992","86245.5192069","89320.4340613"
"Mixed","both","tile","27","M_dime.wav","None","729.922843631","336","80129.3144599","87011.8504656","87778.6525898","88544.9544778","89311.5414199","90078.230388","90844.9638765","76995.7387168","80895.9780759","81662.6914684","82412.3179917","83178.7018096","83945.2380477","84712.2080512","85478.7816992","86245.5192069","90087.3657274"
"Mixed","both","tile","27","F_dime.wav","None","730.710607488","336","80129.3144599","87011.8504656","87778.6525898","88544.9544778","89311.5414199","90078.230388","90844.9638765","91612.1255648","80895.9780759","81662.6914684","82412.3179917","83178.7018096","83945.2380477","84712.2080512","85478.7816992","86245.5192069","90853.8534264"
"Mixed","both","tile","36","M_park.wav","None","728.880323935","336","94745.5643453","87011.8504656","87778.6525898","88544.9544778","89311.5414199","90078.230388","90844.9638765","91612.1255648","80895.9780759","81662.6914684","82412.3179917","83178.7018096","83945.2380477","84712.2080512","85478.7816992","86245.5192069","91621.4377494"
"Mixed","both","tile","36","F_tile.wav","None","721.665545367","336","94745.5643453","87011.8504656","87778.6525898","88544.9544778","89311.5414199","90078.230388","90844.9638765","91612.1255648","95512.505596","81662.6914684","82412.3179917","83178.7018096","83945.2380477","84712.2080512","85478.7816992","86245.5192069","94755.668622"
"Mixed","both","tile","36","M_priest.wav","space","518.636736088","336","94745.5643453","87011.8504656","87778.6525898","88544.9544778","89311.5414199","90078.230388","90844.9638765","91612.1255648","95512.505596","96278.8368547","82412.3179917","83178.7018096","83945.2380477","84712.2080512","85478.7816992","86245.5192069","95522.4750745"
"Mixed","both","tile","36","F_lash.wav","None","720.199463423","336","94745.5643453","87011.8504656","87778.6525898","88544.9544778","89311.5414199","90078.230388","90844.9638765","91612.1255648","95512.505596","96278.8368547","97044.9891048","83178.7018096","83945.2380477","84712.2080512","85478.7816992","86245.5192069","96288.5061302"
"Mixed","both","tile","36","F_tile.wav","None","720.616224222","336","94745.5643453","87011.8504656","87778.6525898","88544.9544778","89311.5414199","90078.230388","90844.9638765","91612.1255648","95512.505596","96278.8368547","97044.9891048","97811.5265798","83945.2380477","84712.2080512","85478.7816992","86245.5192069","97054.2150307"
"Mixed","both","tile","36","F_jolt.wav","space","564.586120658","336","94745.5643453","87011.8504656","87778.6525898","88544.9544778","89311.5414199","90078.230388","90844.9638765","91612.1255648","95512.505596","96278.8368547","97044.9891048","97811.5265798","98578.4310391","84712.2080512","85478.7816992","86245.5192069","97820.4167481"
"Mixed","both","tile","36","M_lash.wav","None","723.519016523","336","94745.5643453","87011.8504656","87778.6525898","88544.9544778","89311.5414199","90078.230388","90844.9638765","91612.1255648","95512.505596","96278.8368547","97044.9891048","97811.5265798","98578.4310391","99345.1317553","85478.7816992","86245.5192069","98587.2157803"
"Mixed","both","tile","36","M_park.wav","None","722.9764238","336","94745.5643453","87011.8504656","87778.6525898","88544.9544778","89311.5414199","90078.230388","90844.9638765","91612.1255648","95512.505596","96278.8368547","97044.9891048","97811.5265798","98578.4310391","99345.1317553","100111.469816","86245.5192069","99354.0194505"
"Mixed","both","tile","36","F_greet.wav","None","722.492882982","336","94745.5643453","87011.8504656","87778.6525898","88544.9544778","89311.5414199","90078.230388","90844.9638765","91612.1255648","95512.505596","96278.8368547","97044.9891048","97811.5265798","98578.4310391","99345.1317553","100111.469816","100878.953659","100120.656787"
"Mixed","both","tile","36","M_jaw.wav","None","721.082760952","336","94745.5643453","101645.285846","87778.6525898","88544.9544778","89311.5414199","90078.230388","90844.9638765","91612.1255648","95512.505596","96278.8368547","97044.9891048","97811.5265798","98578.4310391","99345.1317553","100111.469816","100878.953659","100888.910771"
"Mixed","both","tile","36","M_tile.wav","None","720.86170502","336","94745.5643453","101645.285846","102411.859802","88544.9544778","89311.5414199","90078.230388","90844.9638765","91612.1255648","95512.505596","96278.8368547","97044.9891048","97811.5265798","98578.4310391","99345.1317553","100111.469816","100878.953659","101654.90689"
"Mixed","both","tile","36","F_gnash.wav","space","563.602962065","336","94745.5643453","101645.285846","102411.859802","103178.654816","89311.5414199","90078.230388","90844.9638765","91612.1255648","95512.505596","96278.8368547","97044.9891048","97811.5265798","98578.4310391","99345.1317553","100111.469816","100878.953659","102421.297819"
"Mixed","both","tile","36","M_bluff.wav","None","719.18600658","336","94745.5643453","101645.285846","102411.859802","103178.654816","103945.092738","90078.230388","90844.9638765","91612.1255648","95512.505596","96278.8368547","97044.9891048","97811.5265798","98578.4310391","99345.1317553","100111.469816","100878.953659","103189.052185"
"Mixed","both","tile","36","F_bluff.wav","None","719.459312037","336","94745.5643453","101645.285846","102411.859802","103178.654816","103945.092738","104694.995041","90844.9638765","91612.1255648","95512.505596","96278.8368547","97044.9891048","97811.5265798","98578.4310391","99345.1317553","100111.469816","100878.953659","103954.475723"
"Mixed","both","tile","36","M_tile.wav","None","736.090465449","336","94745.5643453","101645.285846","102411.859802","103178.654816","103945.092738","104694.995041","105461.223346","91612.1255648","95512.505596","96278.8368547","97044.9891048","97811.5265798","98578.4310391","99345.1317553","100111.469816","100878.953659","104703.98538"
"Mixed","both","tile","36","F_priest.wav","space","418.528278824","336","94745.5643453","101645.285846","102411.859802","103178.654816","103945.092738","104694.995041","105461.223346","106228.243744","95512.505596","96278.8368547","97044.9891048","97811.5265798","98578.4310391","99345.1317553","100111.469816","100878.953659","105470.281085"
"Mixed","both","ball","5","F_dime.wav","None","733.581245877","336","109362.143806","101645.285846","102411.859802","103178.654816","103945.092738","104694.995041","105461.223346","106228.243744","95512.505596","96278.8368547","97044.9891048","97811.5265798","98578.4310391","99345.1317553","100111.469816","100878.953659","106237.889523"
"Mixed","both","ball","5","F_romp.wav","None","721.111822873","336","109362.143806","101645.285846","102411.859802","103178.654816","103945.092738","104694.995041","105461.223346","106228.243744","110128.731985","96278.8368547","97044.9891048","97811.5265798","98578.4310391","99345.1317553","100111.469816","100878.953659","109372.166153"
"Mixed","both","ball","5","F_greet.wav","None","721.199936233","336","109362.143806","101645.285846","102411.859802","103178.654816","103945.092738","104694.995041","105461.223346","106228.243744","110128.731985","110895.119822","97044.9891048","97811.5265798","98578.4310391","99345.1317553","100111.469816","100878.953659","110138.225342"
"Mixed","both","ball","5","M_cling.wav","None","721.560427919","336","109362.143806","101645.285846","102411.859802","103178.654816","103945.092738","104694.995041","105461.223346","106228.243744","110128.731985","110895.119822","111662.056744","97811.5265798","98578.4310391","99345.1317553","100111.469816","100878.953659","110904.793116"
"Mixed","both","ball","5","F_ball.wav","None","720.252022613","336","109362.143806","101645.285846","102411.859802","103178.654816","103945.092738","104694.995041","105461.223346","106228.243744","110128.731985","110895.119822","111662.056744","112428.379964","98578.4310391","99345.1317553","100111.469816","100878.953659","111672.158238"
"Mixed","both","ball","5","M_dime.wav","space","466.203139164","336","109362.143806","101645.285846","102411.859802","103178.654816","103945.092738","104694.995041","105461.223346","106228.243744","110128.731985","110895.119822","111662.056744","112428.379964","113194.517992","99345.1317553","100111.469816","100878.953659","112438.394273"
"Mixed","both","ball","5","M_priest.wav","None","721.206737682","336","109362.143806","101645.285846","102411.859802","103178.654816","103945.092738","104694.995041","105461.223346","106228.243744","110128.731985","110895.119822","111662.056744","112428.379964","113194.517992","113962.043882","100111.469816","100878.953659","113203.629217"
"Mixed","both","ball","5","F_ball.wav","None","718.269628007","336","109362.143806","101645.285846","102411.859802","103178.654816","103945.092738","104694.995041","105461.223346","106228.243744","110128.731985","110895.119822","111662.056744","112428.379964","113194.517992","113962.043882","114711.40792","100878.953659","113972.270899"
"Mixed","both","ball","5","M_depth.wav","space","535.876643844","336","109362.143806","101645.285846","102411.859802","103178.654816","103945.092738","104694.995041","105461.223346","106228.243744","110128.731985","110895.119822","111662.056744","112428.379964","113194.517992","113962.043882","114711.40792","115477.630352","114720.652706"
"Mixed","both","ball","5","M_ball.wav","None","735.130803194","336","109362.143806","116244.607157","102411.859802","103178.654816","103945.092738","104694.995041","105461.223346","106228.243744","110128.731985","110895.119822","111662.056744","112428.379964","113194.517992","113962.043882","114711.40792","115477.630352","115487.046727"
"Mixed","both","ball","5","M_bluff.wav","space","666.437983979","336","109362.143806","116244.607157","117011.020655","103178.654816","103945.092738","104694.995041","105461.223346","106228.243744","110128.731985","110895.119822","111662.056744","112428.379964","113194.517992","113962.043882","114711.40792","115477.630352","116254.02415"
"Mixed","both","ball","5","F_park.wav","None","733.765202109","336","109362.143806","116244.607157","117011.020655","117777.71055","103945.092738","104694.995041","105461.223346","106228.243744","110128.731985","110895.119822","111662.056744","112428.379964","113194.517992","113962.043882","114711.40792","115477.630352","117020.491134"
"Mixed","both","ball","5","F_knife.wav","None","734.22308173","336","109362.143806","116244.607157","117011.020655","117777.71055","118544.568634","104694.995041","105461.223346","106228.243744","110128.731985","110895.119822","111662.056744","112428.379964","113194.517992","113962.043882","114711.40792","115477.630352","117787.012842"
"Mixed","both","ball","5","F_jaw.wav","None","733.635350596","336","109362.143806","116244.607157","117011.020655","117777.71055","118544.568634","119311.005938","105461.223346","106228.243744","110128.731985","110895.119822","111662.056744","112428.379964","113194.517992","113962.043882","114711.40792","115477.630352","118553.861032"
"Mixed","both","ball","5","M_ball.wav","None","732.585101854","336","109362.143806","116244.607157","117011.020655","117777.71055","118544.568634","119311.005938","120077.775291","106228.243744","110128.731985","110895.119822","111662.056744","112428.379964","113194.517992","113962.043882","114711.40792","115477.630352","119320.929969"
"Mixed","both","ball","5","M_park.wav","space","369.340034202","336","109362.143806","116244.607157","117011.020655","117777.71055","118544.568634","119311.005938","120077.775291","120844.41912","110128.731985","110895.119822","111662.056744","112428.379964","113194.517992","113962.043882","114711.40792","115477.630352","120087.033989"
"Mixed","both","ball","11","M_depth.wav","None","730.98886013","336","123978.211281","116244.607157","117011.020655","117777.71055","118544.568634","119311.005938","120077.775291","120844.41912","110128.731985","110895.119822","111662.056744","112428.379964","113194.517992","113962.043882","114711.40792","115477.630352","120853.662669"
"Mixed","both","ball","11","F_depth.wav","None","721.566302236","336","123978.211281","116244.607157","117011.020655","117777.71055","118544.568634","119311.005938","120077.775291","120844.41912","124744.618596","110895.119822","111662.056744","112428.379964","113194.517992","113962.043882","114711.40792","115477.630352","123988.285259"
"Mixed","both","ball","11","F_gnash.wav","None","721.901750658","336","123978.211281","116244.607157","117011.020655","117777.71055","118544.568634","119311.005938","120077.775291","120844.41912","124744.618596","125511.213886","111662.056744","112428.379964","113194.517992","113962.043882","114711.40792","115477.630352","124754.26252"
"Mixed","both","ball","11","M_priest.wav","None","721.800961532","336","123978.211281","116244.607157","117011.020655","117777.71055","118544.568634","119311.005938","120077.775291","120844.41912","124744.618596","125511.213886","126277.927587","112428.379964","113194.517992","113962.043882","114711.40792","115477.630352","125520.647574"
"Mixed","both","ball","11","M_knife.wav","None","720.654251985","336","123978.211281","116244.607157","117011.020655","117777.71055","118544.568634","119311.005938","120077.775291","120844.41912","124744.618596","125511.213886","126277.927587","127044.658293","113194.517992","113962.043882","114711.40792","115477.630352","126287.680339"
"Mixed","both","ball","11","M_ball.wav","None","719.787959009","336","123978.211281","116244.607157","117011.020655","117777.71055","118544.568634","119311.005938","120077.775291","120844.41912","124744.618596","125511.213886","126277.927587","127044.658293","127811.107655","113962.043882","114711.40792","115477.630352","127054.79627"
"Mixed","both","ball","11","M_cad.wav","space","499.535627197","336","123978.211281","116244.607157","117011.020655","117777.71055","118544.568634","119311.005938","120077.775291","120844.41912","124744.618596","125511.213886","126277.927587","127044.658293","127811.107655","128578.012733","114711.40792","115477.630352","127820.612143"
"Mixed","both","ball","11","M_ball.wav","None","719.317403622","336","123978.211281","116244.607157","117011.020655","117777.71055","118544.568634","119311.005938","120077.775291","120844.41912","124744.618596","125511.213886","126277.927587","127044.658293","127811.107655","128578.012733","129344.696754","115477.630352","128587.666549"
"Mixed","both","ball","11","F_jolt.wav","None","718.779447954","336","123978.211281","116244.607157","117011.020655","117777.71055","118544.568634","119311.005938","120077.775291","120844.41912","124744.618596","125511.213886","126277.927587","127044.658293","127811.107655","128578.012733","129344.696754","130094.34832","129354.301722"
"Mixed","both","ball","11","F_cad.wav","space","0.0225692056119","336","123978.211281","130860.264674","117011.020655","117777.71055","118544.568634","119311.005938","120077.775291","120844.41912","124744.618596","125511.213886","126277.927587","127044.658293","127811.107655","128578.012733","129344.696754","130094.34832","130103.828693"
"Mixed","both","ball","11","F_priest.wav","None","736.390978098","336","123978.211281","130860.264674","131627.226329","117777.71055","118544.568634","119311.005938","120077.775291","120844.41912","124744.618596","125511.213886","126277.927587","127044.658293","127811.107655","128578.012733","129344.696754","130094.34832","130869.119287"
"Mixed","both","ball","11","F_ball.wav","None","734.76351006","336","123978.211281","130860.264674","131627.226329","132393.91808","118544.568634","119311.005938","120077.775291","120844.41912","124744.618596","125511.213886","126277.927587","127044.658293","127811.107655","128578.012733","129344.696754","130094.34832","131636.511925"
"Mixed","both","ball","11","M_reek.wav","space","556.920882314","336","123978.211281","130860.264674","131627.226329","132393.91808","133160.601174","119311.005938","120077.775291","120844.41912","124744.618596","125511.213886","126277.927587","127044.658293","127811.107655","128578.012733","129344.696754","130094.34832","132403.064859"
"Mixed","both","ball","11","F_park.wav","None","733.048855793","336","123978.211281","130860.264674","131627.226329","132393.91808","133160.601174","133927.470697","120077.775291","120844.41912","124744.618596","125511.213886","126277.927587","127044.658293","127811.107655","128578.012733","129344.696754","130094.34832","133170.188828"
"Mixed","both","ball","11","F_ball.wav","None","725.587669294","336","123978.211281","130860.264674","131627.226329","132393.91808","133160.601174","133927.470697","134693.656955","120844.41912","124744.618596","125511.213886","126277.927587","127044.658293","127811.107655","128578.012733","129344.696754","130094.34832","133944.010336"
"Mixed","both","ball","11","M_reek.wav","space","481.506100856","336","123978.211281","130860.264674","131627.226329","132393.91808","133160.601174","133927.470697","134693.656955","135460.361691","124744.618596","125511.213886","126277.927587","127044.658293","127811.107655","128578.012733","129344.696754","130094.34832","134702.441387"
"Mixed","both","done","42","F_gnash.wav","None","732.364973053","336","138594.441071","130860.264674","131627.226329","132393.91808","133160.601174","133927.470697","134693.656955","135460.361691","124744.618596","125511.213886","126277.927587","127044.658293","127811.107655","128578.012733","129344.696754","130094.34832","135469.314002"
"Mixed","both","done","42","M_done.wav","None","720.482353587","336","138594.441071","130860.264674","131627.226329","132393.91808","133160.601174","133927.470697","134693.656955","135460.361691","139360.459141","125511.213886","126277.927587","127044.658293","127811.107655","128578.012733","129344.696754","130094.34832","138604.999827"
"Mixed","both","done","42","F_greet.wav","space","694.771820214","336","138594.441071","130860.264674","131627.226329","132393.91808","133160.601174","133927.470697","134693.656955","135460.361691","139360.459141","140127.613409","126277.927587","127044.658293","127811.107655","128578.012733","129344.696754","130094.34832","139369.022827"
"Mixed","both","done","42","F_done.wav","None","720.585616305","336","138594.441071","130860.264674","131627.226329","132393.91808","133160.601174","133927.470697","134693.656955","135460.361691","139360.459141","140127.613409","140893.774935","127044.658293","127811.107655","128578.012733","129344.696754","130094.34832","140136.685987"
"Mixed","both","done","42","F_priest.wav","space","541.948423255","336","138594.441071","130860.264674","131627.226329","132393.91808","133160.601174","133927.470697","134693.656955","135460.361691","139360.459141","140127.613409","140893.774935","141643.704753","127811.107655","128578.012733","129344.696754","130094.34832","140897.795374"
"Mixed","both","done","42","F_greet.wav","None","734.911293257","336","138594.441071","130860.264674","131627.226329","132393.91808","133160.601174","133927.470697","134693.656955","135460.361691","139360.459141","140127.613409","140893.774935","141643.704753","142410.20049","128578.012733","129344.696754","130094.34832","141653.301373"
"Mixed","both","done","42","M_cling.wav","None","735.277658794","336","138594.441071","130860.264674","131627.226329","132393.91808","133160.601174","133927.470697","134693.656955","135460.361691","139360.459141","140127.613409","140893.774935","141643.704753","142410.20049","143176.556482","129344.696754","130094.34832","142419.171661"
"Mixed","both","done","42","M_romp.wav","None","735.665666871","336","138594.441071","130860.264674","131627.226329","132393.91808","133160.601174","133927.470697","134693.656955","135460.361691","139360.459141","140127.613409","140893.774935","141643.704753","142410.20049","143176.556482","143943.699002","130094.34832","143185.391928"
"Mixed","both","done","42","F_cling.wav","None","734.280896839","336","138594.441071","130860.264674","131627.226329","132393.91808","133160.601174","133927.470697","134693.656955","135460.361691","139360.459141","140127.613409","140893.774935","141643.704753","142410.20049","143176.556482","143943.699002","144710.144036","143953.101773"
"Mixed","both","done","42","M_cling.wav","None","734.232357237","336","138594.441071","145476.98697","131627.226329","132393.91808","133160.601174","133927.470697","134693.656955","135460.361691","139360.459141","140127.613409","140893.774935","141643.704753","142410.20049","143176.556482","143943.699002","144710.144036","144719.524237"
"Mixed","both","done","42","M_lash.wav","None","733.553729951","336","138594.441071","145476.98697","146243.811045","132393.91808","133160.601174","133927.470697","134693.656955","135460.361691","139360.459141","140127.613409","140893.774935","141643.704753","142410.20049","143176.556482","143943.699002","144710.144036","145486.000497"
"Mixed","both","done","42","F_romp.wav","None","733.461597469","336","138594.441071","145476.98697","146243.811045","147009.821387","133160.601174","133927.470697","134693.656955","135460.361691","139360.459141","140127.613409","140893.774935","141643.704753","142410.20049","143176.556482","143943.699002","144710.144036","146253.051812"
"Mixed","both","done","42","F_done.wav","None","733.741086908","336","138594.441071","145476.98697","146243.811045","147009.821387","147776.773149","133927.470697","134693.656955","135460.361691","139360.459141","140127.613409","140893.774935","141643.704753","142410.20049","143176.556482","143943.699002","144710.144036","147018.979295"
"Mixed","both","done","42","M_dime.wav","space","389.39276617","336","138594.441071","145476.98697","146243.811045","147009.821387","147776.773149","148543.587949","134693.656955","135460.361691","139360.459141","140127.613409","140893.774935","141643.704753","142410.20049","143176.556482","143943.699002","144710.144036","147786.139747"
"Mixed","both","done","42","M_done.wav","None","731.852370314","336","138594.441071","145476.98697","146243.811045","147009.821387","147776.773149","148543.587949","149310.958017","135460.361691","139360.459141","140127.613409","140893.774935","141643.704753","142410.20049","143176.556482","143943.699002","144710.144036","148552.897351"
"Mixed","both","done","42","M_priest.wav","None","731.01328453","336","138594.441071","145476.98697","146243.811045","147009.821387","147776.773149","148543.587949","149310.958017","150076.726587","139360.459141","140127.613409","140893.774935","141643.704753","142410.20049","143176.556482","143943.699002","144710.144036","149319.974017"
"Mixed","both","tile","28","M_gnash.wav","None","731.222282629","336","153210.446713","145476.98697","146243.811045","147009.821387","147776.773149","148543.587949","149310.958017","150076.726587","139360.459141","140127.613409","140893.774935","141643.704753","142410.20049","143176.556482","143943.699002","144710.144036","150086.061342"
"Mixed","both","tile","28","M_park.wav","None","722.376326099","336","153210.446713","145476.98697","146243.811045","147009.821387","147776.773149","148543.587949","149310.958017","150076.726587","153977.27017","140127.613409","140893.774935","141643.704753","142410.20049","143176.556482","143943.699002","144710.144036","153220.210594"
"Mixed","both","tile","28","F_tile.wav","None","721.753658727","336","153210.446713","145476.98697","146243.811045","147009.821387","147776.773149","148543.587949","149310.958017","150076.726587","153977.27017","154743.351001","140893.774935","141643.704753","142410.20049","143176.556482","143943.699002","144710.144036","153987.345384"
"Mixed","both","tile","28","F_bluff.wav","space","502.969263587","336","153210.446713","145476.98697","146243.811045","147009.821387","147776.773149","148543.587949","149310.958017","150076.726587","153977.27017","154743.351001","155510.734055","141643.704753","142410.20049","143176.556482","143943.699002","144710.144036","154752.351543"
"Mixed","both","tile","28","M_cling.wav","None","719.874836039","336","153210.446713","145476.98697","146243.811045","147009.821387","147776.773149","148543.587949","149310.958017","150076.726587","153977.27017","154743.351001","155510.734055","156277.007499","142410.20049","143176.556482","143943.699002","144710.144036","155520.68251"
"Mixed","both","tile","28","F_tile.wav","None","720.637247898","336","153210.446713","145476.98697","146243.811045","147009.821387","147776.773149","148543.587949","149310.958017","150076.726587","153977.27017","154743.351001","155510.734055","156277.007499","157043.439238","143176.556482","143943.699002","144710.144036","156286.710783"
"Mixed","both","tile","28","F_reek.wav","space","626.414450351","336","153210.446713","145476.98697","146243.811045","147009.821387","147776.773149","148543.587949","149310.958017","150076.726587","153977.27017","154743.351001","155510.734055","156277.007499","157043.439238","157809.764314","143943.699002","144710.144036","157052.836753"
"Mixed","both","tile","28","M_greet.wav","None","720.735563897","336","153210.446713","145476.98697","146243.811045","147009.821387","147776.773149","148543.587949","149310.958017","150076.726587","153977.27017","154743.351001","155510.734055","156277.007499","157043.439238","157809.764314","158559.826766","144710.144036","157818.664066"
"Mixed","both","tile","28","F_priest.wav","None","736.782696098","336","153210.446713","145476.98697","146243.811045","147009.821387","147776.773149","148543.587949","149310.958017","150076.726587","153977.27017","154743.351001","155510.734055","156277.007499","157043.439238","157809.764314","158559.826766","159327.228988","158568.702403"
"Mixed","both","tile","28","M_tile.wav","None","735.823652241","336","153210.446713","160093.356814","146243.811045","147009.821387","147776.773149","148543.587949","149310.958017","150076.726587","153977.27017","154743.351001","155510.734055","156277.007499","157043.439238","157809.764314","158559.826766","159327.228988","159336.22953"
"Mixed","both","tile","28","M_reek.wav","None","735.797372647","336","153210.446713","160093.356814","160859.397762","147009.821387","147776.773149","148543.587949","149310.958017","150076.726587","153977.27017","154743.351001","155510.734055","156277.007499","157043.439238","157809.764314","158559.826766","159327.228988","160102.837805"
"Mixed","both","tile","28","F_jaw.wav","None","735.992458649","336","153210.446713","160093.356814","160859.397762","161626.204524","147776.773149","148543.587949","149310.958017","150076.726587","153977.27017","154743.351001","155510.734055","156277.007499","157043.439238","157809.764314","158559.826766","159327.228988","160868.655533"
"Mixed","both","tile","28","F_cling.wav","None","733.936482109","336","153210.446713","160093.356814","160859.397762","161626.204524","162409.449208","148543.587949","149310.958017","150076.726587","153977.27017","154743.351001","155510.734055","156277.007499","157043.439238","157809.764314","158559.826766","159327.228988","161636.743493"
"Mixed","both","tile","28","M_tile.wav","None","722.210611217","336","153210.446713","160093.356814","160859.397762","161626.204524","162409.449208","163176.238966","149310.958017","150076.726587","153977.27017","154743.351001","155510.734055","156277.007499","157043.439238","157809.764314","158559.826766","159327.228988","162418.221583"
"Mixed","both","tile","28","M_jolt.wav","space","485.925987363","336","153210.446713","160093.356814","160859.397762","161626.204524","162409.449208","163176.238966","163943.109416","150076.726587","153977.27017","154743.351001","155510.734055","156277.007499","157043.439238","157809.764314","158559.826766","159327.228988","163185.146138"
"Mixed","both","tile","28","F_reek.wav","None","720.143504441","336","153210.446713","160093.356814","160859.397762","161626.204524","162409.449208","163176.238966","163943.109416","164710.483504","153977.27017","154743.351001","155510.734055","156277.007499","157043.439238","157809.764314","158559.826766","159327.228988","163952.441078"
"Mixed","both","cave","20","F_bluff.wav","None","718.53798721","336","167826.339817","160093.356814","160859.397762","161626.204524","162409.449208","163176.238966","163943.109416","164710.483504","153977.27017","154743.351001","155510.734055","156277.007499","157043.439238","157809.764314","158559.826766","159327.228988","164720.239965"
"Mixed","both","cave","20","M_lash.wav","None","723.435849883","336","167826.339817","160093.356814","160859.397762","161626.204524","162409.449208","163176.238966","163943.109416","164710.483504","168593.318476","154743.351001","155510.734055","156277.007499","157043.439238","157809.764314","158559.826766","159327.228988","167835.193194"
"Mixed","both","cave","20","F_park.wav","None","727.156085894","336","167826.339817","160093.356814","160859.397762","161626.204524","162409.449208","163176.238966","163943.109416","164710.483504","168593.318476","169359.366227","155510.734055","156277.007499","157043.439238","157809.764314","158559.826766","159327.228988","168597.395495"
"Mixed","both","cave","20","F_dime.wav","None","722.713320516","336","167826.339817","160093.356814","160859.397762","161626.204524","162409.449208","163176.238966","163943.109416","164710.483504","168593.318476","169359.366227","170126.925507","156277.007499","157043.439238","157809.764314","158559.826766","159327.228988","169368.355639"
"Mixed","both","cave","20","F_cave.wav","None","720.95290944","336","167826.339817","160093.356814","160859.397762","161626.204524","162409.449208","163176.238966","163943.109416","164710.483504","168593.318476","169359.366227","170126.925507","170892.994281","157043.439238","157809.764314","158559.826766","159327.228988","170136.522746"
"Mixed","both","cave","20","F_jolt.wav","space","472.778864671","336","167826.339817","160093.356814","160859.397762","161626.204524","162409.449208","163176.238966","163943.109416","164710.483504","168593.318476","169359.366227","170126.925507","170892.994281","171659.71664","157809.764314","158559.826766","159327.228988","170902.039653"
"Mixed","both","cave","20","M_jolt.wav","None","719.219706021","336","167826.339817","160093.356814","160859.397762","161626.204524","162409.449208","163176.238966","163943.109416","164710.483504","168593.318476","169359.366227","170126.925507","170892.994281","171659.71664","172426.473316","158559.826766","159327.228988","171669.860181"
"Mixed","both","cave","20","F_lash.wav","None","719.398405869","336","167826.339817","160093.356814","160859.397762","161626.204524","162409.449208","163176.238966","163943.109416","164710.483504","168593.318476","169359.366227","170126.925507","170892.994281","171659.71664","172426.473316","173192.506536","159327.228988","172436.074574"
"Mixed","both","cave","20","M_cave.wav","None","720.323749818","336","167826.339817","160093.356814","160859.397762","161626.204524","162409.449208","163176.238966","163943.109416","164710.483504","168593.318476","169359.366227","170126.925507","170892.994281","171659.71664","172426.473316","173192.506536","173942.852496","173201.665372"
"Mixed","both","cave","20","M_cling.wav","space","670.757081825","336","167826.339817","174709.209107","160859.397762","161626.204524","162409.449208","163176.238966","163943.109416","164710.483504","168593.318476","169359.366227","170126.925507","170892.994281","171659.71664","172426.473316","173192.506536","173942.852496","173951.989691"
"Mixed","both","cave","20","M_bluff.wav","None","735.282914713","336","167826.339817","174709.209107","175475.823565","161626.204524","162409.449208","163176.238966","163943.109416","164710.483504","168593.318476","169359.366227","170126.925507","170892.994281","171659.71664","172426.473316","173192.506536","173942.852496","174718.541388"
"Mixed","both","cave","20","M_cave.wav","None","734.562241007","336","167826.339817","174709.209107","175475.823565","176242.689379","162409.449208","163176.238966","163943.109416","164710.483504","168593.318476","169359.366227","170126.925507","170892.994281","171659.71664","172426.473316","173192.506536","173942.852496","175485.266529"
"Mixed","both","cave","20","F_lash.wav","None","734.335310291","336","167826.339817","174709.209107","175475.823565","176242.689379","177009.251587","163176.238966","163943.109416","164710.483504","168593.318476","169359.366227","170126.925507","170892.994281","171659.71664","172426.473316","173192.506536","173942.852496","176252.160476"
"Mixed","both","cave","20","M_dime.wav","space","27.9158391058","336","167826.339817","174709.209107","175475.823565","176242.689379","177009.251587","177775.654883","163943.109416","164710.483504","168593.318476","169359.366227","170126.925507","170892.994281","171659.71664","172426.473316","173192.506536","173942.852496","177018.763804"
"Mixed","both","cave","20","F_cave.wav","None","733.855170198","336","167826.339817","174709.209107","175475.823565","176242.689379","177009.251587","177775.654883","178542.408776","164710.483504","168593.318476","169359.366227","170126.925507","170892.994281","171659.71664","172426.473316","173192.506536","173942.852496","177784.737354"
"Mixed","both","cave","20","M_reek.wav","space","638.942924794","336","167826.339817","174709.209107","175475.823565","176242.689379","177009.251587","177775.654883","178542.408776","179309.123714","168593.318476","169359.366227","170126.925507","170892.994281","171659.71664","172426.473316","173192.506536","173942.852496","178551.653871"
"Mixed","both","ball","8","M_gnash.wav","None","732.103416231","336","182443.216698","174709.209107","175475.823565","176242.689379","177009.251587","177775.654883","178542.408776","179309.123714","168593.318476","169359.366227","170126.925507","170892.994281","171659.71664","172426.473316","173192.506536","173942.852496","179318.470526"
"Mixed","both","ball","8","F_ball.wav","None","721.222814638","336","182443.216698","174709.209107","175475.823565","176242.689379","177009.251587","177775.654883","178542.408776","179309.123714","183209.621539","169359.366227","170126.925507","170892.994281","171659.71664","172426.473316","173192.506536","173942.852496","182453.016443"
"Mixed","both","ball","8","M_park.wav","space","626.894899644","336","182443.216698","174709.209107","175475.823565","176242.689379","177009.251587","177775.654883","178542.408776","179309.123714","183209.621539","183976.299996","170126.925507","170892.994281","171659.71664","172426.473316","173192.506536","173942.852496","183219.562266"
"Mixed","both","ball","8","M_depth.wav","None","719.460548833","336","182443.216698","174709.209107","175475.823565","176242.689379","177009.251587","177775.654883","178542.408776","179309.123714","183209.621539","183976.299996","184742.171211","170892.994281","171659.71664","172426.473316","173192.506536","173942.852496","183986.572769"
"Mixed","both","ball","8","M_reek.wav","None","721.314947121","336","182443.216698","174709.209107","175475.823565","176242.689379","177009.251587","177775.654883","178542.408776","179309.123714","183209.621539","183976.299996","184742.171211","185508.868526","171659.71664","172426.473316","173192.506536","173942.852496","184751.325409"
"Mixed","both","ball","8","M_ball.wav","None","719.676967245","336","182443.216698","174709.209107","175475.823565","176242.689379","177009.251587","177775.654883","178542.408776","179309.123714","183209.621539","183976.299996","184742.171211","185508.868526","186275.575117","172426.473316","173192.506536","173942.852496","185519.502101"
"Mixed","both","ball","8","F_bluff.wav","space","561.760002747","336","182443.216698","174709.209107","175475.823565","176242.689379","177009.251587","177775.654883","178542.408776","179309.123714","183209.621539","183976.299996","184742.171211","185508.868526","186275.575117","187025.567697","173192.506536","173942.852496","186284.621106"
"Mixed","both","ball","8","M_knife.wav","None","735.77356711","336","182443.216698","174709.209107","175475.823565","176242.689379","177009.251587","177775.654883","178542.408776","179309.123714","183209.621539","183976.299996","184742.171211","185508.868526","186275.575117","187025.567697","187791.972847","173942.852496","187034.862877"
"Mixed","both","ball","8","F_dime.wav","None","734.714042861","336","182443.216698","174709.209107","175475.823565","176242.689379","177009.251587","177775.654883","178542.408776","179309.123714","183209.621539","183976.299996","184742.171211","185508.868526","186275.575117","187025.567697","187791.972847","188558.586687","187802.03384"
"Mixed","both","ball","8","F_greet.wav","None","735.276113264","336","182443.216698","189325.180122","175475.823565","176242.689379","177009.251587","177775.654883","178542.408776","179309.123714","183209.621539","183976.299996","184742.171211","185508.868526","186275.575117","187025.567697","187791.972847","188558.586687","188568.125493"
"Mixed","both","ball","8","M_jaw.wav","None","733.404710423","336","182443.216698","189325.180122","190092.518655","176242.689379","177009.251587","177775.654883","178542.408776","179309.123714","183209.621539","183976.299996","184742.171211","185508.868526","186275.575117","187025.567697","187791.972847","188558.586687","189337.094586"
"Mixed","both","ball","8","F_lash.wav","None","735.891978722","336","182443.216698","189325.180122","190092.518655","190858.790244","177009.251587","177775.654883","178542.408776","179309.123714","183209.621539","183976.299996","184742.171211","185508.868526","186275.575117","187025.567697","187791.972847","188558.586687","190101.742726"
"Mixed","both","ball","8","M_ball.wav","None","737.035287078","336","182443.216698","189325.180122","190092.518655","190858.790244","191625.759629","177775.654883","178542.408776","179309.123714","183209.621539","183976.299996","184742.171211","185508.868526","186275.575117","187025.567697","187791.972847","188558.586687","190867.388248"
"Mixed","both","ball","8","F_knife.wav","space","450.840817299","336","182443.216698","189325.180122","190092.518655","190858.790244","191625.759629","192392.089033","178542.408776","179309.123714","183209.621539","183976.299996","184742.171211","185508.868526","186275.575117","187025.567697","187791.972847","188558.586687","191635.384384"
"Mixed","both","ball","8","F_ball.wav","None","734.9935323","336","182443.216698","189325.180122","190092.518655","190858.790244","191625.759629","192392.089033","193158.710911","179309.123714","183209.621539","183976.299996","184742.171211","185508.868526","186275.575117","187025.567697","187791.972847","188558.586687","192401.401527"
"Mixed","both","ball","8","F_cling.wav","None","734.802156221","336","182443.216698","189325.180122","190092.518655","190858.790244","191625.759629","192392.089033","193158.710911","193925.138322","183209.621539","183976.299996","184742.171211","185508.868526","186275.575117","187025.567697","187791.972847","188558.586687","193168.186956"
"Mixed","both","done","46","F_jolt.wav","space","15.5685381033","336","197058.999429","189325.180122","190092.518655","190858.790244","191625.759629","192392.089033","193158.710911","193925.138322","183209.621539","183976.299996","184742.171211","185508.868526","186275.575117","187025.567697","187791.972847","188558.586687","193934.61684"
"Mixed","both","done","46","M_greet.wav","None","721.973169129","336","197058.999429","189325.180122","190092.518655","190858.790244","191625.759629","192392.089033","193158.710911","193925.138322","197825.899869","183976.299996","184742.171211","185508.868526","186275.575117","187025.567697","187791.972847","188558.586687","197069.148226"
"Mixed","both","done","46","F_cling.wav","None","721.865578089","336","197058.999429","189325.180122","190092.518655","190858.790244","191625.759629","192392.089033","193158.710911","193925.138322","197825.899869","198592.376128","184742.171211","185508.868526","186275.575117","187025.567697","187791.972847","188558.586687","197835.432491"
"Mixed","both","done","46","F_done.wav","None","721.547442954","336","197058.999429","189325.180122","190092.518655","190858.790244","191625.759629","192392.089033","193158.710911","193925.138322","197825.899869","198592.376128","199359.055202","185508.868526","186275.575117","187025.567697","187791.972847","188558.586687","198602.417334"
"Mixed","both","done","46","F_cad.wav","space","418.368129525","336","197058.999429","189325.180122","190092.518655","190858.790244","191625.759629","192392.089033","193158.710911","193925.138322","197825.899869","198592.376128","199359.055202","200125.967082","186275.575117","187025.567697","187791.972847","188558.586687","199363.606177"
"Mixed","both","done","46","M_park.wav","None","721.669564955","336","197058.999429","189325.180122","190092.518655","190858.790244","191625.759629","192392.089033","193158.710911","193925.138322","197825.899869","198592.376128","199359.055202","200125.967082","200892.531145","187025.567697","187791.972847","188558.586687","200135.49383"
"Mixed","both","done","46","M_greet.wav","None","720.876854379","336","197058.999429","189325.180122","190092.518655","190858.790244","191625.759629","192392.089033","193158.710911","193925.138322","197825.899869","198592.376128","199359.055202","200125.967082","200892.531145","201658.794696","187791.972847","188558.586687","200902.495368"
"Mixed","both","done","46","M_done.wav","None","721.39347624","336","197058.999429","189325.180122","190092.518655","190858.790244","191625.759629","192392.089033","193158.710911","193925.138322","197825.899869","198592.376128","199359.055202","200125.967082","200892.531145","201658.794696","202425.197992","188558.586687","201668.286508"
"Mixed","both","done","46","M_reek.wav","space","707.461063284","336","197058.999429","189325.180122","190092.518655","190858.790244","191625.759629","192392.089033","193158.710911","193925.138322","197825.899869","198592.376128","199359.055202","200125.967082","200892.531145","201658.794696","202425.197992","203192.703786","202434.426082"
"Mixed","both","done","46","M_done.wav","None","718.525311444","336","197058.999429","203941.930244","190092.518655","190858.790244","191625.759629","192392.089033","193158.710911","193925.138322","197825.899869","198592.376128","199359.055202","200125.967082","200892.531145","201658.794696","202425.197992","203192.703786","203202.236717"
"Mixed","both","done","46","F_romp.wav","space","606.429735664","336","197058.999429","203941.930244","204708.377132","190858.790244","191625.759629","192392.089033","193158.710911","193925.138322","197825.899869","198592.376128","199359.055202","200125.967082","200892.531145","201658.794696","202425.197992","203192.703786","203951.376917"
"Mixed","both","done","46","F_park.wav","None","734.551110771","336","197058.999429","203941.930244","204708.377132","205474.868232","191625.759629","192392.089033","193158.710911","193925.138322","197825.899869","198592.376128","199359.055202","200125.967082","200892.531145","201658.794696","202425.197992","203192.703786","204717.957058"
"Mixed","both","done","46","M_park.wav","None","734.667358454","336","197058.999429","203941.930244","204708.377132","205474.868232","206241.777947","192392.089033","193158.710911","193925.138322","197825.899869","198592.376128","199359.055202","200125.967082","200892.531145","201658.794696","202425.197992","203192.703786","205483.928752"
"Mixed","both","done","46","F_lash.wav","None","734.685599338","336","197058.999429","203941.930244","204708.377132","205474.868232","206241.777947","207008.115699","193158.710911","193925.138322","197825.899869","198592.376128","199359.055202","200125.967082","200892.531145","201658.794696","202425.197992","203192.703786","206250.945749"
"Mixed","both","done","46","F_done.wav","None","734.853787348","336","197058.999429","203941.930244","204708.377132","205474.868232","206241.777947","207008.115699","207774.940392","193925.138322","197825.899869","198592.376128","199359.055202","200125.967082","200892.531145","201658.794696","202425.197992","203192.703786","207017.180857"
"Mixed","both","done","46","M_priest.wav","None","734.163102694","336","197058.999429","203941.930244","204708.377132","205474.868232","206241.777947","207008.115699","207774.940392","208541.391609","197825.899869","198592.376128","199359.055202","200125.967082","200892.531145","201658.794696","202425.197992","203192.703786","207784.626981"
"Mixed","both","cave","19","F_dime.wav","space","23.2124440372","336","211675.619081","203941.930244","204708.377132","205474.868232","206241.777947","207008.115699","207774.940392","208541.391609","197825.899869","198592.376128","199359.055202","200125.967082","200892.531145","201658.794696","202425.197992","203192.703786","208550.489848"
"Mixed","both","cave","19","F_depth.wav","None","722.167945933","336","211675.619081","203941.930244","204708.377132","205474.868232","206241.777947","207008.115699","207774.940392","208541.391609","212442.021139","198592.376128","199359.055202","200125.967082","200892.531145","201658.794696","202425.197992","203192.703786","211685.654722"
"Mixed","both","cave","19","F_cling.wav","None","721.890929621","336","211675.619081","203941.930244","204708.377132","205474.868232","206241.777947","207008.115699","207774.940392","208541.391609","212442.021139","213208.816153","199359.055202","200125.967082","200892.531145","201658.794696","202425.197992","203192.703786","212452.118615"
"Mixed","both","cave","19","M_park.wav","None","721.86032217","336","211675.619081","203941.930244","204708.377132","205474.868232","206241.777947","207008.115699","207774.940392","208541.391609","212442.021139","213208.816153","213975.306325","200125.967082","200892.531145","201658.794696","202425.197992","203192.703786","213218.588691"
"Mixed","both","cave","19","M_cave.wav","None","721.918755211","336","211675.619081","203941.930244","204708.377132","205474.868232","206241.777947","207008.115699","207774.940392","208541.391609","212442.021139","213208.816153","213975.306325","214741.899142","200892.531145","201658.794696","202425.197992","203192.703786","213985.271784"
"Mixed","both","cave","19","M_lash.wav","space","461.954532191","336","211675.619081","203941.930244","204708.377132","205474.868232","206241.777947","207008.115699","207774.940392","208541.391609","212442.021139","213208.816153","213975.306325","214741.899142","215508.590892","201658.794696","202425.197992","203192.703786","214751.584494"
"Mixed","both","cave","19","M_knife.wav","None","720.147832297","336","211675.619081","203941.930244","204708.377132","205474.868232","206241.777947","207008.115699","207774.940392","208541.391609","212442.021139","213208.816153","213975.306325","214741.899142","215508.590892","216274.735413","202425.197992","203192.703786","215519.046695"
"Mixed","both","cave","19","F_lash.wav","None","722.295014653","336","211675.619081","203941.930244","204708.377132","205474.868232","206241.777947","207008.115699","207774.940392","208541.391609","212442.021139","213208.816153","213975.306325","214741.899142","215508.590892","216274.735413","217041.924617","203192.703786","216283.610741"
"Mixed","both","cave","19","M_cave.wav","None","720.753186382","336","211675.619081","203941.930244","204708.377132","205474.868232","206241.777947","207008.115699","207774.940392","208541.391609","212442.021139","213208.816153","213975.306325","214741.899142","215508.590892","216274.735413","217041.924617","217808.728287","217051.746931"
"Mixed","both","cave","19","F_greet.wav","space","554.945598356","336","211675.619081","218574.820249","204708.377132","205474.868232","206241.777947","207008.115699","207774.940392","208541.391609","212442.021139","213208.816153","213975.306325","214741.899142","215508.590892","216274.735413","217041.924617","217808.728287","217818.486603"
"Mixed","both","cave","19","M_cad.wav","None","720.590563491","336","211675.619081","218574.820249","219341.482937","205474.868232","206241.777947","207008.115699","207774.940392","208541.391609","212442.021139","213208.816153","213975.306325","214741.899142","215508.590892","216274.735413","217041.924617","217808.728287","218583.724638"
"Mixed","both","cave","19","F_greet.wav","None","725.568500813","336","211675.619081","218574.820249","219341.482937","220091.479537","206241.777947","207008.115699","207774.940392","208541.391609","212442.021139","213208.816153","213975.306325","214741.899142","215508.590892","216274.735413","217041.924617","217808.728287","219344.970369"
"Mixed","both","cave","19","F_cave.wav","None","735.63815048","336","211675.619081","218574.820249","219341.482937","220091.479537","220874.97032","207008.115699","207774.940392","208541.391609","212442.021139","213208.816153","213975.306325","214741.899142","215508.590892","216274.735413","217041.924617","217808.728287","220100.980933"
"Mixed","both","cave","19","M_cling.wav","space","504.499652423","336","211675.619081","218574.820249","219341.482937","220091.479537","220874.97032","221624.18101","207774.940392","208541.391609","212442.021139","213208.816153","213975.306325","214741.899142","215508.590892","216274.735413","217041.924617","217808.728287","220884.8387"
"Mixed","both","cave","19","F_cave.wav","None","736.043471843","336","211675.619081","218574.820249","219341.482937","220091.479537","220874.97032","221624.18101","222391.15596","208541.391609","212442.021139","213208.816153","213975.306325","214741.899142","215508.590892","216274.735413","217041.924617","217808.728287","221632.870218"
"Mixed","both","cave","19","M_gnash.wav","None","736.046563368","336","211675.619081","218574.820249","219341.482937","220091.479537","220874.97032","221624.18101","222391.15596","223157.813393","212442.021139","213208.816153","213975.306325","214741.899142","215508.590892","216274.735413","217041.924617","217808.728287","222399.8294"
"Mixed","both","done","45","F_dime.wav","space","62.1783090755","336","226290.670316","218574.820249","219341.482937","220091.479537","220874.97032","221624.18101","222391.15596","223157.813393","212442.021139","213208.816153","213975.306325","214741.899142","215508.590892","216274.735413","217041.924617","217808.728287","223167.099916"
"Mixed","both","done","45","M_done.wav","None","727.71228198","336","226290.670316","218574.820249","219341.482937","220091.479537","220874.97032","221624.18101","222391.15596","223157.813393","227057.88209","213208.816153","213975.306325","214741.899142","215508.590892","216274.735413","217041.924617","217808.728287","226299.563576"
"Mixed","both","done","45","M_gnash.wav","space","577.87515223","336","226290.670316","218574.820249","219341.482937","220091.479537","220874.97032","221624.18101","222391.15596","223157.813393","227057.88209","227825.115506","213975.306325","214741.899142","215508.590892","216274.735413","217041.924617","217808.728287","227067.291354"
"Mixed","both","done","45","F_done.wav","None","724.898530636","336","226290.670316","218574.820249","219341.482937","220091.479537","220874.97032","221624.18101","222391.15596","223157.813393","227057.88209","227825.115506","228590.904481","214741.899142","215508.590892","216274.735413","217041.924617","217808.728287","227834.467573"
"Mixed","both","done","45","F_jaw.wav","space","508.935307153","336","226290.670316","218574.820249","219341.482937","220091.479537","220874.97032","221624.18101","222391.15596","223157.813393","227057.88209","227825.115506","228590.904481","229358.240541","215508.590892","216274.735413","217041.924617","217808.728287","228600.162252"
"Mixed","both","done","45","M_bluff.wav","None","728.470983915","336","226290.670316","218574.820249","219341.482937","220091.479537","220874.97032","221624.18101","222391.15596","223157.813393","227057.88209","227825.115506","228590.904481","229358.240541","230124.867366","216274.735413","217041.924617","217808.728287","229362.424531"
"Mixed","both","done","45","M_jolt.wav","None","722.824312747","336","226290.670316","218574.820249","219341.482937","220091.479537","220874.97032","221624.18101","222391.15596","223157.813393","227057.88209","227825.115506","228590.904481","229358.240541","230124.867366","230891.50965","217041.924617","217808.728287","230134.283741"
"Mixed","both","done","45","M_cad.wav","None","722.440324258","336","226290.670316","218574.820249","219341.482937","220091.479537","220874.97032","221624.18101","222391.15596","223157.813393","227057.88209","227825.115506","228590.904481","229358.240541","230124.867366","230891.50965","231657.624799","217808.728287","230901.173669"
"Mixed","both","done","45","F_jaw.wav","None","729.637171142","336","226290.670316","218574.820249","219341.482937","220091.479537","220874.97032","221624.18101","222391.15596","223157.813393","227057.88209","227825.115506","228590.904481","229358.240541","230124.867366","230891.50965","231657.624799","232424.975081","231661.979761"
"Mixed","both","done","45","F_gnash.wav","None","723.731106613","336","226290.670316","233191.073226","219341.482937","220091.479537","220874.97032","221624.18101","222391.15596","223157.813393","227057.88209","227825.115506","228590.904481","229358.240541","230124.867366","230891.50965","231657.624799","232424.975081","232434.47184"
"Mixed","both","done","45","M_park.wav","None","724.683657754","336","226290.670316","233191.073226","233957.505274","220091.479537","220874.97032","221624.18101","222391.15596","223157.813393","227057.88209","227825.115506","228590.904481","229358.240541","230124.867366","230891.50965","231657.624799","232424.975081","233200.497639"
"Mixed","both","done","45","M_done.wav","None","724.375724792","336","226290.670316","233191.073226","233957.505274","234724.349136","220874.97032","221624.18101","222391.15596","223157.813393","227057.88209","227825.115506","228590.904481","229358.240541","230124.867366","230891.50965","231657.624799","232424.975081","233967.066959"
"Mixed","both","done","45","F_park.wav","space","527.274621651","336","226290.670316","233191.073226","233957.505274","234724.349136","235491.444353","221624.18101","222391.15596","223157.813393","227057.88209","227825.115506","228590.904481","229358.240541","230124.867366","230891.50965","231657.624799","232424.975081","234733.631022"
"Mixed","both","done","45","F_gnash.wav","None","722.552552819","336","226290.670316","233191.073226","233957.505274","234724.349136","235491.444353","236257.396261","222391.15596","223157.813393","227057.88209","227825.115506","228590.904481","229358.240541","230124.867366","230891.50965","231657.624799","232424.975081","235501.439493"
"Mixed","both","done","45","F_done.wav","None","724.59338","336","226290.670316","233191.073226","233957.505274","234724.349136","235491.444353","236257.396261","237023.827382","223157.813393","227057.88209","227825.115506","228590.904481","229358.240541","230124.867366","230891.50965","231657.624799","232424.975081","236266.266643"
"Mixed","both","done","45","M_knife.wav","space","612.181524746","336","226290.670316","233191.073226","233957.505274","234724.349136","235491.444353","236257.396261","237023.827382","237790.682992","227057.88209","227825.115506","228590.904481","229358.240541","230124.867366","230891.50965","231657.624799","232424.975081","237032.675812"
"Mixed","both","cave","23","M_priest.wav","None","723.82014757","336","240924.106315","233191.073226","233957.505274","234724.349136","235491.444353","236257.396261","237023.827382","237790.682992","227057.88209","227825.115506","228590.904481","229358.240541","230124.867366","230891.50965","231657.624799","232424.975081","237799.809366"
"Mixed","both","cave","23","F_jolt.wav","None","723.493664525","336","240924.106315","233191.073226","233957.505274","234724.349136","235491.444353","236257.396261","237023.827382","237790.682992","241691.214825","227825.115506","228590.904481","229358.240541","230124.867366","230891.50965","231657.624799","232424.975081","240932.936813"
"Mixed","both","cave","23","F_dime.wav","None","722.461347468","336","240924.106315","233191.073226","233957.505274","234724.349136","235491.444353","236257.396261","237023.827382","237790.682992","241691.214825","242457.661096","228590.904481","229358.240541","230124.867366","230891.50965","231657.624799","232424.975081","241700.93295"
"Mixed","both","cave","23","F_cave.wav","None","722.118787467","336","240924.106315","233191.073226","233957.505274","234724.349136","235491.444353","236257.396261","237023.827382","237790.682992","241691.214825","242457.661096","243224.601728","229358.240541","230124.867366","230891.50965","231657.624799","232424.975081","242467.560084"
"Mixed","both","cave","23","M_knife.wav","space","426.457239315","336","240924.106315","233191.073226","233957.505274","234724.349136","235491.444353","236257.396261","237023.827382","237790.682992","241691.214825","242457.661096","243224.601728","243991.156207","230124.867366","230891.50965","231657.624799","232424.975081","243234.204841"
"Mixed","both","cave","23","M_knife.wav","None","720.596128143","336","240924.106315","233191.073226","233957.505274","234724.349136","235491.444353","236257.396261","237023.827382","237790.682992","241691.214825","242457.661096","243224.601728","243991.156207","244757.736657","230891.50965","231657.624799","232424.975081","244001.261411"
"Mixed","both","cave","23","F_reek.wav","None","719.826605171","336","240924.106315","233191.073226","233957.505274","234724.349136","235491.444353","236257.396261","237023.827382","237790.682992","241691.214825","242457.661096","243224.601728","243991.156207","244757.736657","245524.373066","231657.624799","232424.975081","244769.14872"
"Mixed","both","cave","23","M_cad.wav","None","720.536149573","336","240924.106315","233191.073226","233957.505274","234724.349136","235491.444353","236257.396261","237023.827382","237790.682992","241691.214825","242457.661096","243224.601728","243991.156207","244757.736657","245524.373066","246291.013495","232424.975081","245534.800425"
"Mixed","both","cave","23","M_greet.wav","None","721.598764881","336","240924.106315","233191.073226","233957.505274","234724.349136","235491.444353","236257.396261","237023.827382","237790.682992","241691.214825","242457.661096","243224.601728","243991.156207","244757.736657","245524.373066","246291.013495","247057.961238","246300.70132"
"Mixed","both","cave","23","M_cave.wav","None","720.850574784","336","240924.106315","247823.833998","233957.505274","234724.349136","235491.444353","236257.396261","237023.827382","237790.682992","241691.214825","242457.661096","243224.601728","243991.156207","244757.736657","245524.373066","246291.013495","247057.961238","247067.988222"
"Mixed","both","cave","23","F_cad.wav","space","444.132767152","336","240924.106315","247823.833998","248590.54028","234724.349136","235491.444353","236257.396261","237023.827382","237790.682992","241691.214825","242457.661096","243224.601728","243991.156207","244757.736657","245524.373066","246291.013495","247057.961238","247832.42489"
"Mixed","both","cave","23","M_cave.wav","None","721.691206563","336","240924.106315","247823.833998","248590.54028","249357.562223","235491.444353","236257.396261","237023.827382","237790.682992","241691.214825","242457.661096","243224.601728","243991.156207","244757.736657","245524.373066","246291.013495","247057.961238","248599.313891"
"Mixed","both","cave","23","F_cad.wav","None","726.015869062","336","240924.106315","247823.833998","248590.54028","249357.562223","250124.371768","236257.396261","237023.827382","237790.682992","241691.214825","242457.661096","243224.601728","243991.156207","244757.736657","245524.373066","246291.013495","247057.961238","249362.082281"
"Mixed","both","cave","23","F_depth.wav","space","662.492054049","336","240924.106315","247823.833998","248590.54028","249357.562223","250124.371768","250890.881417","237023.827382","237790.682992","241691.214825","242457.661096","243224.601728","243991.156207","244757.736657","245524.373066","246291.013495","247057.961238","250133.966842"
"Mixed","both","cave","23","F_cave.wav","None","719.81702093","336","240924.106315","247823.833998","248590.54028","249357.562223","250124.371768","250890.881417","251657.58337","237790.682992","241691.214825","242457.661096","243224.601728","243991.156207","244757.736657","245524.373066","246291.013495","247057.961238","250900.874702"
"Mixed","both","cave","23","M_jolt.wav","space","568.566987291","336","240924.106315","247823.833998","248590.54028","249357.562223","250124.371768","250890.881417","251657.58337","252407.262452","241691.214825","242457.661096","243224.601728","243991.156207","244757.736657","245524.373066","246291.013495","247057.961238","251667.857381"
"Mixed","both","cave","16","F_depth.wav","None","736.082118005","336","255540.804805","247823.833998","248590.54028","249357.562223","250124.371768","250890.881417","251657.58337","252407.262452","241691.214825","242457.661096","243224.601728","243991.156207","244757.736657","245524.373066","246291.013495","247057.961238","252416.321736"
"Mixed","both","cave","16","M_cave.wav","None","721.710065845","336","255540.804805","247823.833998","248590.54028","249357.562223","250124.371768","250890.881417","251657.58337","252407.262452","256307.00745","242457.661096","243224.601728","243991.156207","244757.736657","245524.373066","246291.013495","247057.961238","255550.294762"
"Mixed","both","cave","16","M_jolt.wav","space","560.022470076","336","255540.804805","247823.833998","248590.54028","249357.562223","250124.371768","250890.881417","251657.58337","252407.262452","256307.00745","257074.060929","243224.601728","243991.156207","244757.736657","245524.373066","246291.013495","247057.961238","256316.267385"
"Mixed","both","cave","16","M_cave.wav","None","720.435050782","336","255540.804805","247823.833998","248590.54028","249357.562223","250124.371768","250890.881417","251657.58337","252407.262452","256307.00745","257074.060929","257840.607369","243991.156207","244757.736657","245524.373066","246291.013495","247057.961238","257083.873658"
"Mixed","both","cave","16","M_romp.wav","space","484.795045573","336","255540.804805","247823.833998","248590.54028","249357.562223","250124.371768","250890.881417","251657.58337","252407.262452","256307.00745","257074.060929","257840.607369","258606.678926","244757.736657","245524.373066","246291.013495","247057.961238","257846.431195"
"Mixed","both","cave","16","F_cad.wav","None","721.117387991","336","255540.804805","247823.833998","248590.54028","249357.562223","250124.371768","250890.881417","251657.58337","252407.262452","256307.00745","257074.060929","257840.607369","258606.678926","259373.963045","245524.373066","246291.013495","247057.961238","258615.481599"
"Mixed","both","cave","16","F_bluff.wav","None","720.106713008","336","255540.804805","247823.833998","248590.54028","249357.562223","250124.371768","250890.881417","251657.58337","252407.262452","256307.00745","257074.060929","257840.607369","258606.678926","259373.963045","260140.587706","246291.013495","247057.961238","259383.790615"
"Mixed","both","cave","16","M_bluff.wav","None","720.585925505","336","255540.804805","247823.833998","248590.54028","249357.562223","250124.371768","250890.881417","251657.58337","252407.262452","256307.00745","257074.060929","257840.607369","258606.678926","259373.963045","260140.587706","260907.078497","247057.961238","260150.382504"
"Mixed","both","cave","16","F_jolt.wav","None","720.211521257","336","255540.804805","247823.833998","248590.54028","249357.562223","250124.371768","250890.881417","251657.58337","252407.262452","256307.00745","257074.060929","257840.607369","258606.678926","259373.963045","260140.587706","260907.078497","261673.491376","260917.345397"
"Mixed","both","cave","16","M_jaw.wav","None","721.609276254","336","255540.804805","262440.869174","248590.54028","249357.562223","250124.371768","250890.881417","251657.58337","252407.262452","256307.00745","257074.060929","257840.607369","258606.678926","259373.963045","260140.587706","260907.078497","261673.491376","261682.5284"
"Mixed","both","cave","16","F_cling.wav","None","719.486827962","336","255540.804805","262440.869174","263207.018023","249357.562223","250124.371768","250890.881417","251657.58337","252407.262452","256307.00745","257074.060929","257840.607369","258606.678926","259373.963045","260140.587706","260907.078497","261673.491376","262450.947481"
"Mixed","both","cave","16","F_cave.wav","None","720.850265585","336","255540.804805","262440.869174","263207.018023","263973.810872","250124.371768","250890.881417","251657.58337","252407.262452","256307.00745","257074.060929","257840.607369","258606.678926","259373.963045","260140.587706","260907.078497","261673.491376","263216.620827"
"Mixed","both","cave","16","M_park.wav","space","516.115458682","336","255540.804805","262440.869174","263207.018023","263973.810872","264740.644841","250890.881417","251657.58337","252407.262452","256307.00745","257074.060929","257840.607369","258606.678926","259373.963045","260140.587706","260907.078497","261673.491376","263983.879595"
"Mixed","both","cave","16","F_cave.wav","None","719.375527464","336","255540.804805","262440.869174","263207.018023","263973.810872","264740.644841","265507.342156","251657.58337","252407.262452","256307.00745","257074.060929","257840.607369","258606.678926","259373.963045","260140.587706","260907.078497","261673.491376","264750.156439"
"Mixed","both","cave","16","F_cad.wav","None","718.838499859","336","255540.804805","262440.869174","263207.018023","263973.810872","264740.644841","265507.342156","266273.595196","252407.262452","256307.00745","257074.060929","257840.607369","258606.678926","259373.963045","260140.587706","260907.078497","261673.491376","265517.212392"
"Mixed","both","cave","16","M_cad.wav","None","719.536295161","336","255540.804805","262440.869174","263207.018023","263973.810872","264740.644841","265507.342156","266273.595196","267040.497491","256307.00745","257074.060929","257840.607369","258606.678926","259373.963045","260140.587706","260907.078497","261673.491376","266283.515517"
"Mixed","both","cave","13","M_park.wav","None","719.457147643","336","270173.462005","262440.869174","263207.018023","263973.810872","264740.644841","265507.342156","266273.595196","267040.497491","256307.00745","257074.060929","257840.607369","258606.678926","259373.963045","260140.587706","260907.078497","261673.491376","267050.612588"
"Mixed","both","cave","13","M_gnash.wav","None","722.708065063","336","270173.462005","262440.869174","263207.018023","263973.810872","264740.644841","265507.342156","266273.595196","267040.497491","270940.372339","257074.060929","257840.607369","258606.678926","259373.963045","260140.587706","260907.078497","261673.491376","270183.425301"
"Mixed","both","cave","13","F_gnash.wav","None","723.099473398","336","270173.462005","262440.869174","263207.018023","263973.810872","264740.644841","265507.342156","266273.595196","267040.497491","270940.372339","271706.212946","257840.607369","258606.678926","259373.963045","260140.587706","260907.078497","261673.491376","270950.180122"
"Mixed","both","cave","13","M_cave.wav","None","725.467711687","336","270173.462005","262440.869174","263207.018023","263973.810872","264740.644841","265507.342156","266273.595196","267040.497491","270940.372339","271706.212946","272473.22345","258606.678926","259373.963045","260140.587706","260907.078497","261673.491376","271715.006035"
"Mixed","both","cave","13","M_dime.wav","space","465.121664573","336","270173.462005","262440.869174","263207.018023","263973.810872","264740.644841","265507.342156","266273.595196","267040.497491","270940.372339","271706.212946","272473.22345","273239.661373","259373.963045","260140.587706","260907.078497","261673.491376","272482.680326"
"Mixed","both","cave","13","M_cave.wav","None","724.569883198","336","270173.462005","262440.869174","263207.018023","263973.810872","264740.644841","265507.342156","266273.595196","267040.497491","270940.372339","271706.212946","272473.22345","273239.661373","274005.996033","260140.587706","260907.078497","261673.491376","273248.64862"
"Mixed","both","cave","13","F_bluff.wav","space","571.745248977","336","270173.462005","262440.869174","263207.018023","263973.810872","264740.644841","265507.342156","266273.595196","267040.497491","270940.372339","271706.212946","272473.22345","273239.661373","274005.996033","274772.949032","260907.078497","261673.491376","274015.071703"
"Mixed","both","cave","13","F_cave.wav","None","723.793868441","336","270173.462005","262440.869174","263207.018023","263973.810872","264740.644841","265507.342156","266273.595196","267040.497491","270940.372339","271706.212946","272473.22345","273239.661373","274005.996033","274772.949032","275540.11814","261673.491376","274781.883411"
"Mixed","both","cave","13","M_cling.wav","space","700.851947535","336","270173.462005","262440.869174","263207.018023","263973.810872","264740.644841","265507.342156","266273.595196","267040.497491","270940.372339","271706.212946","272473.22345","273239.661373","274005.996033","274772.949032","275540.11814","276306.752385","275550.852504"
"Mixed","both","cave","13","F_cad.wav","None","721.604329534","336","270173.462005","277072.826415","263207.018023","263973.810872","264740.644841","265507.342156","266273.595196","267040.497491","270940.372339","271706.212946","272473.22345","273239.661373","274005.996033","274772.949032","275540.11814","276306.752385","276316.616128"
"Mixed","both","cave","13","F_dime.wav","None","723.448525649","336","270173.462005","277072.826415","277840.012218","263973.810872","264740.644841","265507.342156","266273.595196","267040.497491","270940.372339","271706.212946","272473.22345","273239.661373","274005.996033","274772.949032","275540.11814","276306.752385","277081.745336"
"Mixed","both","cave","13","M_knife.wav","None","721.959256567","336","270173.462005","277072.826415","277840.012218","278606.140044","264740.644841","265507.342156","266273.595196","267040.497491","270940.372339","271706.212946","272473.22345","273239.661373","274005.996033","274772.949032","275540.11814","276306.752385","277849.870705"
"Mixed","both","cave","13","F_cave.wav","None","724.026672542","336","270173.462005","277072.826415","277840.012218","278606.140044","279373.517842","265507.342156","266273.595196","267040.497491","270940.372339","271706.212946","272473.22345","273239.661373","274005.996033","274772.949032","275540.11814","276306.752385","278614.99744"
"Mixed","both","cave","13","M_greet.wav","space","476.394910831","336","270173.462005","277072.826415","277840.012218","278606.140044","279373.517842","280139.631136","266273.595196","267040.497491","270940.372339","271706.212946","272473.22345","273239.661373","274005.996033","274772.949032","275540.11814","276306.752385","279383.176605"
"Mixed","both","cave","13","F_cling.wav","None","722.420846578","336","270173.462005","277072.826415","277840.012218","278606.140044","279373.517842","280139.631136","280906.603612","267040.497491","270940.372339","271706.212946","272473.22345","273239.661373","274005.996033","274772.949032","275540.11814","276306.752385","280148.816252"
"Mixed","both","cave","13","F_knife.wav","None","721.666782163","336","270173.462005","277072.826415","277840.012218","278606.140044","279373.517842","280139.631136","280906.603612","281673.317005","270940.372339","271706.212946","272473.22345","273239.661373","274005.996033","274772.949032","275540.11814","276306.752385","280916.65533"
"Mixed","both","ball","10","M_cad.wav","None","722.017689608","336","284806.40426","277072.826415","277840.012218","278606.140044","279373.517842","280139.631136","280906.603612","281673.317005","270940.372339","271706.212946","272473.22345","273239.661373","274005.996033","274772.949032","275540.11814","276306.752385","281683.471985"
"Mixed","both","ball","10","M_gnash.wav","None","722.457637545","336","284806.40426","277072.826415","277840.012218","278606.140044","279373.517842","280139.631136","280906.603612","281673.317005","285573.058601","271706.212946","272473.22345","273239.661373","274005.996033","274772.949032","275540.11814","276306.752385","284815.620293"
"Mixed","both","ball","10","F_park.wav","None","722.316656262","336","284806.40426","277072.826415","277840.012218","278606.140044","279373.517842","280139.631136","280906.603612","281673.317005","285573.058601","286339.260936","272473.22345","273239.661373","274005.996033","274772.949032","275540.11814","276306.752385","285582.924508"
"Mixed","both","ball","10","M_jaw.wav","None","724.388401024","336","284806.40426","277072.826415","277840.012218","278606.140044","279373.517842","280139.631136","280906.603612","281673.317005","285573.058601","286339.260936","287106.630077","273239.661373","274005.996033","274772.949032","275540.11814","276306.752385","286348.106893"
"Mixed","both","ball","10","F_cad.wav","None","722.38096362","336","284806.40426","277072.826415","277840.012218","278606.140044","279373.517842","280139.631136","280906.603612","281673.317005","285573.058601","286339.260936","287106.630077","287872.77398","274005.996033","274772.949032","275540.11814","276306.752385","287116.766817"
"Mixed","both","ball","10","M_lash.wav","None","725.101654883","336","284806.40426","277072.826415","277840.012218","278606.140044","279373.517842","280139.631136","280906.603612","281673.317005","285573.058601","286339.260936","287106.630077","287872.77398","288639.381327","274772.949032","275540.11814","276306.752385","287881.764937"
"Mixed","both","ball","10","F_ball.wav","None","725.30508833","336","284806.40426","277072.826415","277840.012218","278606.140044","279373.517842","280139.631136","280906.603612","281673.317005","285573.058601","286339.260936","287106.630077","287872.77398","288639.381327","289405.882938","275540.11814","276306.752385","288648.789973"
"Mixed","both","ball","10","F_cad.wav","space","468.402880244","336","284806.40426","277072.826415","277840.012218","278606.140044","279373.517842","280139.631136","280906.603612","281673.317005","285573.058601","286339.260936","287106.630077","287872.77398","288639.381327","289405.882938","290172.169677","276306.752385","289414.845143"
"Mixed","both","ball","10","F_priest.wav","None","728.821890894","336","284806.40426","277072.826415","277840.012218","278606.140044","279373.517842","280139.631136","280906.603612","281673.317005","285573.058601","286339.260936","287106.630077","287872.77398","288639.381327","289405.882938","290172.169677","290939.310342","290180.9875"
"Mixed","both","ball","10","M_reek.wav","None","728.775824886","336","284806.40426","291705.837614","277840.012218","278606.140044","279373.517842","280139.631136","280906.603612","281673.317005","285573.058601","286339.260936","287106.630077","287872.77398","288639.381327","289405.882938","290172.169677","290939.310342","290948.24534"
"Mixed","both","ball","10","M_ball.wav","None","729.245453142","336","284806.40426","291705.837614","292472.632627","278606.140044","279373.517842","280139.631136","280906.603612","281673.317005","285573.058601","286339.260936","287106.630077","287872.77398","288639.381327","289405.882938","290172.169677","290939.310342","291715.133722"
"Mixed","both","ball","10","F_lash.wav","space","472.84255363","336","284806.40426","291705.837614","292472.632627","293239.316958","279373.517842","280139.631136","280906.603612","281673.317005","285573.058601","286339.260936","287106.630077","287872.77398","288639.381327","289405.882938","290172.169677","290939.310342","292482.357862"
"Mixed","both","ball","10","M_ball.wav","None","728.496335912","336","284806.40426","291705.837614","292472.632627","293239.316958","294005.383877","280139.631136","280906.603612","281673.317005","285573.058601","286339.260936","287106.630077","287872.77398","288639.381327","289405.882938","290172.169677","290939.310342","293248.688812"
"Mixed","both","ball","10","F_romp.wav","space","604.61181961","336","284806.40426","291705.837614","292472.632627","293239.316958","294005.383877","294772.209498","280906.603612","281673.317005","285573.058601","286339.260936","287106.630077","287872.77398","288639.381327","289405.882938","290172.169677","290939.310342","294014.537457"
"Mixed","both","ball","10","F_ball.wav","None","729.18578377","336","284806.40426","291705.837614","292472.632627","293239.316958","294005.383877","294772.209498","295539.280599","281673.317005","285573.058601","286339.260936","287106.630077","287872.77398","288639.381327","289405.882938","290172.169677","290939.310342","294780.960231"
"Mixed","both","ball","10","M_depth.wav","space","486.366553698","336","284806.40426","291705.837614","292472.632627","293239.316958","294005.383877","294772.209498","295539.280599","296305.534566","285573.058601","286339.260936","287106.630077","287872.77398","288639.381327","289405.882938","290172.169677","290939.310342","295548.703158"
"Mixed","both","done","37","M_park.wav","None","728.733159602","336","299439.402165","291705.837614","292472.632627","293239.316958","294005.383877","294772.209498","295539.280599","296305.534566","285573.058601","286339.260936","287106.630077","287872.77398","288639.381327","289405.882938","290172.169677","290939.310342","296314.388871"
"Mixed","both","done","37","M_jaw.wav","None","720.710829832","336","299439.402165","291705.837614","292472.632627","293239.316958","294005.383877","294772.209498","295539.280599","296305.534566","300206.190686","286339.260936","287106.630077","287872.77398","288639.381327","289405.882938","290172.169677","290939.310342","299449.883938"
"Mixed","both","done","37","M_done.wav","None","721.533839125","336","299439.402165","291705.837614","292472.632627","293239.316958","294005.383877","294772.209498","295539.280599","296305.534566","300206.190686","300972.683022","287106.630077","287872.77398","288639.381327","289405.882938","290172.169677","290939.310342","300216.181497"
"Mixed","both","done","37","M_jolt.wav","space","684.363630135","336","299439.402165","291705.837614","292472.632627","293239.316958","294005.383877","294772.209498","295539.280599","296305.534566","300206.190686","300972.683022","301739.33118","287872.77398","288639.381327","289405.882938","290172.169677","290939.310342","300982.572426"
"Mixed","both","done","37","F_cad.wav","None","720.685787499","336","299439.402165","291705.837614","292472.632627","293239.316958","294005.383877","294772.209498","295539.280599","296305.534566","300206.190686","300972.683022","301739.33118","302505.803111","288639.381327","289405.882938","290172.169677","290939.310342","301749.457098"
"Mixed","both","done","37","M_gnash.wav","None","721.643594094","336","299439.402165","291705.837614","292472.632627","293239.316958","294005.383877","294772.209498","295539.280599","296305.534566","300206.190686","300972.683022","301739.33118","302505.803111","303272.042237","289405.882938","290172.169677","290939.310342","302515.669327"
"Mixed","both","done","37","F_bluff.wav","None","723.231488839","336","299439.402165","291705.837614","292472.632627","293239.316958","294005.383877","294772.209498","295539.280599","296305.534566","300206.190686","300972.683022","301739.33118","302505.803111","303272.042237","304039.248446","290172.169677","290939.310342","303281.404507"
"Mixed","both","done","37","M_done.wav","None","722.936541308","336","299439.402165","291705.837614","292472.632627","293239.316958","294005.383877","294772.209498","295539.280599","296305.534566","300206.190686","300972.683022","301739.33118","302505.803111","303272.042237","304039.248446","304805.705846","290939.310342","304048.977391"
"Mixed","both","done","37","M_dime.wav","space","498.791147489","336","299439.402165","291705.837614","292472.632627","293239.316958","294005.383877","294772.209498","295539.280599","296305.534566","300206.190686","300972.683022","301739.33118","302505.803111","303272.042237","304039.248446","304805.705846","305572.464068","304816.046947"
"Mixed","both","done","37","F_bluff.wav","None","723.033620045","336","299439.402165","306339.46437","292472.632627","293239.316958","294005.383877","294772.209498","295539.280599","296305.534566","300206.190686","300972.683022","301739.33118","302505.803111","303272.042237","304039.248446","304805.705846","305572.464068","305581.394738"
"Mixed","both","done","37","F_done.wav","None","722.251730971","336","299439.402165","306339.46437","307105.973092","293239.316958","294005.383877","294772.209498","295539.280599","296305.534566","300206.190686","300972.683022","301739.33118","302505.803111","303272.042237","304039.248446","304805.705846","305572.464068","306349.607602"
"Mixed","both","done","37","M_greet.wav","None","723.036093637","336","299439.402165","306339.46437","307105.973092","307872.137709","294005.383877","294772.209498","295539.280599","296305.534566","300206.190686","300972.683022","301739.33118","302505.803111","303272.042237","304039.248446","304805.705846","305572.464068","307115.915983"
"Mixed","both","done","37","F_gnash.wav","space","97.2718265839","336","299439.402165","306339.46437","307105.973092","307872.137709","308638.584288","294772.209498","295539.280599","296305.534566","300206.190686","300972.683022","301739.33118","302505.803111","303272.042237","304039.248446","304805.705846","305572.464068","307881.469371"
"Mixed","both","done","37","F_jolt.wav","None","724.512377754","336","299439.402165","306339.46437","307105.973092","307872.137709","308638.584288","309405.759271","295539.280599","296305.534566","300206.190686","300972.683022","301739.33118","302505.803111","303272.042237","304039.248446","304805.705846","305572.464068","308647.525779"
"Mixed","both","done","37","F_done.wav","None","723.719667643","336","299439.402165","306339.46437","307105.973092","307872.137709","308638.584288","309405.759271","310172.436181","296305.534566","300206.190686","300972.683022","301739.33118","302505.803111","303272.042237","304039.248446","304805.705846","305572.464068","309415.529644"
"Mixed","both","done","37","F_gnash.wav","space","428.471169434","336","299439.402165","306339.46437","307105.973092","307872.137709","308638.584288","309405.759271","310172.436181","310939.200587","300206.190686","300972.683022","301739.33118","302505.803111","303272.042237","304039.248446","304805.705846","305572.464068","310182.205009"
"Mixed","both","cave","18","M_romp.wav","None","723.065464757","336","314072.130783","306339.46437","307105.973092","307872.137709","308638.584288","309405.759271","310172.436181","310939.200587","300206.190686","300972.683022","301739.33118","302505.803111","303272.042237","304039.248446","304805.705846","305572.464068","310949.296515"
"Mixed","both","cave","18","F_lash.wav","None","722.311091144","336","314072.130783","306339.46437","307105.973092","307872.137709","308638.584288","309405.759271","310172.436181","310939.200587","314839.068324","300972.683022","301739.33118","302505.803111","303272.042237","304039.248446","304805.705846","305572.464068","314082.513313"
"Mixed","both","cave","18","F_depth.wav","None","722.687041387","336","314072.130783","306339.46437","307105.973092","307872.137709","308638.584288","309405.759271","310172.436181","310939.200587","314839.068324","315605.648464","301739.33118","302505.803111","303272.042237","304039.248446","304805.705846","305572.464068","314849.047078"
"Mixed","both","cave","18","M_reek.wav","None","724.118495826","336","314072.130783","306339.46437","307105.973092","307872.137709","308638.584288","309405.759271","310172.436181","310939.200587","314839.068324","315605.648464","316372.133072","302505.803111","303272.042237","304039.248446","304805.705846","305572.464068","315614.890777"
"Mixed","both","cave","18","M_depth.wav","None","724.522889592","336","314072.130783","306339.46437","307105.973092","307872.137709","308638.584288","309405.759271","310172.436181","310939.200587","314839.068324","315605.648464","316372.133072","317138.62077","303272.042237","304039.248446","304805.705846","305572.464068","316381.74546"
"Mixed","both","cave","18","M_cave.wav","None","731.477656867","336","314072.130783","306339.46437","307105.973092","307872.137709","308638.584288","309405.759271","310172.436181","310939.200587","314839.068324","315605.648464","316372.133072","317138.62077","317905.165665","304039.248446","304805.705846","305572.464068","317142.660688"
"Mixed","both","cave","18","M_park.wav","space","567.916185595","336","314072.130783","306339.46437","307105.973092","307872.137709","308638.584288","309405.759271","310172.436181","310939.200587","314839.068324","315605.648464","316372.133072","317138.62077","317905.165665","318671.747661","304805.705846","305572.464068","317914.510312"
"Mixed","both","cave","18","F_jaw.wav","None","724.856792949","336","314072.130783","306339.46437","307105.973092","307872.137709","308638.584288","309405.759271","310172.436181","310939.200587","314839.068324","315605.648464","316372.133072","317138.62077","317905.165665","318671.747661","319438.048312","305572.464068","318681.323876"
