"Condition","Talker","Target","Trial","current_stimulus","response_response","response_time_response","subject_nr","time_Audio1","time_Audio10","time_Audio11","time_Audio12","time_Audio13","time_Audio14","time_Audio15","time_Audio16","time_Audio2","time_Audio3","time_Audio4","time_Audio5","time_Audio6","time_Audio7","time_Audio8","time_Audio9","time_response"
"Blocked","Male","cave","9","M_park.wav","NA","NA","429","64007.8544236","NA","NA","NA","NA","NA","NA","NA","NA","NA","NA","NA","NA","NA","NA","NA","NA"
"Blocked","Male","cave","9","M_lash.wav","None","739.169083277","429","64007.8544236","NA","NA","NA","NA","NA","NA","NA","64774.4352377","NA","NA","NA","NA","NA","NA","NA","64014.4859311"
"Blocked","Male","cave","9","M_bluff.wav","None","736.798350041","429","64007.8544236","NA","NA","NA","NA","NA","NA","NA","64774.4352377","65541.121249","NA","NA","NA","NA","NA","NA","64779.8742193"
"Blocked","Male","cave","9","M_knife.wav","None","733.189797753","429","64007.8544236","NA","NA","NA","NA","NA","NA","NA","64774.4352377","65541.121249","66307.6979721","NA","NA","NA","NA","NA","65546.1990539"
"Blocked","Male","cave","9","M_knife.wav","None","729.449456889","429","64007.8544236","NA","NA","NA","NA","NA","NA","NA","64774.4352377","65541.121249","66307.6979721","67057.6821926","NA","NA","NA","NA","66312.8000309"
"Blocked","Male","cave","9","M_knife.wav","None","742.350710723","429","64007.8544236","NA","NA","NA","NA","NA","NA","NA","64774.4352377","65541.121249","66307.6979721","67057.6821926","67824.285215","NA","NA","NA","67062.8517528"
"Blocked","Male","cave","9","M_greet.wav","None","738.424521674","429","64007.8544236","NA","NA","NA","NA","NA","NA","NA","64774.4352377","65541.121249","66307.6979721","67057.6821926","67824.285215","68590.9364528","NA","NA","67829.7969579"
"Blocked","Male","cave","9","M_cave.wav","None","735.114027797","429","64007.8544236","NA","NA","NA","NA","NA","NA","NA","64774.4352377","65541.121249","66307.6979721","67057.6821926","67824.285215","68590.9364528","69357.6040545","NA","68596.058382"
"Blocked","Male","cave","9","M_cling.wav","space","460.683173256","429","64007.8544236","NA","NA","NA","NA","NA","NA","NA","64774.4352377","65541.121249","66307.6979721","67057.6821926","67824.285215","68590.9364528","69357.6040545","70124.7754334","69362.6698787"
"Blocked","Male","cave","9","M_cave.wav","None","726.763716822","429","64007.8544236","70874.2228565","NA","NA","NA","NA","NA","NA","64774.4352377","65541.121249","66307.6979721","67057.6821926","67824.285215","68590.9364528","69357.6040545","70124.7754334","70130.3017871"
"Blocked","Male","cave","9","M_cad.wav","space","615.858227058","429","64007.8544236","70874.2228565","71640.797242","NA","NA","NA","NA","NA","64774.4352377","65541.121249","66307.6979721","67057.6821926","67824.285215","68590.9364528","69357.6040545","70124.7754334","70879.3672863"
"Blocked","Male","cave","9","M_cave.wav","None","736.802148826","429","64007.8544236","70874.2228565","71640.797242","72407.4210116","NA","NA","NA","NA","64774.4352377","65541.121249","66307.6979721","67057.6821926","67824.285215","68590.9364528","69357.6040545","70124.7754334","71645.9758608"
"Blocked","Male","cave","9","M_cad.wav","space","538.360702107","429","64007.8544236","70874.2228565","71640.797242","72407.4210116","73174.0915355","NA","NA","NA","64774.4352377","65541.121249","66307.6979721","67057.6821926","67824.285215","68590.9364528","69357.6040545","70124.7754334","72412.7550883"
"Blocked","Male","cave","9","M_gnash.wav","None","729.196983884","429","64007.8544236","70874.2228565","71640.797242","72407.4210116","73174.0915355","73924.0497489","NA","NA","64774.4352377","65541.121249","66307.6979721","67057.6821926","67824.285215","68590.9364528","69357.6040545","70124.7754334","73179.1509309"
"Blocked","Male","cave","9","M_cave.wav","None","741.827939644","429","64007.8544236","70874.2228565","71640.797242","72407.4210116","73174.0915355","73924.0497489","74690.642836","NA","64774.4352377","65541.121249","66307.6979721","67057.6821926","67824.285215","68590.9364528","69357.6040545","70124.7754334","73929.4104171"
"Blocked","Male","cave","9","M_dime.wav","space","695.213941653","429","64007.8544236","70874.2228565","71640.797242","72407.4210116","73174.0915355","73924.0497489","74690.642836","75457.2855996","64774.4352377","65541.121249","66307.6979721","67057.6821926","67824.285215","68590.9364528","69357.6040545","70124.7754334","74695.7039847"
"Blocked","Male","tile","16","M_lash.wav","None","734.182449152","429","78573.830822","70874.2228565","71640.797242","72407.4210116","73174.0915355","73924.0497489","74690.642836","75457.2855996","64774.4352377","65541.121249","66307.6979721","67057.6821926","67824.285215","68590.9364528","69357.6040545","70124.7754334","75462.5448695"
"Blocked","Male","tile","16","M_greet.wav","None","740.884964645","429","78573.830822","70874.2228565","71640.797242","72407.4210116","73174.0915355","73924.0497489","74690.642836","75457.2855996","79340.4110518","65541.121249","66307.6979721","67057.6821926","67824.285215","68590.9364528","69357.6040545","70124.7754334","78578.747617"
"Blocked","Male","tile","16","M_tile.wav","None","737.199267831","429","78573.830822","70874.2228565","71640.797242","72407.4210116","73174.0915355","73924.0497489","74690.642836","75457.2855996","79340.4110518","80107.0593674","66307.6979721","67057.6821926","67824.285215","68590.9364528","69357.6040545","70124.7754334","79345.5306433"
"Blocked","Male","tile","16","M_gnash.wav","space","558.433182901","429","78573.830822","70874.2228565","71640.797242","72407.4210116","73174.0915355","73924.0497489","74690.642836","75457.2855996","79340.4110518","80107.0593674","80873.7366122","67057.6821926","67824.285215","68590.9364528","69357.6040545","70124.7754334","80112.0147346"
"Blocked","Male","tile","16","M_park.wav","None","730.32405378","429","78573.830822","70874.2228565","71640.797242","72407.4210116","73174.0915355","73924.0497489","74690.642836","75457.2855996","79340.4110518","80107.0593674","80873.7366122","81623.681676","67824.285215","68590.9364528","69357.6040545","70124.7754334","80878.5628208"
"Blocked","Male","tile","16","M_cad.wav","None","743.224723185","429","78573.830822","70874.2228565","71640.797242","72407.4210116","73174.0915355","73924.0497489","74690.642836","75457.2855996","79340.4110518","80107.0593674","80873.7366122","81623.681676","82390.2788541","68590.9364528","69357.6040545","70124.7754334","81628.9313028"
"Blocked","Male","tile","16","M_lash.wav","None","739.647437811","429","78573.830822","70874.2228565","71640.797242","72407.4210116","73174.0915355","73924.0497489","74690.642836","75457.2855996","79340.4110518","80107.0593674","80873.7366122","81623.681676","82390.2788541","83156.9081758","69357.6040545","70124.7754334","82395.5197145"
"Blocked","Male","tile","16","M_tile.wav","None","736.808577538","429","78573.830822","70874.2228565","71640.797242","72407.4210116","73174.0915355","73924.0497489","74690.642836","75457.2855996","79340.4110518","80107.0593674","80873.7366122","81623.681676","82390.2788541","83156.9081758","83923.5424651","70124.7754334","83161.8699717"
"Blocked","Male","tile","16","M_park.wav","space","469.545443386","429","78573.830822","70874.2228565","71640.797242","72407.4210116","73174.0915355","73924.0497489","74690.642836","75457.2855996","79340.4110518","80107.0593674","80873.7366122","81623.681676","82390.2788541","83156.9081758","83923.5424651","84690.2550679","83928.5302681"
"Blocked","Male","tile","16","M_jolt.wav","None","729.512282931","429","78573.830822","85440.1522085","71640.797242","72407.4210116","73174.0915355","73924.0497489","74690.642836","75457.2855996","79340.4110518","80107.0593674","80873.7366122","81623.681676","82390.2788541","83156.9081758","83923.5424651","84690.2550679","84695.2262146"
"Blocked","Male","tile","16","M_tile.wav","space","392.734621648","429","78573.830822","85440.1522085","86206.7619518","72407.4210116","73174.0915355","73924.0497489","74690.642836","75457.2855996","79340.4110518","80107.0593674","80873.7366122","81623.681676","82390.2788541","83156.9081758","83923.5424651","84690.2550679","85445.2960538"
"Blocked","Male","tile","16","M_romp.wav","space","722.014652787","429","78573.830822","85440.1522085","86206.7619518","86973.454684","73174.0915355","73924.0497489","74690.642836","75457.2855996","79340.4110518","80107.0593674","80873.7366122","81623.681676","82390.2788541","83156.9081758","83923.5424651","84690.2550679","86211.9326809"
"Blocked","Male","tile","16","M_cling.wav","None","734.903633627","429","78573.830822","85440.1522085","86206.7619518","86973.454684","87739.9881595","73924.0497489","74690.642836","75457.2855996","79340.4110518","80107.0593674","80873.7366122","81623.681676","82390.2788541","83156.9081758","83923.5424651","84690.2550679","86978.520216"
"Blocked","Male","tile","16","M_tile.wav","None","731.892951444","429","78573.830822","85440.1522085","86206.7619518","86973.454684","87739.9881595","88506.9345335","74690.642836","75457.2855996","79340.4110518","80107.0593674","80873.7366122","81623.681676","82390.2788541","83156.9081758","83923.5424651","84690.2550679","87744.9312537"
"Blocked","Male","tile","16","M_cad.wav","space","517.432910558","429","78573.830822","85440.1522085","86206.7619518","86973.454684","87739.9881595","88506.9345335","89256.645826","75457.2855996","79340.4110518","80107.0593674","80873.7366122","81623.681676","82390.2788541","83156.9081758","83923.5424651","84690.2550679","88512.3980611"
"Blocked","Male","tile","16","M_lash.wav","None","741.187698484","429","78573.830822","85440.1522085","86206.7619518","86973.454684","87739.9881595","88506.9345335","89256.645826","90023.2137827","79340.4110518","80107.0593674","80873.7366122","81623.681676","82390.2788541","83156.9081758","83923.5424651","84690.2550679","89261.7873336"
"Blocked","Male","tile","18","M_romp.wav","None","737.832203635","429","93139.7493621","85440.1522085","86206.7619518","86973.454684","87739.9881595","88506.9345335","89256.645826","90023.2137827","79340.4110518","80107.0593674","80873.7366122","81623.681676","82390.2788541","83156.9081758","83923.5424651","84690.2550679","90028.3570436"
"Blocked","Male","tile","18","M_tile.wav","None","741.45244449","429","93139.7493621","85440.1522085","86206.7619518","86973.454684","87739.9881595","88506.9345335","89256.645826","90023.2137827","93906.4254381","80107.0593674","80873.7366122","81623.681676","82390.2788541","83156.9081758","83923.5424651","84690.2550679","93144.8280437"
"Blocked","Male","tile","18","M_jaw.wav","space","485.910311301","429","93139.7493621","85440.1522085","86206.7619518","86973.454684","87739.9881595","88506.9345335","89256.645826","90023.2137827","93906.4254381","94673.0977152","80873.7366122","81623.681676","82390.2788541","83156.9081758","83923.5424651","84690.2550679","93911.3615191"
"Blocked","Male","tile","18","M_depth.wav","None","734.115824329","429","93139.7493621","85440.1522085","86206.7619518","86973.454684","87739.9881595","88506.9345335","89256.645826","90023.2137827","93906.4254381","94673.0977152","95439.6583666","81623.681676","82390.2788541","83156.9081758","83923.5424651","84690.2550679","94678.5001701"
"Blocked","Male","tile","18","M_cling.wav","None","731.204494954","429","93139.7493621","85440.1522085","86206.7619518","86973.454684","87739.9881595","88506.9345335","89256.645826","90023.2137827","93906.4254381","94673.0977152","95439.6583666","96206.406035","82390.2788541","83156.9081758","83923.5424651","84690.2550679","95444.6070129"
"Blocked","Male","tile","18","M_cad.wav","None","726.644493458","429","93139.7493621","85440.1522085","86206.7619518","86973.454684","87739.9881595","88506.9345335","89256.645826","90023.2137827","93906.4254381","94673.0977152","95439.6583666","96206.406035","96956.3075589","83156.9081758","83923.5424651","84690.2550679","96212.294442"
"Blocked","Male","tile","18","M_tile.wav","None","740.548041758","429","93139.7493621","85440.1522085","86206.7619518","86973.454684","87739.9881595","88506.9345335","89256.645826","90023.2137827","93906.4254381","94673.0977152","95439.6583666","96206.406035","96956.3075589","97722.8617815","83923.5424651","84690.2550679","96961.376013"
"Blocked","Male","tile","18","M_knife.wav","space","461.091980826","429","93139.7493621","85440.1522085","86206.7619518","86973.454684","87739.9881595","88506.9345335","89256.645826","90023.2137827","93906.4254381","94673.0977152","95439.6583666","96206.406035","96956.3075589","97722.8617815","98489.5179869","84690.2550679","97727.9755288"
"Blocked","Male","tile","18","M_cling.wav","None","733.212006024","429","93139.7493621","85440.1522085","86206.7619518","86973.454684","87739.9881595","88506.9345335","89256.645826","90023.2137827","93906.4254381","94673.0977152","95439.6583666","96206.406035","96956.3075589","97722.8617815","98489.5179869","99256.2668242","98494.7977118"
"Blocked","Male","tile","18","M_tile.wav","None","730.143173238","429","93139.7493621","100006.070749","86206.7619518","86973.454684","87739.9881595","88506.9345335","89256.645826","90023.2137827","93906.4254381","94673.0977152","95439.6583666","96206.406035","96956.3075589","97722.8617815","98489.5179869","99256.2668242","99261.1169944"
"Blocked","Male","tile","18","M_reek.wav","space","529.711456078","429","93139.7493621","100006.070749","100772.739227","86973.454684","87739.9881595","88506.9345335","89256.645826","90023.2137827","93906.4254381","94673.0977152","95439.6583666","96206.406035","96956.3075589","97722.8617815","98489.5179869","99256.2668242","100011.16258"
"Blocked","Male","tile","18","M_jolt.wav","None","739.45369984","429","93139.7493621","100006.070749","100772.739227","101539.334652","87739.9881595","88506.9345335","89256.645826","90023.2137827","93906.4254381","94673.0977152","95439.6583666","96206.406035","96956.3075589","97722.8617815","98489.5179869","99256.2668242","100777.960509"
"Blocked","Male","tile","18","M_reek.wav","None","736.478375569","429","93139.7493621","100006.070749","100772.739227","101539.334652","102305.98063","88506.9345335","89256.645826","90023.2137827","93906.4254381","94673.0977152","95439.6583666","96206.406035","96956.3075589","97722.8617815","98489.5179869","99256.2668242","101544.26372"
"Blocked","Male","tile","18","M_tile.wav","None","733.094243733","429","93139.7493621","100006.070749","100772.739227","101539.334652","102305.98063","103072.628653","89256.645826","90023.2137827","93906.4254381","94673.0977152","95439.6583666","96206.406035","96956.3075589","97722.8617815","98489.5179869","99256.2668242","102310.947685"
"Blocked","Male","tile","18","M_dime.wav","space","639.024086624","429","93139.7493621","100006.070749","100772.739227","101539.334652","102305.98063","103072.628653","103822.606445","90023.2137827","93906.4254381","94673.0977152","95439.6583666","96206.406035","96956.3075589","97722.8617815","98489.5179869","99256.2668242","103077.621716"
"Blocked","Male","tile","18","M_jolt.wav","None","742.362691501","429","93139.7493621","100006.070749","100772.739227","101539.334652","102305.98063","103072.628653","103822.606445","104589.225247","93906.4254381","94673.0977152","95439.6583666","96206.406035","96956.3075589","97722.8617815","98489.5179869","99256.2668242","103827.813701"
"Blocked","Male","ball","4","M_priest.wav","None","738.624396137","429","107705.752644","100006.070749","100772.739227","101539.334652","102305.98063","103072.628653","103822.606445","104589.225247","93906.4254381","94673.0977152","95439.6583666","96206.406035","96956.3075589","97722.8617815","98489.5179869","99256.2668242","104594.635299"
"Blocked","Male","ball","4","M_greet.wav","None","741.267180729","429","107705.752644","100006.070749","100772.739227","101539.334652","102305.98063","103072.628653","103822.606445","104589.225247","108472.386934","94673.0977152","95439.6583666","96206.406035","96956.3075589","97722.8617815","98489.5179869","99256.2668242","107710.832495"
"Blocked","Male","ball","4","M_gnash.wav","None","738.042597808","429","107705.752644","100006.070749","100772.739227","101539.334652","102305.98063","103072.628653","103822.606445","104589.225247","108472.386934","109239.006028","95439.6583666","96206.406035","96956.3075589","97722.8617815","98489.5179869","99256.2668242","108477.364217"
"Blocked","Male","ball","4","M_ball.wav","None","734.524047471","429","107705.752644","100006.070749","100772.739227","101539.334652","102305.98063","103072.628653","103822.606445","104589.225247","108472.386934","109239.006028","110005.661941","96206.406035","96956.3075589","97722.8617815","98489.5179869","99256.2668242","109244.094937"
"Blocked","Male","ball","4","M_dime.wav","space","409.097444059","429","107705.752644","100006.070749","100772.739227","101539.334652","102305.98063","103072.628653","103822.606445","104589.225247","108472.386934","109239.006028","110005.661941","110772.480617","96956.3075589","97722.8617815","98489.5179869","99256.2668242","110011.044233"
"Blocked","Male","ball","4","M_ball.wav","None","726.689494433","429","107705.752644","100006.070749","100772.739227","101539.334652","102305.98063","103072.628653","103822.606445","104589.225247","108472.386934","109239.006028","110005.661941","110772.480617","111522.217333","97722.8617815","98489.5179869","99256.2668242","110778.019244"
"Blocked","Male","ball","4","M_lash.wav","space","492.831402964","429","107705.752644","100006.070749","100772.739227","101539.334652","102305.98063","103072.628653","103822.606445","104589.225247","108472.386934","109239.006028","110005.661941","110772.480617","111522.217333","112288.870031","98489.5179869","99256.2668242","111527.165979"
"Blocked","Male","ball","4","M_cling.wav","None","736.732017434","429","107705.752644","100006.070749","100772.739227","101539.334652","102305.98063","103072.628653","103822.606445","104589.225247","108472.386934","109239.006028","110005.661941","110772.480617","111522.217333","112288.870031","113055.490002","99256.2668242","112294.080501"
"Blocked","Male","ball","4","M_greet.wav","None","733.58224133","429","107705.752644","100006.070749","100772.739227","101539.334652","102305.98063","103072.628653","103822.606445","104589.225247","108472.386934","109239.006028","110005.661941","110772.480617","111522.217333","112288.870031","113055.490002","113822.160234","113060.433389"
"Blocked","Male","ball","4","M_romp.wav","None","729.93891556","429","107705.752644","114572.085135","100772.739227","101539.334652","102305.98063","103072.628653","103822.606445","104589.225247","108472.386934","109239.006028","110005.661941","110772.480617","111522.217333","112288.870031","113055.490002","113822.160234","113827.242714"
"Blocked","Male","ball","4","M_gnash.wav","None","743.327290344","429","107705.752644","114572.085135","115338.741048","101539.334652","102305.98063","103072.628653","103822.606445","104589.225247","108472.386934","109239.006028","110005.661941","110772.480617","111522.217333","112288.870031","113055.490002","113822.160234","114577.054236"
"Blocked","Male","ball","4","M_ball.wav","None","739.928255585","429","107705.752644","114572.085135","115338.741048","116105.323908","102305.98063","103072.628653","103822.606445","104589.225247","108472.386934","109239.006028","110005.661941","110772.480617","111522.217333","112288.870031","113055.490002","113822.160234","115343.753689"
"Blocked","Male","ball","4","M_cling.wav","space","453.126515862","429","107705.752644","114572.085135","115338.741048","116105.323908","116871.977483","103072.628653","103822.606445","104589.225247","108472.386934","109239.006028","110005.661941","110772.480617","111522.217333","112288.870031","113055.490002","113822.160234","116110.478273"
"Blocked","Male","ball","4","M_ball.wav","None","732.629623268","429","107705.752644","114572.085135","115338.741048","116105.323908","116871.977483","117638.613526","103822.606445","104589.225247","108472.386934","109239.006028","110005.661941","110772.480617","111522.217333","112288.870031","113055.490002","113822.160234","116877.11227"
"Blocked","Male","ball","4","M_greet.wav","space","455.800859578","429","107705.752644","114572.085135","115338.741048","116105.323908","116871.977483","117638.613526","118388.624045","104589.225247","108472.386934","109239.006028","110005.661941","110772.480617","111522.217333","112288.870031","113055.490002","113822.160234","117643.709156"
"Blocked","Male","ball","4","M_greet.wav","None","742.519026062","429","107705.752644","114572.085135","115338.741048","116105.323908","116871.977483","117638.613526","118388.624045","119155.20486","108472.386934","109239.006028","110005.661941","110772.480617","111522.217333","112288.870031","113055.490002","113822.160234","118393.632596"
"Blocked","Male","done","21","M_cling.wav","None","739.259377446","429","122255.045369","114572.085135","115338.741048","116105.323908","116871.977483","117638.613526","118388.624045","119155.20486","108472.386934","109239.006028","110005.661941","110772.480617","111522.217333","112288.870031","113055.490002","113822.160234","119160.223345"
"Blocked","Male","done","21","M_priest.wav","space","0.0201627772185","429","122255.045369","114572.085135","115338.741048","116105.323908","116871.977483","117638.613526","118388.624045","119155.20486","123021.718815","109239.006028","110005.661941","110772.480617","111522.217333","112288.870031","113055.490002","113822.160234","122260.339705"
"Blocked","Male","done","21","M_lash.wav","None","736.491232994","429","122255.045369","114572.085135","115338.741048","116105.323908","116871.977483","117638.613526","118388.624045","119155.20486","123021.718815","123788.317747","110005.661941","110772.480617","111522.217333","112288.870031","113055.490002","113822.160234","123027.075977"
"Blocked","Male","done","21","M_done.wav","None","733.593637677","429","122255.045369","114572.085135","115338.741048","116105.323908","116871.977483","117638.613526","118388.624045","119155.20486","123021.718815","123788.317747","124554.964017","110772.480617","111522.217333","112288.870031","113055.490002","113822.160234","123793.218762"
"Blocked","Male","done","21","M_cad.wav","space","482.614428132","429","122255.045369","114572.085135","115338.741048","116105.323908","116871.977483","117638.613526","118388.624045","119155.20486","123021.718815","123788.317747","124554.964017","125304.938594","111522.217333","112288.870031","113055.490002","113822.160234","124560.218027"
"Blocked","Male","done","21","M_greet.wav","None","742.894229006","429","122255.045369","114572.085135","115338.741048","116105.323908","116871.977483","117638.613526","118388.624045","119155.20486","123021.718815","123788.317747","124554.964017","125304.938594","126071.550675","112288.870031","113055.490002","113822.160234","125310.070751"
"Blocked","Male","done","21","M_cad.wav","None","739.432368209","429","122255.045369","114572.085135","115338.741048","116105.323908","116871.977483","117638.613526","118388.624045","119155.20486","123021.718815","123788.317747","124554.964017","125304.938594","126071.550675","126838.133243","113055.490002","113822.160234","126076.740398"
"Blocked","Male","done","21","M_done.wav","None","736.150219102","429","122255.045369","114572.085135","115338.741048","116105.323908","116871.977483","117638.613526","118388.624045","119155.20486","123021.718815","123788.317747","124554.964017","125304.938594","126071.550675","126838.133243","127604.786526","113822.160234","126843.277088"
"Blocked","Male","done","21","M_greet.wav","space","520.64405163","429","122255.045369","114572.085135","115338.741048","116105.323908","116871.977483","117638.613526","118388.624045","119155.20486","123021.718815","123788.317747","124554.964017","125304.938594","126071.550675","126838.133243","127604.786526","128371.439809","127609.937384"
"Blocked","Male","done","21","M_done.wav","None","728.938958808","429","122255.045369","129121.400068","115338.741048","116105.323908","116871.977483","117638.613526","118388.624045","119155.20486","123021.718815","123788.317747","124554.964017","125304.938594","126071.550675","126838.133243","127604.786526","128371.439809","128376.529887"
"Blocked","Male","done","21","M_romp.wav","space","572.016172297","429","122255.045369","129121.400068","129888.051306","116105.323908","116871.977483","117638.613526","118388.624045","119155.20486","123021.718815","123788.317747","124554.964017","125304.938594","126071.550675","126838.133243","127604.786526","128371.439809","129126.516737"
"Blocked","Male","done","21","M_done.wav","None","738.353805857","429","122255.045369","129121.400068","129888.051306","130654.693485","116871.977483","117638.613526","118388.624045","119155.20486","123021.718815","123788.317747","124554.964017","125304.938594","126071.550675","126838.133243","127604.786526","128371.439809","129893.110409"
"Blocked","Male","done","21","M_cad.wav","space","617.962168792","429","122255.045369","129121.400068","129888.051306","130654.693485","131421.291832","117638.613526","118388.624045","119155.20486","123021.718815","123788.317747","124554.964017","125304.938594","126071.550675","126838.133243","127604.786526","128371.439809","130656.368749"
"Blocked","Male","done","21","M_romp.wav","None","731.13465578","429","122255.045369","129121.400068","129888.051306","130654.693485","131421.291832","132188.198173","118388.624045","119155.20486","123021.718815","123788.317747","124554.964017","125304.938594","126071.550675","126838.133243","127604.786526","128371.439809","131426.452918"
"Blocked","Male","done","21","M_romp.wav","None","727.671918339","429","122255.045369","129121.400068","129888.051306","130654.693485","131421.291832","132188.198173","132937.912095","119155.20486","123021.718815","123788.317747","124554.964017","125304.938594","126071.550675","126838.133243","127604.786526","128371.439809","132193.448092"
"Blocked","Male","done","21","M_bluff.wav","None","741.398092661","429","122255.045369","129121.400068","129888.051306","130654.693485","131421.291832","132188.198173","132937.912095","133704.544339","123021.718815","123788.317747","124554.964017","125304.938594","126071.550675","126838.133243","127604.786526","128371.439809","132942.98727"
"Blocked","Male","ball","1","M_dime.wav","None","737.917237948","429","136821.050112","129121.400068","129888.051306","130654.693485","131421.291832","132188.198173","132937.912095","133704.544339","123021.718815","123788.317747","124554.964017","125304.938594","126071.550675","126838.133243","127604.786526","128371.439809","133709.900916"
"Blocked","Male","ball","1","M_romp.wav","None","740.575217671","429","136821.050112","129121.400068","129888.051306","130654.693485","131421.291832","132188.198173","132937.912095","133704.544339","137587.645537","123788.317747","124554.964017","125304.938594","126071.550675","126838.133243","127604.786526","128371.439809","136826.236913"
"Blocked","Male","ball","1","M_dime.wav","None","737.419305067","429","136821.050112","129121.400068","129888.051306","130654.693485","131421.291832","132188.198173","132937.912095","133704.544339","137587.645537","138354.256157","124554.964017","125304.938594","126071.550675","126838.133243","127604.786526","128371.439809","137592.737953"
"Blocked","Male","ball","1","M_romp.wav","None","734.707850159","429","136821.050112","129121.400068","129888.051306","130654.693485","131421.291832","132188.198173","132937.912095","133704.544339","137587.645537","138354.256157","139120.935448","125304.938594","126071.550675","126838.133243","127604.786526","128371.439809","138359.044378"
"Blocked","Male","ball","1","M_ball.wav","None","731.245989362","429","136821.050112","129121.400068","129888.051306","130654.693485","131421.291832","132188.198173","132937.912095","133704.544339","137587.645537","138354.256157","139120.935448","139887.964226","126071.550675","126838.133243","127604.786526","128371.439809","139125.97731"
"Blocked","Male","ball","1","M_romp.wav","space","483.838513119","429","136821.050112","129121.400068","129888.051306","130654.693485","131421.291832","132188.198173","132937.912095","133704.544339","137587.645537","138354.256157","139120.935448","139887.964226","140637.510125","126838.133243","127604.786526","128371.439809","139893.868412"
"Blocked","Male","ball","1","M_jaw.wav","None","740.711973885","429","136821.050112","129121.400068","129888.051306","130654.693485","131421.291832","132188.198173","132937.912095","133704.544339","137587.645537","138354.256157","139120.935448","139887.964226","140637.510125","141404.123083","127604.786526","128371.439809","140642.689913"
"Blocked","Male","ball","1","M_knife.wav","None","737.636127953","429","136821.050112","129121.400068","129888.051306","130654.693485","131421.291832","132188.198173","132937.912095","133704.544339","137587.645537","138354.256157","139120.935448","139887.964226","140637.510125","141404.123083","142170.820783","128371.439809","141409.143906"
"Blocked","Male","ball","1","M_cad.wav","None","734.325049649","429","136821.050112","129121.400068","129888.051306","130654.693485","131421.291832","132188.198173","132937.912095","133704.544339","137587.645537","138354.256157","139120.935448","139887.964226","140637.510125","141404.123083","142170.820783","142937.374129","142175.760078"
"Blocked","Male","ball","1","M_romp.wav","None","731.157156268","429","136821.050112","143704.303262","129888.051306","130654.693485","131421.291832","132188.198173","132937.912095","133704.544339","137587.645537","138354.256157","139120.935448","139887.964226","140637.510125","141404.123083","142170.820783","142937.374129","142942.43031"
"Blocked","Male","ball","1","M_ball.wav","None","727.076093728","429","136821.050112","143704.303262","144454.007541","130654.693485","131421.291832","132188.198173","132937.912095","133704.544339","137587.645537","138354.256157","139120.935448","139887.964226","140637.510125","141404.123083","142170.820783","142937.374129","143709.843642"
"Blocked","Male","ball","1","M_knife.wav","space","438.230900592","429","136821.050112","143704.303262","144454.007541","145220.625759","131421.291832","132188.198173","132937.912095","133704.544339","137587.645537","138354.256157","139120.935448","139887.964226","140637.510125","141404.123083","142170.820783","142937.374129","144459.141452"
"Blocked","Male","ball","1","M_ball.wav","None","737.2752435","429","136821.050112","143704.303262","144454.007541","145220.625759","145987.262386","132188.198173","132937.912095","133704.544339","137587.645537","138354.256157","139120.935448","139887.964226","140637.510125","141404.123083","142170.820783","142937.374129","145225.735708"
"Blocked","Male","ball","1","M_dime.wav","space","452.242568121","429","136821.050112","143704.303262","144454.007541","145220.625759","145987.262386","146753.897552","132937.912095","133704.544339","137587.645537","138354.256157","139120.935448","139887.964226","140637.510125","141404.123083","142170.820783","142937.374129","145989.03408"
"Blocked","Male","ball","1","M_ball.wav","None","730.426620943","429","136821.050112","143704.303262","144454.007541","145220.625759","145987.262386","146753.897552","147503.820408","133704.544339","137587.645537","138354.256157","139120.935448","139887.964226","140637.510125","141404.123083","142170.820783","142937.374129","146758.838309"
"Blocked","Male","ball","1","M_dime.wav","space","420.233432334","429","136821.050112","143704.303262","144454.007541","145220.625759","145987.262386","146753.897552","147503.820408","148270.493269","137587.645537","138354.256157","139120.935448","139887.964226","140637.510125","141404.123083","142170.820783","142937.374129","147508.863147"
"Blocked","Male","tile","13","M_cad.wav","None","740.286217893","429","151404.203734","143704.303262","144454.007541","145220.625759","145987.262386","146753.897552","147503.820408","148270.493269","137587.645537","138354.256157","139120.935448","139887.964226","140637.510125","141404.123083","142170.820783","142937.374129","148275.378213"
"Blocked","Male","tile","13","M_tile.wav","None","723.096721707","429","151404.203734","143704.303262","144454.007541","145220.625759","145987.262386","146753.897552","147503.820408","148270.493269","152153.623105","138354.256157","139120.935448","139887.964226","140637.510125","141404.123083","142170.820783","142937.374129","151409.716938"
"Blocked","Male","tile","13","M_depth.wav","space","489.910722739","429","151404.203734","143704.303262","144454.007541","145220.625759","145987.262386","146753.897552","147503.820408","148270.493269","152153.623105","152920.248335","139120.935448","139887.964226","140637.510125","141404.123083","142170.820783","142937.374129","152158.835328"
"Blocked","Male","tile","13","M_tile.wav","None","733.362788516","429","151404.203734","143704.303262","144454.007541","145220.625759","145987.262386","146753.897552","147503.820408","148270.493269","152153.623105","152920.248335","153686.916521","139887.964226","140637.510125","141404.123083","142170.820783","142937.374129","152925.878717"
"Blocked","Male","tile","13","M_cad.wav","space","556.466289592","429","151404.203734","143704.303262","144454.007541","145220.625759","145987.262386","146753.897552","147503.820408","148270.493269","152153.623105","152920.248335","153686.916521","154436.929087","140637.510125","141404.123083","142170.820783","142937.374129","153692.143356"
"Blocked","Male","tile","13","M_cling.wav","None","743.503787678","429","151404.203734","143704.303262","144454.007541","145220.625759","145987.262386","146753.897552","147503.820408","148270.493269","152153.623105","152920.248335","153686.916521","154436.929087","155203.569805","141404.123083","142170.820783","142937.374129","154442.077607"
"Blocked","Male","tile","13","M_park.wav","None","740.415960969","429","151404.203734","143704.303262","144454.007541","145220.625759","145987.262386","146753.897552","147503.820408","148270.493269","152153.623105","152920.248335","153686.916521","154436.929087","155203.569805","155970.127534","142170.820783","142937.374129","155208.687059"
"Blocked","Male","tile","13","M_tile.wav","None","737.356186815","429","151404.203734","143704.303262","144454.007541","145220.625759","145987.262386","146753.897552","147503.820408","148270.493269","152153.623105","152920.248335","153686.916521","154436.929087","155203.569805","155970.127534","156736.759778","142937.374129","155975.276347"
"Blocked","Male","tile","13","M_cling.wav","space","498.544773633","429","151404.203734","143704.303262","144454.007541","145220.625759","145987.262386","146753.897552","147503.820408","148270.493269","152153.623105","152920.248335","153686.916521","154436.929087","155203.569805","155970.127534","156736.759778","157503.422996","156741.801056"
"Blocked","Male","tile","13","M_cad.wav","None","730.119503893","429","151404.203734","158270.345409","144454.007541","145220.625759","145987.262386","146753.897552","147503.820408","148270.493269","152153.623105","152920.248335","153686.916521","154436.929087","155203.569805","155970.127534","156736.759778","157503.422996","157508.948766"
"Blocked","Male","tile","13","M_romp.wav","None","726.582251849","429","151404.203734","158270.345409","159019.96553","145220.625759","145987.262386","146753.897552","147503.820408","148270.493269","152153.623105","152920.248335","153686.916521","154436.929087","155203.569805","155970.127534","156736.759778","157503.422996","158275.941309"
"Blocked","Male","tile","13","M_gnash.wav","None","740.988408448","429","151404.203734","158270.345409","159019.96553","159786.654172","145987.262386","146753.897552","147503.820408","148270.493269","152153.623105","152920.248335","153686.916521","154436.929087","155203.569805","155970.127534","156736.759778","157503.422996","159025.080739"
"Blocked","Male","tile","13","M_tile.wav","None","737.816131859","429","151404.203734","158270.345409","159019.96553","159786.654172","160553.258655","146753.897552","147503.820408","148270.493269","152153.623105","152920.248335","153686.916521","154436.929087","155203.569805","155970.127534","156736.759778","157503.422996","159791.778439"
"Blocked","Male","tile","13","M_greet.wav","space","465.569285723","429","151404.203734","158270.345409","159019.96553","159786.654172","160553.258655","161319.8383","147503.820408","148270.493269","152153.623105","152920.248335","153686.916521","154436.929087","155203.569805","155970.127534","156736.759778","157503.422996","160558.386721"
"Blocked","Male","tile","13","M_gnash.wav","None","731.548723197","429","151404.203734","158270.345409","159019.96553","159786.654172","160553.258655","161319.8383","162086.553533","148270.493269","152153.623105","152920.248335","153686.916521","154436.929087","155203.569805","155970.127534","156736.759778","157503.422996","161325.225268"
"Blocked","Male","tile","13","M_knife.wav","None","729.323804815","429","151404.203734","158270.345409","159019.96553","159786.654172","160553.258655","161319.8383","162086.553533","162836.4872","152153.623105","152920.248335","153686.916521","154436.929087","155203.569805","155970.127534","156736.759778","157503.422996","162091.713742"
"Blocked","Male","cave","8","M_cling.wav","None","743.697233436","429","165953.057261","158270.345409","159019.96553","159786.654172","160553.258655","161319.8383","162086.553533","162836.4872","152153.623105","152920.248335","153686.916521","154436.929087","155203.569805","155970.127534","156736.759778","157503.422996","162841.561207"
"Blocked","Male","cave","8","M_cling.wav","None","741.221595326","429","165953.057261","158270.345409","159019.96553","159786.654172","160553.258655","161319.8383","162086.553533","162836.4872","166719.629309","152920.248335","153686.916521","154436.929087","155203.569805","155970.127534","156736.759778","157503.422996","165958.321791"
"Blocked","Male","cave","8","M_cave.wav","None","738.34562386","429","165953.057261","158270.345409","159019.96553","159786.654172","160553.258655","161319.8383","162086.553533","162836.4872","166719.629309","167486.216552","153686.916521","154436.929087","155203.569805","155970.127534","156736.759778","157503.422996","166724.781336"
"Blocked","Male","cave","8","M_jolt.wav","space","444.053267129","429","165953.057261","158270.345409","159019.96553","159786.654172","160553.258655","161319.8383","162086.553533","162836.4872","166719.629309","167486.216552","168252.860192","154436.929087","155203.569805","155970.127534","156736.759778","157503.422996","167491.44397"
"Blocked","Male","cave","8","M_dime.wav","None","731.368427081","429","165953.057261","158270.345409","159019.96553","159786.654172","160553.258655","161319.8383","162086.553533","162836.4872","166719.629309","167486.216552","168252.860192","169019.625101","155203.569805","155970.127534","156736.759778","157503.422996","168257.888028"
"Blocked","Male","cave","8","M_depth.wav","None","727.407464554","429","165953.057261","158270.345409","159019.96553","159786.654172","160553.258655","161319.8383","162086.553533","162836.4872","166719.629309","167486.216552","168252.860192","169019.625101","169769.492436","155970.127534","156736.759778","157503.422996","169025.475812"
"Blocked","Male","cave","8","M_cave.wav","None","741.89281118","429","165953.057261","158270.345409","159019.96553","159786.654172","160553.258655","161319.8383","162086.553533","162836.4872","166719.629309","167486.216552","168252.860192","169019.625101","169769.492436","170536.106562","156736.759778","157503.422996","169774.548032"
"Blocked","Male","cave","8","M_bluff.wav","space","545.880540525","429","165953.057261","158270.345409","159019.96553","159786.654172","160553.258655","161319.8383","162086.553533","162836.4872","166719.629309","167486.216552","168252.860192","169019.625101","169769.492436","170536.106562","171302.718643","157503.422996","170541.387748"
"Blocked","Male","cave","8","M_reek.wav","None","735.231790091","429","165953.057261","158270.345409","159019.96553","159786.654172","160553.258655","161319.8383","162086.553533","162836.4872","166719.629309","167486.216552","168252.860192","169019.625101","169769.492436","170536.106562","171302.718643","172069.335108","171307.851385"
"Blocked","Male","cave","8","M_reek.wav","None","732.246530541","429","165953.057261","172835.998911","159019.96553","159786.654172","160553.258655","161319.8383","162086.553533","162836.4872","166719.629309","167486.216552","168252.860192","169019.625101","169769.492436","170536.106562","171302.718643","172069.335108","172074.323787"
"Blocked","Male","cave","8","M_cave.wav","None","728.869704057","429","165953.057261","172835.998911","173585.921182","159786.654172","160553.258655","161319.8383","162086.553533","162836.4872","166719.629309","167486.216552","168252.860192","169019.625101","169769.492436","170536.106562","171302.718643","172069.335108","172841.166718"
"Blocked","Male","cave","8","M_cling.wav","space","535.946428969","429","165953.057261","172835.998911","173585.921182","174352.579433","160553.258655","161319.8383","162086.553533","162836.4872","166719.629309","167486.216552","168252.860192","169019.625101","169769.492436","170536.106562","171302.718643","172069.335108","173591.092495"
"Blocked","Male","cave","8","M_park.wav","None","739.014794217","429","165953.057261","172835.998911","173585.921182","174352.579433","175119.228333","161319.8383","162086.553533","162836.4872","166719.629309","167486.216552","168252.860192","169019.625101","169769.492436","170536.106562","171302.718643","172069.335108","174357.703115"
"Blocked","Male","cave","8","M_cave.wav","None","735.928136361","429","165953.057261","172835.998911","173585.921182","174352.579433","175119.228333","175885.89798","162086.553533","162836.4872","166719.629309","167486.216552","168252.860192","169019.625101","169769.492436","170536.106562","171302.718643","172069.335108","175124.531142"
"Blocked","Male","cave","8","M_priest.wav","space","611.805509288","429","165953.057261","172835.998911","173585.921182","174352.579433","175119.228333","175885.89798","176652.463014","162836.4872","166719.629309","167486.216552","168252.860192","169019.625101","169769.492436","170536.106562","171302.718643","172069.335108","175891.006759"
"Blocked","Male","cave","8","M_jolt.wav","None","729.451794607","429","165953.057261","172835.998911","173585.921182","174352.579433","175119.228333","175885.89798","176652.463014","177402.450449","166719.629309","167486.216552","168252.860192","169019.625101","169769.492436","170536.106562","171302.718643","172069.335108","176657.522994"
"Blocked","Male","tile","17","M_bluff.wav","None","743.18322878","429","180518.949794","172835.998911","173585.921182","174352.579433","175119.228333","175885.89798","176652.463014","177402.450449","166719.629309","167486.216552","168252.860192","169019.625101","169769.492436","170536.106562","171302.718643","172069.335108","177407.531176"
"Blocked","Male","tile","17","M_tile.wav","None","741.515562739","429","180518.949794","172835.998911","173585.921182","174352.579433","175119.228333","175885.89798","176652.463014","177402.450449","181285.59022","167486.216552","168252.860192","169019.625101","169769.492436","170536.106562","171302.718643","172069.335108","180524.094224"
"Blocked","Male","tile","17","M_romp.wav","space","443.545398972","429","180518.949794","172835.998911","173585.921182","174352.579433","175119.228333","175885.89798","176652.463014","177402.450449","181285.59022","182052.190905","168252.860192","169019.625101","169769.492436","170536.106562","171302.718643","172069.335108","181290.924297"
"Blocked","Male","tile","17","M_priest.wav","None","735.1616587","429","180518.949794","172835.998911","173585.921182","174352.579433","175119.228333","175885.89798","176652.463014","177402.450449","181285.59022","182052.190905","182818.853247","169019.625101","169769.492436","170536.106562","171302.718643","172069.335108","182057.26871"
"Blocked","Male","tile","17","M_tile.wav","None","732.229582121","429","180518.949794","172835.998911","173585.921182","174352.579433","175119.228333","175885.89798","176652.463014","177402.450449","181285.59022","182052.190905","182818.853247","183585.532829","169769.492436","170536.106562","171302.718643","172069.335108","182823.924038"
"Blocked","Male","tile","17","M_reek.wav","space","487.482423319","429","180518.949794","172835.998911","173585.921182","174352.579433","175119.228333","175885.89798","176652.463014","177402.450449","181285.59022","182052.190905","182818.853247","183585.532829","184335.434353","170536.106562","171302.718643","172069.335108","183590.757033"
"Blocked","Male","tile","17","M_priest.wav","None","742.60932023","429","180518.949794","172835.998911","173585.921182","174352.579433","175119.228333","175885.89798","176652.463014","177402.450449","181285.59022","182052.190905","182818.853247","183585.532829","184335.434353","185102.083545","171302.718643","172069.335108","184340.286569"
"Blocked","Male","tile","17","M_priest.wav","space","506.782289955","429","180518.949794","172835.998911","173585.921182","174352.579433","175119.228333","175885.89798","176652.463014","177402.450449","181285.59022","182052.190905","182818.853247","183585.532829","184335.434353","185102.083545","185868.714328","172069.335108","185107.326743"
"Blocked","Male","tile","17","M_tile.wav","None","735.576602765","429","180518.949794","172835.998911","173585.921182","174352.579433","175119.228333","175885.89798","176652.463014","177402.450449","181285.59022","182052.190905","182818.853247","183585.532829","184335.434353","185102.083545","185868.714328","186635.351247","185873.901421"
"Blocked","Male","tile","17","M_jolt.wav","space","509.584331245","429","180518.949794","187401.972971","173585.921182","174352.579433","175119.228333","175885.89798","176652.463014","177402.450449","181285.59022","182052.190905","182818.853247","183585.532829","184335.434353","185102.083545","185868.714328","186635.351247","186640.383467"
"Blocked","Male","tile","17","M_priest.wav","None","728.749604048","429","180518.949794","187401.972971","188151.970634","174352.579433","175119.228333","175885.89798","176652.463014","177402.450449","181285.59022","182052.190905","182818.853247","183585.532829","184335.434353","185102.083545","185868.714328","186635.351247","187407.408446"
"Blocked","Male","tile","17","M_gnash.wav","None","742.72474481","429","180518.949794","187401.972971","188151.970634","188918.547941","175119.228333","175885.89798","176652.463014","177402.450449","181285.59022","182052.190905","182818.853247","183585.532829","184335.434353","185102.083545","185868.714328","186635.351247","188157.082628"
"Blocked","Male","tile","17","M_cling.wav","None","739.651236592","429","180518.949794","187401.972971","188151.970634","188918.547941","189685.180477","175885.89798","176652.463014","177402.450449","181285.59022","182052.190905","182818.853247","183585.532829","184335.434353","185102.083545","185868.714328","186635.351247","188923.868576"
"Blocked","Male","tile","17","M_cad.wav","space","579.76890538","429","180518.949794","187401.972971","188151.970634","188918.547941","189685.180477","190451.820319","176652.463014","177402.450449","181285.59022","182052.190905","182818.853247","183585.532829","184335.434353","185102.083545","185868.714328","186635.351247","189689.928665"
"Blocked","Male","tile","17","M_tile.wav","None","733.624320164","429","180518.949794","187401.972971","188151.970634","188918.547941","189685.180477","190451.820319","191218.442335","177402.450449","181285.59022","182052.190905","182818.853247","183585.532829","184335.434353","185102.083545","185868.714328","186635.351247","190456.860428"
"Blocked","Male","tile","17","M_cad.wav","space","550.033195526","429","180518.949794","187401.972971","188151.970634","188918.547941","189685.180477","190451.820319","191218.442335","191968.453147","181285.59022","182052.190905","182818.853247","183585.532829","184335.434353","185102.083545","185868.714328","186635.351247","191223.569816"
"Blocked","Male","tile","14","M_cling.wav","None","743.299237791","429","195068.278461","187401.972971","188151.970634","188918.547941","189685.180477","190451.820319","191218.442335","191968.453147","181285.59022","182052.190905","182818.853247","183585.532829","184335.434353","185102.083545","185868.714328","186635.351247","191973.713294"
"Blocked","Male","tile","14","M_tile.wav","None","740.845515742","429","195068.278461","187401.972971","188151.970634","188918.547941","189685.180477","190451.820319","191218.442335","191968.453147","195834.913627","182052.190905","182818.853247","183585.532829","184335.434353","185102.083545","185868.714328","186635.351247","195073.35013"
"Blocked","Male","tile","14","M_park.wav","space","517.055954329","429","195068.278461","187401.972971","188151.970634","188918.547941","189685.180477","190451.820319","191218.442335","191968.453147","195834.913627","196601.565157","182818.853247","183585.532829","184335.434353","185102.083545","185868.714328","186635.351247","195840.187216"
"Blocked","Male","tile","14","M_tile.wav","None","734.220436989","429","195068.278461","187401.972971","188151.970634","188918.547941","189685.180477","190451.820319","191218.442335","191968.453147","195834.913627","196601.565157","197368.247078","183585.532829","184335.434353","185102.083545","185868.714328","186635.351247","196606.635365"
"Blocked","Male","tile","14","M_lash.wav","space","455.787125513","429","195068.278461","187401.972971","188151.970634","188918.547941","189685.180477","190451.820319","191218.442335","191968.453147","195834.913627","196601.565157","197368.247078","198135.045883","184335.434353","185102.083545","185868.714328","186635.351247","197373.328097"
"Blocked","Male","tile","14","M_gnash.wav","None","727.056807595","429","195068.278461","187401.972971","188151.970634","188918.547941","189685.180477","190451.820319","191218.442335","191968.453147","195834.913627","196601.565157","197368.247078","198135.045883","198884.756007","185102.083545","185868.714328","186635.351247","198140.377915"
"Blocked","Male","tile","14","M_lash.wav","None","741.165490213","429","195068.278461","187401.972971","188151.970634","188918.547941","189685.180477","190451.820319","191218.442335","191968.453147","195834.913627","196601.565157","197368.247078","198135.045883","198884.756007","199651.395556","185868.714328","186635.351247","198890.132747"
"Blocked","Male","tile","14","M_cling.wav","None","738.904045062","429","195068.278461","187401.972971","188151.970634","188918.547941","189685.180477","190451.820319","191218.442335","191968.453147","195834.913627","196601.565157","197368.247078","198135.045883","198884.756007","199651.395556","200418.037735","186635.351247","199656.190206"
"Blocked","Male","tile","14","M_depth.wav","None","735.843686478","429","195068.278461","187401.972971","188151.970634","188918.547941","189685.180477","190451.820319","191218.442335","191968.453147","195834.913627","196601.565157","197368.247078","198135.045883","198884.756007","199651.395556","200418.037735","201184.619134","200423.110865"
"Blocked","Male","tile","14","M_tile.wav","None","732.830082161","429","195068.278461","201951.290242","188151.970634","188918.547941","189685.180477","190451.820319","191218.442335","191968.453147","195834.913627","196601.565157","197368.247078","198135.045883","198884.756007","199651.395556","200418.037735","201184.619134","201189.78285"
"Blocked","Male","tile","14","M_jolt.wav","space","480.376067895","429","195068.278461","201951.290242","202701.250793","188918.547941","189685.180477","190451.820319","191218.442335","191968.453147","195834.913627","196601.565157","197368.247078","198135.045883","198884.756007","199651.395556","200418.037735","201184.619134","201956.425613"
"Blocked","Male","tile","14","M_jaw.wav","None","743.122156029","429","195068.278461","201951.290242","202701.250793","203467.956091","189685.180477","190451.820319","191218.442335","191968.453147","195834.913627","196601.565157","197368.247078","198135.045883","198884.756007","199651.395556","200418.037735","201184.619134","202706.272201"
"Blocked","Male","tile","14","M_jolt.wav","None","740.415376542","429","195068.278461","201951.290242","202701.250793","203467.956091","204234.47291","190451.820319","191218.442335","191968.453147","195834.913627","196601.565157","197368.247078","198135.045883","198884.756007","199651.395556","200418.037735","201184.619134","203472.945647"
"Blocked","Male","tile","14","M_priest.wav","None","737.994382478","429","195068.278461","201951.290242","202701.250793","203467.956091","204234.47291","205001.168272","191218.442335","191968.453147","195834.913627","196601.565157","197368.247078","198135.045883","198884.756007","199651.395556","200418.037735","201184.619134","204239.49987"
"Blocked","Male","tile","14","M_tile.wav","None","734.765416339","429","195068.278461","201951.290242","202701.250793","203467.956091","204234.47291","205001.168272","205767.807821","191968.453147","195834.913627","196601.565157","197368.247078","198135.045883","198884.756007","199651.395556","200418.037735","201184.619134","205006.587968"
"Blocked","Male","tile","14","M_depth.wav","space","430.816551474","429","195068.278461","201951.290242","202701.250793","203467.956091","204234.47291","205001.168272","205767.807821","206534.749812","195834.913627","196601.565157","197368.247078","198135.045883","198884.756007","199651.395556","200418.037735","201184.619134","205773.674312"
"Blocked","Male","done","20","M_dime.wav","None","727.612891085","429","209634.22447","201951.290242","202701.250793","203467.956091","204234.47291","205001.168272","205767.807821","206534.749812","195834.913627","196601.565157","197368.247078","198135.045883","198884.756007","199651.395556","200418.037735","201184.619134","206540.428702"
"Blocked","Male","done","20","M_depth.wav","None","740.892854432","429","209634.22447","201951.290242","202701.250793","203467.956091","204234.47291","205001.168272","205767.807821","206534.749812","210400.878045","196601.565157","197368.247078","198135.045883","198884.756007","199651.395556","200418.037735","201184.619134","209639.335587"
"Blocked","Male","done","20","M_done.wav","None","738.001395614","429","209634.22447","201951.290242","202701.250793","203467.956091","204234.47291","205001.168272","205767.807821","206534.749812","210400.878045","211167.51701","197368.247078","198135.045883","198884.756007","199651.395556","200418.037735","201184.619134","210406.006111"
"Blocked","Male","done","20","M_priest.wav","space","527.39215253","429","209634.22447","201951.290242","202701.250793","203467.956091","204234.47291","205001.168272","205767.807821","206534.749812","210400.878045","211167.51701","211934.127045","198135.045883","198884.756007","199651.395556","200418.037735","201184.619134","211172.605919"
"Blocked","Male","done","20","M_done.wav","None","731.407291561","429","209634.22447","201951.290242","202701.250793","203467.956091","204234.47291","205001.168272","205767.807821","206534.749812","210400.878045","211167.51701","211934.127045","212701.123096","198884.756007","199651.395556","200418.037735","201184.619134","211939.208065"
"Blocked","Male","done","20","M_gnash.wav","space","593.296666302","429","209634.22447","201951.290242","202701.250793","203467.956091","204234.47291","205001.168272","205767.807821","206534.749812","210400.878045","211167.51701","211934.127045","212701.123096","213450.742049","199651.395556","200418.037735","201184.619134","212706.605033"
"Blocked","Male","done","20","M_lash.wav","None","741.312181708","429","209634.22447","201951.290242","202701.250793","203467.956091","204234.47291","205001.168272","205767.807821","206534.749812","210400.878045","211167.51701","211934.127045","212701.123096","213450.742049","214217.352669","200418.037735","201184.619134","213456.019436"
"Blocked","Male","done","20","M_done.wav","None","738.776931914","429","209634.22447","201951.290242","202701.250793","203467.956091","204234.47291","205001.168272","205767.807821","206534.749812","210400.878045","211167.51701","211934.127045","212701.123096","213450.742049","214217.352669","214984.019394","201184.619134","214222.410895"
"Blocked","Male","done","20","M_gnash.wav","space","494.482705017","429","209634.22447","201951.290242","202701.250793","203467.956091","204234.47291","205001.168272","205767.807821","206534.749812","210400.878045","211167.51701","211934.127045","212701.123096","213450.742049","214217.352669","214984.019394","215750.600792","214989.136648"
"Blocked","Male","done","20","M_jolt.wav","None","731.751812022","429","209634.22447","216517.241803","202701.250793","203467.956091","204234.47291","205001.168272","205767.807821","206534.749812","210400.878045","211167.51701","211934.127045","212701.123096","213450.742049","214217.352669","214984.019394","215750.600792","215755.808048"
"Blocked","Male","done","20","M_bluff.wav","None","729.423742046","429","209634.22447","216517.241803","217267.204107","203467.956091","204234.47291","205001.168272","205767.807821","206534.749812","210400.878045","211167.51701","211934.127045","212701.123096","213450.742049","214217.352669","214984.019394","215750.600792","216522.426266"
"Blocked","Male","done","20","M_jaw.wav","None","743.518398383","429","209634.22447","216517.241803","217267.204107","218033.84015","204234.47291","205001.168272","205767.807821","206534.749812","210400.878045","211167.51701","211934.127045","212701.123096","213450.742049","214217.352669","214984.019394","215750.600792","217272.203598"
"Blocked","Male","done","20","M_gnash.wav","None","740.499534211","429","209634.22447","216517.241803","217267.204107","218033.84015","218800.492848","205001.168272","205767.807821","206534.749812","210400.878045","211167.51701","211934.127045","212701.123096","213450.742049","214217.352669","214984.019394","215750.600792","218038.930227"
"Blocked","Male","done","20","M_jolt.wav","None","737.701291706","429","209634.22447","216517.241803","217267.204107","218033.84015","218800.492848","219567.078922","205767.807821","206534.749812","210400.878045","211167.51701","211934.127045","212701.123096","213450.742049","214217.352669","214984.019394","215750.600792","218805.58205"
"Blocked","Male","done","20","M_done.wav","None","735.109060159","429","209634.22447","216517.241803","217267.204107","218033.84015","218800.492848","219567.078922","220333.750615","206534.749812","210400.878045","211167.51701","211934.127045","212701.123096","213450.742049","214217.352669","214984.019394","215750.600792","219572.302542"
"Blocked","Male","done","20","M_park.wav","space","496.574373756","429","209634.22447","216517.241803","217267.204107","218033.84015","218800.492848","219567.078922","220333.750615","221100.708093","210400.878045","211167.51701","211934.127045","212701.123096","213450.742049","214217.352669","214984.019394","215750.600792","220338.76764"
"Blocked","Male","cave","10","M_romp.wav","None","727.717211528","429","224200.327689","216517.241803","217267.204107","218033.84015","218800.492848","219567.078922","220333.750615","221100.708093","210400.878045","211167.51701","211934.127045","212701.123096","213450.742049","214217.352669","214984.019394","215750.600792","221106.407145"
"Blocked","Male","cave","10","M_romp.wav","None","741.347247404","429","224200.327689","216517.241803","217267.204107","218033.84015","218800.492848","219567.078922","220333.750615","221100.708093","224966.851521","211167.51701","211934.127045","212701.123096","213450.742049","214217.352669","214984.019394","215750.600792","224205.454294"
"Blocked","Male","cave","10","M_dime.wav","None","738.693358675","429","224200.327689","216517.241803","217267.204107","218033.84015","218800.492848","219567.078922","220333.750615","221100.708093","224966.851521","225733.48172","211934.127045","212701.123096","213450.742049","214217.352669","214984.019394","215750.600792","224971.985431"
"Blocked","Male","cave","10","M_cave.wav","None","735.915571157","429","224200.327689","216517.241803","217267.204107","218033.84015","218800.492848","219567.078922","220333.750615","221100.708093","224966.851521","225733.48172","226500.11484","212701.123096","213450.742049","214217.352669","214984.019394","215750.600792","225738.630533"
"Blocked","Male","cave","10","M_knife.wav","space","561.766761693","429","224200.327689","216517.241803","217267.204107","218033.84015","218800.492848","219567.078922","220333.750615","221100.708093","224966.851521","225733.48172","226500.11484","227266.739486","213450.742049","214217.352669","214984.019394","215750.600792","226505.027836"
"Blocked","Male","cave","10","M_cling.wav","None","729.62566201","429","224200.327689","216517.241803","217267.204107","218033.84015","218800.492848","219567.078922","220333.750615","221100.708093","224966.851521","225733.48172","226500.11484","227266.739486","228016.740655","214217.352669","214984.019394","215750.600792","227271.794499"
"Blocked","Male","cave","10","M_gnash.wav","None","746.651810499","429","224200.327689","216517.241803","217267.204107","218033.84015","218800.492848","219567.078922","220333.750615","221100.708093","224966.851521","225733.48172","226500.11484","227266.739486","228016.740655","228783.312119","214984.019394","215750.600792","228018.408321"
"Blocked","Male","cave","10","M_cave.wav","None","740.466514017","429","224200.327689","216517.241803","217267.204107","218033.84015","218800.492848","219567.078922","220333.750615","221100.708093","224966.851521","225733.48172","226500.11484","227266.739486","228016.740655","228783.312119","229549.979428","215750.600792","228788.52931"
"Blocked","Male","cave","10","M_gnash.wav","space","559.549733094","429","224200.327689","216517.241803","217267.204107","218033.84015","218800.492848","219567.078922","220333.750615","221100.708093","224966.851521","225733.48172","226500.11484","227266.739486","228016.740655","228783.312119","229549.979428","230316.601152","229555.009894"
"Blocked","Male","cave","10","M_cling.wav","None","733.73594596","429","224200.327689","231083.207973","217267.204107","218033.84015","218800.492848","219567.078922","220333.750615","221100.708093","224966.851521","225733.48172","226500.11484","227266.739486","228016.740655","228783.312119","229549.979428","230316.601152","230321.647106"
"Blocked","Male","cave","10","M_depth.wav","None","730.51486961","429","224200.327689","231083.207973","231850.147919","218033.84015","218800.492848","219567.078922","220333.750615","221100.708093","224966.851521","225733.48172","226500.11484","227266.739486","228016.740655","228783.312119","229549.979428","230316.601152","231088.566012"
"Blocked","Male","cave","10","M_cave.wav","None","726.782126312","429","224200.327689","231083.207973","231850.147919","232599.81684","218800.492848","219567.078922","220333.750615","221100.708093","224966.851521","225733.48172","226500.11484","227266.739486","228016.740655","228783.312119","229549.979428","230316.601152","231856.084541"
"Blocked","Male","cave","10","M_lash.wav","space","549.348537821","429","224200.327689","231083.207973","231850.147919","232599.81684","233366.444993","219567.078922","220333.750615","221100.708093","224966.851521","225733.48172","226500.11484","227266.739486","228016.740655","228783.312119","229549.979428","230316.601152","232604.990199"
"Blocked","Male","cave","10","M_greet.wav","None","738.316110233","429","224200.327689","231083.207973","231850.147919","232599.81684","233366.444993","234133.075776","220333.750615","221100.708093","224966.851521","225733.48172","226500.11484","227266.739486","228016.740655","228783.312119","229549.979428","230316.601152","233371.383996"
"Blocked","Male","cave","10","M_cave.wav","None","735.379066013","429","224200.327689","231083.207973","231850.147919","232599.81684","233366.444993","234133.075776","234899.715617","221100.708093","224966.851521","225733.48172","226500.11484","227266.739486","228016.740655","228783.312119","229549.979428","230316.601152","234138.259947"
"Blocked","Male","cave","10","M_greet.wav","space","561.453508148","429","224200.327689","231083.207973","231850.147919","232599.81684","233366.444993","234133.075776","234899.715617","235666.366271","224966.851521","225733.48172","226500.11484","227266.739486","228016.740655","228783.312119","229549.979428","230316.601152","234904.77472"
"Blocked","Male","cave","12","M_romp.wav","None","729.006752485","429","238766.210579","231083.207973","231850.147919","232599.81684","233366.444993","234133.075776","234899.715617","235666.366271","224966.851521","225733.48172","226500.11484","227266.739486","228016.740655","228783.312119","229549.979428","230316.601152","235671.48557"
"Blocked","Male","cave","12","M_depth.wav","None","741.27156394","429","238766.210579","231083.207973","231850.147919","232599.81684","233366.444993","234133.075776","234899.715617","235666.366271","239532.831134","225733.48172","226500.11484","227266.739486","228016.740655","228783.312119","229549.979428","230316.601152","238771.364944"
"Blocked","Male","cave","12","M_reek.wav","None","738.866057221","429","238766.210579","231083.207973","231850.147919","232599.81684","233366.444993","234133.075776","234899.715617","235666.366271","239532.831134","240299.454319","226500.11484","227266.739486","228016.740655","228783.312119","229549.979428","230316.601152","239538.148262"
"Blocked","Male","cave","12","M_jaw.wav","None","735.86764804","429","238766.210579","231083.207973","231850.147919","232599.81684","233366.444993","234133.075776","234899.715617","235666.366271","239532.831134","240299.454319","241066.089485","227266.739486","228016.740655","228783.312119","229549.979428","230316.601152","240305.205093"
"Blocked","Male","cave","12","M_gnash.wav","None","734.029913376","429","238766.210579","231083.207973","231850.147919","232599.81684","233366.444993","234133.075776","234899.715617","235666.366271","239532.831134","240299.454319","241066.089485","241832.745106","228016.740655","228783.312119","229549.979428","230316.601152","241071.149757"
"Blocked","Male","cave","12","M_knife.wav","None","731.551353125","429","238766.210579","231083.207973","231850.147919","232599.81684","233366.444993","234133.075776","234899.715617","235666.366271","239532.831134","240299.454319","241066.089485","241832.745106","242599.572841","228783.312119","229549.979428","230316.601152","241837.688493"
"Blocked","Male","cave","12","M_cave.wav","None","727.582500815","429","238766.210579","231083.207973","231850.147919","232599.81684","233366.444993","234133.075776","234899.715617","235666.366271","239532.831134","240299.454319","241066.089485","241832.745106","242599.572841","243349.327674","229549.979428","230316.601152","242605.671058"
"Blocked","Male","cave","12","M_dime.wav","space","494.953169764","429","238766.210579","231083.207973","231850.147919","232599.81684","233366.444993","234133.075776","234899.715617","235666.366271","239532.831134","240299.454319","241066.089485","241832.745106","242599.572841","243349.327674","244116.006087","230316.601152","243354.534345"
"Blocked","Male","cave","12","M_cave.wav","None","738.856121945","429","238766.210579","231083.207973","231850.147919","232599.81684","233366.444993","234133.075776","234899.715617","235666.366271","239532.831134","240299.454319","241066.089485","241832.745106","242599.572841","243349.327674","244116.006087","244882.630441","244121.069574"
"Blocked","Male","cave","12","M_reek.wav","space","481.732233671","429","238766.210579","245649.198106","231850.147919","232599.81684","233366.444993","234133.075776","234899.715617","235666.366271","239532.831134","240299.454319","241066.089485","241832.745106","242599.572841","243349.327674","244116.006087","244882.630441","244887.577627"
"Blocked","Male","cave","12","M_cad.wav","None","732.291531516","429","238766.210579","245649.198106","246415.844668","232599.81684","233366.444993","234133.075776","234899.715617","235666.366271","239532.831134","240299.454319","241066.089485","241832.745106","242599.572841","243349.327674","244116.006087","244882.630441","245654.511728"
"Blocked","Male","cave","12","M_cave.wav","None","729.510821857","429","238766.210579","245649.198106","246415.844668","247182.841595","233366.444993","234133.075776","234899.715617","235666.366271","239532.831134","240299.454319","241066.089485","241832.745106","242599.572841","243349.327674","244116.006087","244882.630441","246421.374529"
"Blocked","Male","cave","12","M_park.wav","space","580.716555804","429","238766.210579","245649.198106","246415.844668","247182.841595","247932.461425","234133.075776","234899.715617","235666.366271","239532.831134","240299.454319","241066.089485","241832.745106","242599.572841","243349.327674","244116.006087","244882.630441","247188.426976"
"Blocked","Male","cave","12","M_cling.wav","None","740.098324211","429","238766.210579","245649.198106","246415.844668","247182.841595","247932.461425","248699.090747","234899.715617","235666.366271","239532.831134","240299.454319","241066.089485","241832.745106","242599.572841","243349.327674","244116.006087","244882.630441","247937.469391"
"Blocked","Male","cave","12","M_cave.wav","None","737.510183662","429","238766.210579","245649.198106","246415.844668","247182.841595","247932.461425","248699.090747","249465.760686","235666.366271","239532.831134","240299.454319","241066.089485","241832.745106","242599.572841","243349.327674","244116.006087","244882.630441","248704.24891"
"Blocked","Male","cave","12","M_romp.wav","space","657.975926231","429","238766.210579","245649.198106","246415.844668","247182.841595","247932.461425","248699.090747","249465.760686","250232.295915","239532.831134","240299.454319","241066.089485","241832.745106","242599.572841","243349.327674","244116.006087","244882.630441","249470.957714"
"Blocked","Male","ball","3","M_cad.wav","None","731.050498107","429","253315.524928","245649.198106","246415.844668","247182.841595","247932.461425","248699.090747","249465.760686","250232.295915","239532.831134","240299.454319","241066.089485","241832.745106","242599.572841","243349.327674","244116.006087","244882.630441","250237.429533"
"Blocked","Male","ball","3","M_cad.wav","None","740.765449067","429","253315.524928","245649.198106","246415.844668","247182.841595","247932.461425","248699.090747","249465.760686","250232.295915","254082.14636","240299.454319","241066.089485","241832.745106","242599.572841","243349.327674","244116.006087","244882.630441","253320.683384"
"Blocked","Male","ball","3","M_ball.wav","None","738.29740853","429","253315.524928","245649.198106","246415.844668","247182.841595","247932.461425","248699.090747","249465.760686","250232.295915","254082.14636","254848.816007","241066.089485","241832.745106","242599.572841","243349.327674","244116.006087","244882.630441","254087.205755"
"Blocked","Male","ball","3","M_cad.wav","space","410.393413727","429","253315.524928","245649.198106","246415.844668","247182.841595","247932.461425","248699.090747","249465.760686","250232.295915","254082.14636","254848.816007","255615.405295","241832.745106","242599.572841","243349.327674","244116.006087","244882.630441","254854.150376"
"Blocked","Male","ball","3","M_ball.wav","None","731.682557271","429","253315.524928","245649.198106","246415.844668","247182.841595","247932.461425","248699.090747","249465.760686","250232.295915","254082.14636","254848.816007","255615.405295","256382.007149","242599.572841","243349.327674","244116.006087","244882.630441","255620.592973"
"Blocked","Male","ball","3","M_reek.wav","space","541.407911056","429","253315.524928","245649.198106","246415.844668","247182.841595","247932.461425","248699.090747","249465.760686","250232.295915","254082.14636","254848.816007","255615.405295","256382.007149","257132.009486","243349.327674","244116.006087","244882.630441","256387.020374"
"Blocked","Male","ball","3","M_romp.wav","None","742.102620927","429","253315.524928","245649.198106","246415.844668","247182.841595","247932.461425","248699.090747","249465.760686","250232.295915","254082.14636","254848.816007","255615.405295","256382.007149","257132.009486","257898.68264","244116.006087","244882.630441","257137.070635"
"Blocked","Male","ball","3","M_lash.wav","None","739.394380373","429","253315.524928","245649.198106","246415.844668","247182.841595","247932.461425","248699.090747","249465.760686","250232.295915","254082.14636","254848.816007","255615.405295","256382.007149","257132.009486","257898.68264","258665.272805","244882.630441","257903.775933"
"Blocked","Male","ball","3","M_cling.wav","None","736.81354518","429","253315.524928","245649.198106","246415.844668","247182.841595","247932.461425","248699.090747","249465.760686","250232.295915","254082.14636","254848.816007","255615.405295","256382.007149","257132.009486","257898.68264","258665.272805","259431.913816","258670.622662"
"Blocked","Male","ball","3","M_ball.wav","None","734.472033353","429","253315.524928","260198.520345","246415.844668","247182.841595","247932.461425","248699.090747","249465.760686","250232.295915","254082.14636","254848.816007","255615.405295","256382.007149","257132.009486","257898.68264","258665.272805","259431.913816","259437.080454"
"Blocked","Male","ball","3","M_reek.wav","space","444.56434964","429","253315.524928","260198.520345","260965.473732","247182.841595","247932.461425","248699.090747","249465.760686","250232.295915","254082.14636","254848.816007","255615.405295","256382.007149","257132.009486","257898.68264","258665.272805","259431.913816","260203.543505"
"Blocked","Male","ball","3","M_depth.wav","None","727.236811501","429","253315.524928","260198.520345","260965.473732","261715.143238","247932.461425","248699.090747","249465.760686","250232.295915","254082.14636","254848.816007","255615.405295","256382.007149","257132.009486","257898.68264","258665.272805","259431.913816","260971.247883"
"Blocked","Male","ball","3","M_depth.wav","None","742.256617774","429","253315.524928","260198.520345","260965.473732","261715.143238","262481.755611","248699.090747","249465.760686","250232.295915","254082.14636","254848.816007","255615.405295","256382.007149","257132.009486","257898.68264","258665.272805","259431.913816","261720.342604"
"Blocked","Male","ball","3","M_gnash.wav","None","740.013582112","429","253315.524928","260198.520345","260965.473732","261715.143238","262481.755611","263248.423505","249465.760686","250232.295915","254082.14636","254848.816007","255615.405295","256382.007149","257132.009486","257898.68264","258665.272805","259431.913816","262486.768836"
"Blocked","Male","ball","3","M_ball.wav","None","737.746000468","429","253315.524928","260198.520345","260965.473732","261715.143238","262481.755611","263248.423505","264015.015131","250232.295915","254082.14636","254848.816007","255615.405295","256382.007149","257132.009486","257898.68264","258665.272805","259431.913816","263253.589558"
"Blocked","Male","ball","3","M_park.wav","None","735.384325868","429","253315.524928","260198.520345","260965.473732","261715.143238","262481.755611","263248.423505","264015.015131","264781.611725","254082.14636","254848.816007","255615.405295","256382.007149","257132.009486","257898.68264","258665.272805","259431.913816","264019.97342"
"Blocked","Male","cave","7","M_jaw.wav","None","732.687481664","429","267881.514183","260198.520345","260965.473732","261715.143238","262481.755611","263248.423505","264015.015131","264781.611725","254082.14636","254848.816007","255615.405295","256382.007149","257132.009486","257898.68264","258665.272805","259431.913816","264786.880345"
"Blocked","Male","cave","7","M_jaw.wav","None","740.87707487","429","267881.514183","260198.520345","260965.473732","261715.143238","262481.755611","263248.423505","264015.015131","264781.611725","268648.131232","254848.816007","255615.405295","256382.007149","257132.009486","257898.68264","258665.272805","259431.913816","267886.479486"
"Blocked","Male","cave","7","M_jolt.wav","None","738.117989054","429","267881.514183","260198.520345","260965.473732","261715.143238","262481.755611","263248.423505","264015.015131","264781.611725","268648.131232","269414.752664","255615.405295","256382.007149","257132.009486","257898.68264","258665.272805","259431.913816","268653.269525"
"Blocked","Male","cave","7","M_knife.wav","None","735.6972872","429","267881.514183","260198.520345","260965.473732","261715.143238","262481.755611","263248.423505","264015.015131","264781.611725","268648.131232","269414.752664","270181.383739","256382.007149","257132.009486","257898.68264","258665.272805","259431.913816","269420.138755"
"Blocked","Male","cave","7","M_park.wav","None","733.458634753","429","267881.514183","260198.520345","260965.473732","261715.143238","262481.755611","263248.423505","264015.015131","264781.611725","268648.131232","269414.752664","270181.383739","270947.982963","257132.009486","257898.68264","258665.272805","259431.913816","270186.477908"
"Blocked","Male","cave","7","M_cave.wav","None","730.928352601","429","267881.514183","260198.520345","260965.473732","261715.143238","262481.755611","263248.423505","264015.015131","264781.611725","268648.131232","269414.752664","270181.383739","270947.982963","271715.006481","257898.68264","258665.272805","259431.913816","270953.403827"
"Blocked","Male","cave","7","M_jolt.wav","space","638.539303385","429","267881.514183","260198.520345","260965.473732","261715.143238","262481.755611","263248.423505","264015.015131","264781.611725","268648.131232","269414.752664","270181.383739","270947.982963","271715.006481","272464.618713","258665.272805","259431.913816","271720.620499"
"Blocked","Male","cave","7","M_cave.wav","None","741.737645476","429","267881.514183","260198.520345","260965.473732","261715.143238","262481.755611","263248.423505","264015.015131","264781.611725","268648.131232","269414.752664","270181.383739","270947.982963","271715.006481","272464.618713","273231.238684","259431.913816","272469.665251"
"Blocked","Male","cave","7","M_greet.wav","space","690.771410238","429","267881.514183","260198.520345","260965.473732","261715.143238","262481.755611","263248.423505","264015.015131","264781.611725","268648.131232","269414.752664","270181.383739","270947.982963","271715.006481","272464.618713","273231.238684","273997.883785","273236.254832"
"Blocked","Male","cave","7","M_cave.wav","None","735.613421744","429","267881.514183","274764.505802","260965.473732","261715.143238","262481.755611","263248.423505","264015.015131","264781.611725","268648.131232","269414.752664","270181.383739","270947.982963","271715.006481","272464.618713","273231.238684","273997.883785","274002.856393"
"Blocked","Male","cave","7","M_bluff.wav","space","509.183413458","429","267881.514183","274764.505802","275531.14389","261715.143238","262481.755611","263248.423505","264015.015131","264781.611725","268648.131232","269414.752664","270181.383739","270947.982963","271715.006481","272464.618713","273231.238684","273997.883785","274769.665427"
"Blocked","Male","cave","7","M_lash.wav","None","729.309486324","429","267881.514183","274764.505802","275531.14389","276281.150026","262481.755611","263248.423505","264015.015131","264781.611725","268648.131232","269414.752664","270181.383739","270947.982963","271715.006481","272464.618713","273231.238684","273997.883785","275536.083477"
"Blocked","Male","cave","7","M_cave.wav","None","746.669635562","429","267881.514183","274764.505802","275531.14389","276281.150026","277047.69782","263248.423505","264015.015131","264781.611725","268648.131232","269414.752664","270181.383739","270947.982963","271715.006481","272464.618713","273231.238684","273997.883785","276282.813893"
"Blocked","Male","cave","7","M_dime.wav","space","481.883016164","429","267881.514183","274764.505802","275531.14389","276281.150026","277047.69782","277814.345259","264015.015131","264781.611725","268648.131232","269414.752664","270181.383739","270947.982963","271715.006481","272464.618713","273231.238684","273997.883785","277052.913258"
"Blocked","Male","cave","7","M_jaw.wav","None","737.500832809","429","267881.514183","274764.505802","275531.14389","276281.150026","277047.69782","277814.345259","278580.993575","264781.611725","268648.131232","269414.752664","270181.383739","270947.982963","271715.006481","272464.618713","273231.238684","273997.883785","277819.295074"
"Blocked","Male","cave","7","M_depth.wav","None","734.571970588","429","267881.514183","274764.505802","275531.14389","276281.150026","277047.69782","277814.345259","278580.993575","279347.650949","268648.131232","269414.752664","270181.383739","270947.982963","271715.006481","272464.618713","273231.238684","273997.883785","278586.303398"
"Blocked","Male","done","19","M_priest.wav","None","732.479132988","429","282447.456685","274764.505802","275531.14389","276281.150026","277047.69782","277814.345259","278580.993575","279347.650949","268648.131232","269414.752664","270181.383739","270947.982963","271715.006481","272464.618713","273231.238684","273997.883785","279352.688721"
"Blocked","Male","done","19","M_priest.wav","None","740.593919374","429","282447.456685","274764.505802","275531.14389","276281.150026","277047.69782","277814.345259","278580.993575","279347.650949","283214.08776","269414.752664","270181.383739","270947.982963","271715.006481","272464.618713","273231.238684","273997.883785","282452.66511"
"Blocked","Male","done","19","M_jaw.wav","None","738.304713879","429","282447.456685","274764.505802","275531.14389","276281.150026","277047.69782","277814.345259","278580.993575","279347.650949","283214.08776","283980.741628","270181.383739","270947.982963","271715.006481","272464.618713","273231.238684","273997.883785","283219.14511"
"Blocked","Male","done","19","M_cad.wav","None","735.117242151","429","282447.456685","274764.505802","275531.14389","276281.150026","277047.69782","277814.345259","278580.993575","279347.650949","283214.08776","283980.741628","284747.359553","270947.982963","271715.006481","272464.618713","273231.238684","273997.883785","283986.462888"
"Blocked","Male","done","19","M_done.wav","None","733.597436461","429","282447.456685","274764.505802","275531.14389","276281.150026","277047.69782","277814.345259","278580.993575","279347.650949","283214.08776","283980.741628","284747.359553","285514.000856","271715.006481","272464.618713","273231.238684","273997.883785","284752.316674"
"Blocked","Male","done","19","M_knife.wav","space","487.165370989","429","282447.456685","274764.505802","275531.14389","276281.150026","277047.69782","277814.345259","278580.993575","279347.650949","283214.08776","283980.741628","284747.359553","285514.000856","286280.937587","272464.618713","273231.238684","273997.883785","285518.979892"
"Blocked","Male","done","19","M_knife.wav","None","726.14597615","429","282447.456685","274764.505802","275531.14389","276281.150026","277047.69782","277814.345259","278580.993575","279347.650949","283214.08776","283980.741628","284747.359553","285514.000856","286280.937587","287030.574657","273231.238684","273997.883785","286286.771349"
"Blocked","Male","done","19","M_done.wav","None","741.600012625","429","282447.456685","274764.505802","275531.14389","276281.150026","277047.69782","277814.345259","278580.993575","279347.650949","283214.08776","283980.741628","284747.359553","285514.000856","286280.937587","287030.574657","287797.235537","273997.883785","287035.699216"
"Blocked","Male","done","19","M_reek.wav","space","595.711523874","429","282447.456685","274764.505802","275531.14389","276281.150026","277047.69782","277814.345259","278580.993575","279347.650949","283214.08776","283980.741628","284747.359553","285514.000856","286280.937587","287030.574657","287797.235537","288563.863983","287802.221879"
"Blocked","Male","done","19","M_done.wav","None","735.469360177","429","282447.456685","289330.502363","275531.14389","276281.150026","277047.69782","277814.345259","278580.993575","279347.650949","283214.08776","283980.741628","284747.359553","285514.000856","286280.937587","287030.574657","287797.235537","288563.863983","288568.899709"
"Blocked","Male","done","19","M_romp.wav","None","733.130478286","429","282447.456685","289330.502363","290097.162659","276281.150026","277047.69782","277814.345259","278580.993575","279347.650949","283214.08776","283980.741628","284747.359553","285514.000856","286280.937587","287030.574657","287797.235537","288563.863983","289335.441658"
"Blocked","Male","done","19","M_done.wav","space","0.0204549869522","429","282447.456685","289330.502363","290097.162659","290847.056586","277047.69782","277814.345259","278580.993575","279347.650949","283214.08776","283980.741628","284747.359553","285514.000856","286280.937587","287030.574657","287797.235537","288563.863983","290102.343324"
"Blocked","Male","done","19","M_priest.wav","space","553.738470691","429","282447.456685","289330.502363","290097.162659","290847.056586","291613.71396","277814.345259","278580.993575","279347.650949","283214.08776","283980.741628","284747.359553","285514.000856","286280.937587","287030.574657","287797.235537","288563.863983","290851.951464"
"Blocked","Male","done","19","M_cad.wav","None","739.768414456","429","282447.456685","289330.502363","290097.162659","290847.056586","291613.71396","292380.341236","278580.993575","279347.650949","283214.08776","283980.741628","284747.359553","285514.000856","286280.937587","287030.574657","287797.235537","288563.863983","291618.544844"
"Blocked","Male","done","19","M_priest.wav","None","737.0642649","429","282447.456685","289330.502363","290097.162659","290847.056586","291613.71396","292380.341236","293146.932862","279347.650949","283214.08776","283980.741628","284747.359553","285514.000856","286280.937587","287030.574657","287797.235537","288563.863983","292385.649306"
"Blocked","Male","done","19","M_park.wav","None","735.386079152","429","282447.456685","289330.502363","290097.162659","290847.056586","291613.71396","292380.341236","293146.932862","293913.568905","283214.08776","283980.741628","284747.359553","285514.000856","286280.937587","287030.574657","287797.235537","288563.863983","293151.880047"
"Blocked","Male","tile","15","M_lash.wav","None","732.879174131","429","297013.552307","289330.502363","290097.162659","290847.056586","291613.71396","292380.341236","293146.932862","293913.568905","283214.08776","283980.741628","284747.359553","285514.000856","286280.937587","287030.574657","287797.235537","288563.863983","293918.644956"
"Blocked","Male","tile","15","M_tile.wav","None","741.302538638","429","297013.552307","289330.502363","290097.162659","290847.056586","291613.71396","292380.341236","293146.932862","293913.568905","297780.128446","283980.741628","284747.359553","285514.000856","286280.937587","287030.574657","287797.235537","288563.863983","297018.718945"
"Blocked","Male","tile","15","M_park.wav","space","427.938826728","429","297013.552307","289330.502363","290097.162659","290847.056586","291613.71396","292380.341236","293146.932862","293913.568905","297780.128446","298546.715689","284747.359553","285514.000856","286280.937587","287030.574657","287797.235537","288563.863983","297785.22992"
"Blocked","Male","tile","15","M_greet.wav","None","735.576602765","429","297013.552307","289330.502363","290097.162659","290847.056586","291613.71396","292380.341236","293146.932862","293913.568905","297780.128446","298546.715689","299313.347932","285514.000856","286280.937587","287030.574657","287797.235537","288563.863983","298551.945153"
"Blocked","Male","tile","15","M_depth.wav","None","733.477920883","429","297013.552307","289330.502363","290097.162659","290847.056586","291613.71396","292380.341236","293146.932862","293913.568905","297780.128446","298546.715689","299313.347932","300080.03219","286280.937587","287030.574657","287797.235537","288563.863983","299318.414341"
"Blocked","Male","tile","15","M_lash.wav","None","731.190468676","429","297013.552307","289330.502363","290097.162659","290847.056586","291613.71396","292380.341236","293146.932862","293913.568905","297780.128446","298546.715689","299313.347932","300080.03219","300846.619725","287030.574657","287797.235537","288563.863983","300085.1661"
"Blocked","Male","tile","15","M_tile.wav","None","728.781455389","429","297013.552307","289330.502363","290097.162659","290847.056586","291613.71396","292380.341236","293146.932862","293913.568905","297780.128446","298546.715689","299313.347932","300080.03219","300846.619725","301596.564497","287797.235537","288563.863983","300851.886593"
"Blocked","Male","tile","15","M_knife.wav","space","483.131647143","429","297013.552307","289330.502363","290097.162659","290847.056586","291613.71396","292380.341236","293146.932862","293913.568905","297780.128446","298546.715689","299313.347932","300080.03219","300846.619725","301596.564497","302363.165766","288563.863983","301601.571878"
"Blocked","Male","tile","15","M_tile.wav","None","739.848481127","429","297013.552307","289330.502363","290097.162659","290847.056586","291613.71396","292380.341236","293146.932862","293913.568905","297780.128446","298546.715689","299313.347932","300080.03219","300846.619725","301596.564497","302363.165766","303129.820218","302368.35432"
"Blocked","Male","tile","15","M_greet.wav","space","677.794472944","429","297013.552307","303896.463274","290097.162659","290847.056586","291613.71396","292380.341236","293146.932862","293913.568905","297780.128446","298546.715689","299313.347932","300080.03219","300846.619725","301596.564497","302363.165766","303129.820218","303134.872016"
"Blocked","Male","tile","15","M_dime.wav","None","734.262808037","429","297013.552307","303896.463274","304663.115388","290847.056586","291613.71396","292380.341236","293146.932862","293913.568905","297780.128446","298546.715689","299313.347932","300080.03219","300846.619725","301596.564497","302363.165766","303129.820218","303901.448739"
"Blocked","Male","tile","15","M_park.wav","None","731.933276995","429","297013.552307","303896.463274","304663.115388","305429.686559","291613.71396","292380.341236","293146.932862","293913.568905","297780.128446","298546.715689","299313.347932","300080.03219","300846.619725","301596.564497","302363.165766","303129.820218","304668.256896"
"Blocked","Male","tile","15","M_tile.wav","None","730.088529192","429","297013.552307","303896.463274","304663.115388","305429.686559","306196.826671","292380.341236","293146.932862","293913.568905","297780.128446","298546.715689","299313.347932","300080.03219","300846.619725","301596.564497","302363.165766","303129.820218","305434.550464"
"Blocked","Male","tile","15","M_reek.wav","space","561.996149787","429","297013.552307","303896.463274","304663.115388","305429.686559","306196.826671","306946.303316","293146.932862","293913.568905","297780.128446","298546.715689","299313.347932","300080.03219","300846.619725","301596.564497","302363.165766","303129.820218","306202.42491"
"Blocked","Male","tile","15","M_depth.wav","None","740.41099333","429","297013.552307","303896.463274","304663.115388","305429.686559","306196.826671","306946.303316","307712.929715","293913.568905","297780.128446","298546.715689","299313.347932","300080.03219","300846.619725","301596.564497","302363.165766","303129.820218","306951.445116"
"Blocked","Male","tile","15","M_gnash.wav","None","738.555433607","429","297013.552307","303896.463274","304663.115388","305429.686559","306196.826671","306946.303316","307712.929715","308479.587382","297780.128446","298546.715689","299313.347932","300080.03219","300846.619725","301596.564497","302363.165766","303129.820218","307717.828101"
"Blocked","Male","ball","5","M_depth.wav","None","736.326424223","429","311596.110688","303896.463274","304663.115388","305429.686559","306196.826671","306946.303316","307712.929715","308479.587382","297780.128446","298546.715689","299313.347932","300080.03219","300846.619725","301596.564497","302363.165766","303129.820218","308484.457715"
"Blocked","Male","ball","5","M_priest.wav","None","740.969414532","429","311596.110688","303896.463274","304663.115388","305429.686559","306196.826671","306946.303316","307712.929715","308479.587382","312362.725692","298546.715689","299313.347932","300080.03219","300846.619725","301596.564497","302363.165766","303129.820218","311601.111933"
"Blocked","Male","ball","5","M_knife.wav","None","738.806153327","429","311596.110688","303896.463274","304663.115388","305429.686559","306196.826671","306946.303316","307712.929715","308479.587382","312362.725692","313129.321116","299313.347932","300080.03219","300846.619725","301596.564497","302363.165766","303129.820218","312367.717001"
"Blocked","Male","ball","5","M_ball.wav","None","737.059005049","429","311596.110688","303896.463274","304663.115388","305429.686559","306196.826671","306946.303316","307712.929715","308479.587382","312362.725692","313129.321116","313896.042778","300080.03219","300846.619725","301596.564497","302363.165766","303129.820218","313134.2008"
"Blocked","Male","ball","5","M_romp.wav","space","434.006360916","429","311596.110688","303896.463274","304663.115388","305429.686559","306196.826671","306946.303316","307712.929715","308479.587382","312362.725692","313129.321116","313896.042778","314662.667424","300846.619725","301596.564497","302363.165766","303129.820218","313897.84194"
"Blocked","Male","ball","5","M_ball.wav","None","730.56250051","429","311596.110688","303896.463274","304663.115388","305429.686559","306196.826671","306946.303316","307712.929715","308479.587382","312362.725692","313129.321116","313896.042778","314662.667424","315429.365416","301596.564497","302363.165766","303129.820218","314667.938383"
"Blocked","Male","ball","5","M_dime.wav","space","440.750663034","429","311596.110688","303896.463274","304663.115388","305429.686559","306196.826671","306946.303316","307712.929715","308479.587382","312362.725692","313129.321116","313896.042778","314662.667424","315429.365416","316179.236842","302363.165766","303129.820218","315434.973882"
"Blocked","Male","ball","5","M_greet.wav","None","741.25081674","429","311596.110688","303896.463274","304663.115388","305429.686559","306196.826671","306946.303316","307712.929715","308479.587382","312362.725692","313129.321116","313896.042778","314662.667424","315429.365416","316179.236842","316945.887495","303129.820218","316184.51043"
"Blocked","Male","ball","5","M_ball.wav","None","739.402562369","429","311596.110688","303896.463274","304663.115388","305429.686559","306196.826671","306946.303316","307712.929715","308479.587382","312362.725692","313129.321116","313896.042778","314662.667424","315429.365416","316179.236842","316945.887495","317712.476784","316950.795816"
"Blocked","Male","ball","5","M_lash.wav","space","470.046298407","429","311596.110688","318479.069871","304663.115388","305429.686559","306196.826671","306946.303316","307712.929715","308479.587382","312362.725692","313129.321116","313896.042778","314662.667424","315429.365416","316179.236842","316945.887495","317712.476784","317717.473353"
"Blocked","Male","ball","5","M_ball.wav","None","733.129601642","429","311596.110688","318479.069871","319245.724031","305429.686559","306196.826671","306946.303316","307712.929715","308479.587382","312362.725692","313129.321116","313896.042778","314662.667424","315429.365416","316179.236842","316945.887495","317712.476784","318484.20232"
"Blocked","Male","ball","5","M_knife.wav","space","552.450683023","429","311596.110688","318479.069871","319245.724031","319995.786564","306196.826671","306946.303316","307712.929715","308479.587382","312362.725692","313129.321116","313896.042778","314662.667424","315429.365416","316179.236842","316945.887495","317712.476784","319250.839531"
"Blocked","Male","ball","5","M_gnash.wav","None","743.521612742","429","311596.110688","318479.069871","319245.724031","319995.786564","320762.35306","306946.303316","307712.929715","308479.587382","312362.725692","313129.321116","313896.042778","314662.667424","315429.365416","316179.236842","316945.887495","317712.476784","320000.987392"
"Blocked","Male","ball","5","M_bluff.wav","None","741.438418208","429","311596.110688","318479.069871","319245.724031","319995.786564","320762.35306","321528.942933","307712.929715","308479.587382","312362.725692","313129.321116","313896.042778","314662.667424","315429.365416","316179.236842","316945.887495","317712.476784","320767.408949"
"Blocked","Male","ball","5","M_park.wav","None","739.10917938","429","311596.110688","318479.069871","319245.724031","319995.786564","320762.35306","321528.942933","322295.595924","308479.587382","312362.725692","313129.321116","313896.042778","314662.667424","315429.365416","316179.236842","316945.887495","317712.476784","321534.120967"
"Blocked","Male","ball","5","M_reek.wav","None","736.740199431","429","311596.110688","318479.069871","319245.724031","319995.786564","320762.35306","321528.942933","322295.595924","323062.220862","312362.725692","313129.321116","313896.042778","314662.667424","315429.365416","316179.236842","316945.887495","317712.476784","322300.982891"
"Blocked","Male","cave","11","M_knife.wav","None","735.19964654","429","326162.043255","318479.069871","319245.724031","319995.786564","320762.35306","321528.942933","322295.595924","323062.220862","312362.725692","313129.321116","313896.042778","314662.667424","315429.365416","316179.236842","316945.887495","317712.476784","323067.258634"
"Blocked","Male","cave","11","M_cave.wav","None","740.643595775","429","326162.043255","318479.069871","319245.724031","319995.786564","320762.35306","321528.942933","322295.595924","323062.220862","326928.683973","313129.321116","313896.042778","314662.667424","315429.365416","316179.236842","316945.887495","317712.476784","326167.085117"
"Blocked","Male","cave","11","M_reek.wav","space","517.188327332","429","326162.043255","318479.069871","319245.724031","319995.786564","320762.35306","321528.942933","322295.595924","323062.220862","326928.683973","327695.300437","313896.042778","314662.667424","315429.365416","316179.236842","316945.887495","317712.476784","326933.54437"
"Blocked","Male","cave","11","M_cave.wav","None","734.027283452","429","326162.043255","318479.069871","319245.724031","319995.786564","320762.35306","321528.942933","322295.595924","323062.220862","326928.683973","327695.300437","328461.961026","314662.667424","315429.365416","316179.236842","316945.887495","317712.476784","327701.153778"
"Blocked","Male","cave","11","M_greet.wav","space","527.384847181","429","326162.043255","318479.069871","319245.724031","319995.786564","320762.35306","321528.942933","322295.595924","323062.220862","326928.683973","327695.300437","328461.961026","329228.562587","315429.365416","316179.236842","316945.887495","317712.476784","328467.320525"
"Blocked","Male","cave","11","M_lash.wav","None","729.286693622","429","326162.043255","318479.069871","319245.724031","319995.786564","320762.35306","321528.942933","322295.595924","323062.220862","326928.683973","327695.300437","328461.961026","329228.562587","329978.571646","316179.236842","316945.887495","317712.476784","329233.420647"
"Blocked","Male","cave","11","M_reek.wav","None","743.590867489","429","326162.043255","318479.069871","319245.724031","319995.786564","320762.35306","321528.942933","322295.595924","323062.220862","326928.683973","327695.300437","328461.961026","329228.562587","329978.571646","330745.143693","316945.887495","317712.476784","329983.564708"
