"Condition","Talker","Target","Trial","current_stimulus","response_response","response_time_response","subject_nr","time_Audio1","time_Audio10","time_Audio11","time_Audio12","time_Audio13","time_Audio14","time_Audio15","time_Audio16","time_Audio2","time_Audio3","time_Audio4","time_Audio5","time_Audio6","time_Audio7","time_Audio8","time_Audio9","time_response"
"Mixed","Both","tile","36","M_lash.wav","NA","NA","123","339511.725561","NA","NA","NA","NA","NA","NA","NA","NA","NA","NA","NA","NA","NA","NA","NA","NA"
"Mixed","Both","tile","36","M_depth.wav","None","717.943454147","123","339511.725561","NA","NA","NA","NA","NA","NA","NA","340278.815213","NA","NA","NA","NA","NA","NA","NA","339526.915985"
"Mixed","Both","tile","36","M_tile.wav","None","723.460583366","123","339511.725561","NA","NA","NA","NA","NA","NA","NA","340278.815213","341044.924488","NA","NA","NA","NA","NA","NA","340288.819937"
"Mixed","Both","tile","36","F_jolt.wav","space","471.280938582","123","339511.725561","NA","NA","NA","NA","NA","NA","NA","340278.815213","341044.924488","341811.31047","NA","NA","NA","NA","NA","341054.428049"
"Mixed","Both","tile","36","F_tile.wav","None","726.380070686","123","339511.725561","NA","NA","NA","NA","NA","NA","NA","340278.815213","341044.924488","341811.31047","342578.678684","NA","NA","NA","NA","341820.568241"
"Mixed","Both","tile","36","F_done.wav","space","473.400295319","123","339511.725561","NA","NA","NA","NA","NA","NA","NA","340278.815213","341044.924488","341811.31047","342578.678684","343344.859687","NA","NA","NA","342588.275923"
"Mixed","Both","tile","36","F_knife.wav","None","726.35410045","123","339511.725561","NA","NA","NA","NA","NA","NA","NA","340278.815213","341044.924488","341811.31047","342578.678684","343344.859687","344111.565659","NA","NA","343354.309451"
"Mixed","Both","tile","36","F_cling.wav","None","727.056842661","123","339511.725561","NA","NA","NA","NA","NA","NA","NA","340278.815213","341044.924488","341811.31047","342578.678684","343344.859687","344111.565659","344878.523295","NA","344121.105701"
"Mixed","Both","tile","36","M_reek.wav","None","727.346534462","123","339511.725561","NA","NA","NA","NA","NA","NA","NA","340278.815213","341044.924488","341811.31047","342578.678684","343344.859687","344111.565659","344878.523295","345645.081794","344887.829606"
"Mixed","Both","tile","36","F_tile.wav","None","727.68971257","123","339511.725561","346411.324321","NA","NA","NA","NA","NA","NA","340278.815213","341044.924488","341811.31047","342578.678684","343344.859687","344111.565659","344878.523295","345645.081794","345654.700365"
"Mixed","Both","tile","36","F_knife.wav","space","353.14388253","123","339511.725561","346411.324321","347178.438397","NA","NA","NA","NA","NA","340278.815213","341044.924488","341811.31047","342578.678684","343344.859687","344111.565659","344878.523295","345645.081794","346420.384223"
"Mixed","Both","tile","36","M_jaw.wav","None","729.609036658","123","339511.725561","346411.324321","347178.438397","347945.191982","NA","NA","NA","NA","340278.815213","341044.924488","341811.31047","342578.678684","343344.859687","344111.565659","344878.523295","345645.081794","347187.754601"
"Mixed","Both","tile","36","M_gnash.wav","None","730.254273352","123","339511.725561","346411.324321","347178.438397","347945.191982","348711.941856","NA","NA","NA","340278.815213","341044.924488","341811.31047","342578.678684","343344.859687","344111.565659","344878.523295","345645.081794","347954.706363"
"Mixed","Both","tile","36","F_done.wav","None","730.773059709","123","339511.725561","346411.324321","347178.438397","347945.191982","348711.941856","349478.539001","NA","NA","340278.815213","341044.924488","341811.31047","342578.678684","343344.859687","344111.565659","344878.523295","345645.081794","348721.618861"
"Mixed","Both","tile","36","M_tile.wav","None","731.703659825","123","339511.725561","346411.324321","347178.438397","347945.191982","348711.941856","349478.539001","350245.092862","NA","340278.815213","341044.924488","341811.31047","342578.678684","343344.859687","344111.565659","344878.523295","345645.081794","349487.962796"
"Mixed","Both","tile","36","M_depth.wav","space","390.817728519","123","339511.725561","346411.324321","347178.438397","347945.191982","348711.941856","349478.539001","350245.092862","351011.442671","340278.815213","341044.924488","341811.31047","342578.678684","343344.859687","344111.565659","344878.523295","345645.081794","350254.614664"
"Mixed","Both","tile","26","M_done.wav","None","734.189382376","123","354178.697481","346411.324321","347178.438397","347945.191982","348711.941856","349478.539001","350245.092862","351011.442671","340278.815213","341044.924488","341811.31047","342578.678684","343344.859687","344111.565659","344878.523295","345645.081794","351020.460836"
"Mixed","Both","tile","26","F_tile.wav","None","723.525508947","123","354178.697481","346411.324321","347178.438397","347945.191982","348711.941856","349478.539001","350245.092862","351011.442671","354944.986693","341044.924488","341811.31047","342578.678684","343344.859687","344111.565659","344878.523295","345645.081794","354188.496608"
"Mixed","Both","tile","26","F_gnash.wav","space","576.35743948","123","354178.697481","346411.324321","347178.438397","347945.191982","348711.941856","349478.539001","350245.092862","351011.442671","354944.986693","355711.213762","341811.31047","342578.678684","343344.859687","344111.565659","344878.523295","345645.081794","354948.89676"
"Mixed","Both","tile","26","F_cling.wav","None","726.942759124","123","354178.697481","346411.324321","347178.438397","347945.191982","348711.941856","349478.539001","350245.092862","351011.442671","354944.986693","355711.213762","356478.836113","342578.678684","343344.859687","344111.565659","344878.523295","345645.081794","355719.91039"
"Mixed","Both","tile","26","F_tile.wav","None","726.688003488","123","354178.697481","346411.324321","347178.438397","347945.191982","348711.941856","349478.539001","350245.092862","351011.442671","354944.986693","355711.213762","356478.836113","357244.652605","343344.859687","344111.565659","344878.523295","345645.081794","356487.724426"
"Mixed","Both","tile","26","F_done.wav","space","463.38907865","123","354178.697481","346411.324321","347178.438397","347945.191982","348711.941856","349478.539001","350245.092862","351011.442671","354944.986693","355711.213762","356478.836113","357244.652605","358011.65167","344111.565659","344878.523295","345645.081794","357253.851942"
"Mixed","Both","tile","26","M_romp.wav","None","727.716301146","123","354178.697481","346411.324321","347178.438397","347945.191982","348711.941856","349478.539001","350245.092862","351011.442671","354944.986693","355711.213762","356478.836113","357244.652605","358011.65167","358777.809485","344878.523295","345645.081794","358020.612329"
"Mixed","Both","tile","26","M_reek.wav","None","728.709971838","123","354178.697481","346411.324321","347178.438397","347945.191982","348711.941856","349478.539001","350245.092862","351011.442671","354944.986693","355711.213762","356478.836113","357244.652605","358011.65167","358777.809485","359544.746407","345645.081794","358786.726242"
"Mixed","Both","tile","26","M_tile.wav","None","729.291519601","123","354178.697481","346411.324321","347178.438397","347945.191982","348711.941856","349478.539001","350245.092862","351011.442671","354944.986693","355711.213762","356478.836113","357244.652605","358011.65167","358777.809485","359544.746407","360311.589032","359553.651724"
"Mixed","Both","tile","26","F_gnash.wav","space","540.106700573","123","354178.697481","361078.164535","347178.438397","347945.191982","348711.941856","349478.539001","350245.092862","351011.442671","354944.986693","355711.213762","356478.836113","357244.652605","358011.65167","358777.809485","359544.746407","360311.589032","360321.021484"
"Mixed","Both","tile","26","M_romp.wav","None","731.060587335","123","354178.697481","361078.164535","361844.7691","347945.191982","348711.941856","349478.539001","350245.092862","351011.442671","354944.986693","355711.213762","356478.836113","357244.652605","358011.65167","358777.809485","359544.746407","360311.589032","361087.229384"
"Mixed","Both","tile","26","F_depth.wav","None","731.763020362","123","354178.697481","361078.164535","361844.7691","362611.541853","348711.941856","349478.539001","350245.092862","351011.442671","354944.986693","355711.213762","356478.836113","357244.652605","358011.65167","358777.809485","359544.746407","360311.589032","361854.204334"
"Mixed","Both","tile","26","M_tile.wav","None","732.14082545","123","354178.697481","361078.164535","361844.7691","362611.541853","363378.024296","349478.539001","350245.092862","351011.442671","354944.986693","355711.213762","356478.836113","357244.652605","358011.65167","358777.809485","359544.746407","360311.589032","362620.854037"
"Mixed","Both","tile","26","M_priest.wav","space","409.543195929","123","354178.697481","361078.164535","361844.7691","362611.541853","363378.024296","364144.744799","350245.092862","351011.442671","354944.986693","355711.213762","356478.836113","357244.652605","358011.65167","358777.809485","359544.746407","360311.589032","363387.538368"
"Mixed","Both","tile","26","M_bluff.wav","None","733.404091909","123","354178.697481","361078.164535","361844.7691","362611.541853","363378.024296","364144.744799","364911.190142","351011.442671","354944.986693","355711.213762","356478.836113","357244.652605","358011.65167","358777.809485","359544.746407","360311.589032","364154.209095"
"Mixed","Both","tile","26","F_romp.wav","None","734.849459201","123","354178.697481","361078.164535","361844.7691","362611.541853","363378.024296","364144.744799","364911.190142","365678.180859","354944.986693","355711.213762","356478.836113","357244.652605","358011.65167","358777.809485","359544.746407","360311.589032","364920.686282"
"Mixed","Both","cave","20","M_cling.wav","None","735.28507899","123","368811.287283","361078.164535","361844.7691","362611.541853","363378.024296","364144.744799","364911.190142","365678.180859","354944.986693","355711.213762","356478.836113","357244.652605","358011.65167","358777.809485","359544.746407","360311.589032","365687.624441"
"Mixed","Both","cave","20","F_lash.wav","None","724.268752369","123","368811.287283","361078.164535","361844.7691","362611.541853","363378.024296","364144.744799","364911.190142","365678.180859","369577.504149","355711.213762","356478.836113","357244.652605","358011.65167","358777.809485","359544.746407","360311.589032","368821.070332"
"Mixed","Both","cave","20","M_knife.wav","None","726.318855144","123","368811.287283","361078.164535","361844.7691","362611.541853","363378.024296","364144.744799","364911.190142","365678.180859","369577.504149","370344.124482","356478.836113","357244.652605","358011.65167","358777.809485","359544.746407","360311.589032","369586.570853"
"Mixed","Both","cave","20","F_jolt.wav","None","727.078793701","123","368811.287283","361078.164535","361844.7691","362611.541853","363378.024296","364144.744799","364911.190142","365678.180859","369577.504149","370344.124482","371110.706786","357244.652605","358011.65167","358777.809485","359544.746407","360311.589032","370353.379779"
"Mixed","Both","cave","20","M_cave.wav","None","728.80550519","123","368811.287283","361078.164535","361844.7691","362611.541853","363378.024296","364144.744799","364911.190142","365678.180859","369577.504149","370344.124482","371110.706786","371877.852707","358011.65167","358777.809485","359544.746407","360311.589032","371119.761742"
"Mixed","Both","cave","20","F_gnash.wav","space","357.506572938","123","368811.287283","361078.164535","361844.7691","362611.541853","363378.024296","364144.744799","364911.190142","365678.180859","369577.504149","370344.124482","371110.706786","371877.852707","372644.42048","358777.809485","359544.746407","360311.589032","371887.296288"
"Mixed","Both","cave","20","F_jaw.wav","None","728.921752918","123","368811.287283","361078.164535","361844.7691","362611.541853","363378.024296","364144.744799","364911.190142","365678.180859","369577.504149","370344.124482","371110.706786","371877.852707","372644.42048","373410.779565","359544.746407","360311.589032","372653.8721"
"Mixed","Both","cave","20","F_greet.wav","None","729.966745741","123","368811.287283","361078.164535","361844.7691","362611.541853","363378.024296","364144.744799","364911.190142","365678.180859","369577.504149","370344.124482","371110.706786","371877.852707","372644.42048","373410.779565","374177.780485","360311.589032","373419.883369"
"Mixed","Both","cave","20","M_cave.wav","None","729.784954077","123","368811.287283","361078.164535","361844.7691","362611.541853","363378.024296","364144.744799","364911.190142","365678.180859","369577.504149","370344.124482","371110.706786","371877.852707","372644.42048","373410.779565","374177.780485","374944.352587","374187.136571"
"Mixed","Both","cave","20","M_priest.wav","space","346.679458045","123","368811.287283","375711.049593","361844.7691","362611.541853","363378.024296","364144.744799","364911.190142","365678.180859","369577.504149","370344.124482","371110.706786","371877.852707","372644.42048","373410.779565","374177.780485","374944.352587","374953.999293"
"Mixed","Both","cave","20","M_jaw.wav","None","730.373612751","123","368811.287283","375711.049593","376477.23647","362611.541853","363378.024296","364144.744799","364911.190142","365678.180859","369577.504149","370344.124482","371110.706786","371877.852707","372644.42048","373410.779565","374177.780485","374944.352587","375720.599529"
"Mixed","Both","cave","20","F_lash.wav","None","732.667959412","123","368811.287283","375711.049593","376477.23647","377243.909361","363378.024296","364144.744799","364911.190142","365678.180859","369577.504149","370344.124482","371110.706786","371877.852707","372644.42048","373410.779565","374177.780485","374944.352587","376486.190636"
"Mixed","Both","cave","20","F_cave.wav","None","733.456032394","123","368811.287283","375711.049593","376477.23647","377243.909361","378010.777339","364144.744799","364911.190142","365678.180859","369577.504149","370344.124482","371110.706786","371877.852707","372644.42048","373410.779565","374177.780485","374944.352587","377253.066034"
"Mixed","Both","cave","20","M_park.wav","space","472.169491652","123","368811.287283","375711.049593","376477.23647","377243.909361","378010.777339","378777.432298","364911.190142","365678.180859","369577.504149","370344.124482","371110.706786","371877.852707","372644.42048","373410.779565","374177.780485","374944.352587","378020.468256"
"Mixed","Both","cave","20","F_cave.wav","None","734.879448646","123","368811.287283","375711.049593","376477.23647","377243.909361","378010.777339","378777.432298","379544.571108","365678.180859","369577.504149","370344.124482","371110.706786","371877.852707","372644.42048","373410.779565","374177.780485","374944.352587","378786.762105"
"Mixed","Both","cave","20","M_greet.wav","space","650.391161224","123","368811.287283","375711.049593","376477.23647","377243.909361","378010.777339","378777.432298","379544.571108","380328.053543","369577.504149","370344.124482","371110.706786","371877.852707","372644.42048","373410.779565","374177.780485","374944.352587","379554.130628"
"Mixed","Both","tile","27","M_ball.wav","None","718.638157938","123","383461.333411","375711.049593","376477.23647","377243.909361","378010.777339","378777.432298","379544.571108","380328.053543","369577.504149","370344.124482","371110.706786","371877.852707","372644.42048","373410.779565","374177.780485","374944.352587","380338.043427"
"Mixed","Both","tile","27","M_bluff.wav","None","721.971314008","123","383461.333411","375711.049593","376477.23647","377243.909361","378010.777339","378777.432298","379544.571108","380328.053543","384227.499573","370344.124482","371110.706786","371877.852707","372644.42048","373410.779565","374177.780485","374944.352587","383471.623189"
"Mixed","Both","tile","27","F_tile.wav","None","724.453635703","123","383461.333411","375711.049593","376477.23647","377243.909361","378010.777339","378777.432298","379544.571108","380328.053543","384227.499573","384994.028082","371110.706786","371877.852707","372644.42048","373410.779565","374177.780485","374944.352587","384236.978091"
"Mixed","Both","tile","27","M_reek.wav","space","417.018604581","123","383461.333411","375711.049593","376477.23647","377243.909361","378010.777339","378777.432298","379544.571108","380328.053543","384227.499573","384994.028082","385760.850612","371877.852707","372644.42048","373410.779565","374177.780485","374944.352587","385003.366237"
"Mixed","Both","tile","27","M_knife.wav","None","726.31947347","123","383461.333411","375711.049593","376477.23647","377243.909361","378010.777339","378777.432298","379544.571108","380328.053543","384227.499573","384994.028082","385760.850612","386527.44652","372644.42048","373410.779565","374177.780485","374944.352587","385770.464546"
"Mixed","Both","tile","27","M_tile.wav","None","727.229050055","123","383461.333411","375711.049593","376477.23647","377243.909361","378010.777339","378777.432298","379544.571108","380328.053543","384227.499573","384994.028082","385760.850612","386527.44652","387293.974101","373410.779565","374177.780485","374944.352587","386536.893193"
"Mixed","Both","tile","27","F_park.wav","space","444.87230065","123","383461.333411","375711.049593","376477.23647","377243.909361","378010.777339","378777.432298","379544.571108","380328.053543","384227.499573","384994.028082","385760.850612","386527.44652","387293.974101","388060.754275","374177.780485","374944.352587","387303.438397"
"Mixed","Both","tile","27","F_jaw.wav","None","729.706115875","123","383461.333411","375711.049593","376477.23647","377243.909361","378010.777339","378777.432298","379544.571108","380328.053543","384227.499573","384994.028082","385760.850612","386527.44652","387293.974101","388060.754275","388827.350801","374944.352587","388069.97309"
"Mixed","Both","tile","27","F_tile.wav","None","730.479657897","123","383461.333411","375711.049593","376477.23647","377243.909361","378010.777339","378777.432298","379544.571108","380328.053543","384227.499573","384994.028082","385760.850612","386527.44652","387293.974101","388060.754275","388827.350801","389594.099439","388836.961643"
"Mixed","Both","tile","27","M_park.wav","space","432.437195312","123","383461.333411","390360.713897","376477.23647","377243.909361","378010.777339","378777.432298","379544.571108","380328.053543","384227.499573","384994.028082","385760.850612","386527.44652","387293.974101","388060.754275","388827.350801","389594.099439","389603.831475"
"Mixed","Both","tile","27","F_dime.wav","None","732.071262319","123","383461.333411","390360.713897","391126.814206","377243.909361","378010.777339","378777.432298","379544.571108","380328.053543","384227.499573","384994.028082","385760.850612","386527.44652","387293.974101","388060.754275","388827.350801","389594.099439","390370.10121"
"Mixed","Both","tile","27","F_cad.wav","None","734.090757323","123","383461.333411","390360.713897","391126.814206","391894.004957","378010.777339","378777.432298","379544.571108","380328.053543","384227.499573","384994.028082","385760.850612","386527.44652","387293.974101","388060.754275","388827.350801","389594.099439","391135.731891"
"Mixed","Both","tile","27","M_tile.wav","None","734.393743391","123","383461.333411","390360.713897","391126.814206","391894.004957","392660.329723","378777.432298","379544.571108","380328.053543","384227.499573","384994.028082","385760.850612","386527.44652","387293.974101","388060.754275","388827.350801","389594.099439","391903.333527"
"Mixed","Both","tile","27","M_greet.wav","space","494.522444453","123","383461.333411","390360.713897","391126.814206","391894.004957","392660.329723","393427.340227","379544.571108","380328.053543","384227.499573","384994.028082","385760.850612","386527.44652","387293.974101","388060.754275","388827.350801","389594.099439","392669.611609"
"Mixed","Both","tile","27","F_ball.wav","None","735.491295025","123","383461.333411","390360.713897","391126.814206","391894.004957","392660.329723","393427.340227","394210.302949","380328.053543","384227.499573","384994.028082","385760.850612","386527.44652","387293.974101","388060.754275","388827.350801","389594.099439","393436.825547"
"Mixed","Both","tile","27","F_jolt.wav","None","720.405988977","123","383461.333411","390360.713897","391126.814206","391894.004957","392660.329723","393427.340227","394210.302949","394977.620768","384227.499573","384994.028082","385760.850612","386527.44652","387293.974101","388060.754275","388827.350801","389594.099439","394219.289269"
"Mixed","Both","ball","11","F_lash.wav","None","720.431650043","123","398110.71637","390360.713897","391126.814206","391894.004957","392660.329723","393427.340227","394210.302949","394977.620768","384227.499573","384994.028082","385760.850612","386527.44652","387293.974101","388060.754275","388827.350801","389594.099439","394987.239958"
"Mixed","Both","ball","11","M_cave.wav","None","723.19871682","123","398110.71637","390360.713897","391126.814206","391894.004957","392660.329723","393427.340227","394210.302949","394977.620768","398877.004655","384994.028082","385760.850612","386527.44652","387293.974101","388060.754275","388827.350801","389594.099439","398120.995946"
"Mixed","Both","ball","11","M_ball.wav","None","724.952326069","123","398110.71637","390360.713897","391126.814206","391894.004957","392660.329723","393427.340227","394210.302949","394977.620768","398877.004655","399643.658687","385760.850612","386527.44652","387293.974101","388060.754275","388827.350801","389594.099439","398886.442671"
"Mixed","Both","ball","11","F_bluff.wav","space","390.863485591","123","398110.71637","390360.713897","391126.814206","391894.004957","392660.329723","393427.340227","394210.302949","394977.620768","398877.004655","399643.658687","400410.449681","386527.44652","387293.974101","388060.754275","388827.350801","389594.099439","399653.107833"
"Mixed","Both","ball","11","F_ball.wav","None","725.816763908","123","398110.71637","390360.713897","391126.814206","391894.004957","392660.329723","393427.340227","394210.302949","394977.620768","398877.004655","399643.658687","400410.449681","401176.958094","387293.974101","388060.754275","388827.350801","389594.099439","400420.399682"
"Mixed","Both","ball","11","M_jaw.wav","space","665.673099051","123","398110.71637","390360.713897","391126.814206","391894.004957","392660.329723","393427.340227","394210.302949","394977.620768","398877.004655","399643.658687","400410.449681","401176.958094","401943.14157","388060.754275","388827.350801","389594.099439","401186.220811"
"Mixed","Both","ball","11","F_park.wav","None","728.769641544","123","398110.71637","390360.713897","391126.814206","391894.004957","392660.329723","393427.340227","394210.302949","394977.620768","398877.004655","399643.658687","400410.449681","401176.958094","401943.14157","402710.280998","388827.350801","389594.099439","401951.976397"
"Mixed","Both","ball","11","F_greet.wav","None","729.630369344","123","398110.71637","390360.713897","391126.814206","391894.004957","392660.329723","393427.340227","394210.302949","394977.620768","398877.004655","399643.658687","400410.449681","401176.958094","401943.14157","402710.280998","403476.911224","389594.099439","402719.529803"
"Mixed","Both","ball","11","M_knife.wav","None","730.748326154","123","398110.71637","390360.713897","391126.814206","391894.004957","392660.329723","393427.340227","394210.302949","394977.620768","398877.004655","399643.658687","400410.449681","401176.958094","401943.14157","402710.280998","403476.911224","404243.136129","403486.596885"
"Mixed","Both","ball","11","M_cling.wav","None","733.091521586","123","398110.71637","405010.005961","391126.814206","391894.004957","392660.329723","393427.340227","394210.302949","394977.620768","398877.004655","399643.658687","400410.449681","401176.958094","401943.14157","402710.280998","403476.911224","404243.136129","404252.20005"
"Mixed","Both","ball","11","M_ball.wav","None","733.465307479","123","398110.71637","405010.005961","405776.516538","391894.004957","392660.329723","393427.340227","394210.302949","394977.620768","398877.004655","399643.658687","400410.449681","401176.958094","401943.14157","402710.280998","403476.911224","404243.136129","405019.356173"
"Mixed","Both","ball","11","M_cling.wav","space","433.994172767","123","398110.71637","405010.005961","405776.516538","406543.05525","392660.329723","393427.340227","394210.302949","394977.620768","398877.004655","399643.658687","400410.449681","401176.958094","401943.14157","402710.280998","403476.911224","404243.136129","405785.795641"
"Mixed","Both","ball","11","M_reek.wav","None","735.301464971","123","398110.71637","405010.005961","405776.516538","406543.05525","407326.43535","393427.340227","394210.302949","394977.620768","398877.004655","399643.658687","400410.449681","401176.958094","401943.14157","402710.280998","403476.911224","404243.136129","406552.96846"
"Mixed","Both","ball","11","F_ball.wav","None","720.932195414","123","398110.71637","405010.005961","405776.516538","406543.05525","407326.43535","408093.676495","394210.302949","394977.620768","398877.004655","399643.658687","400410.449681","401176.958094","401943.14157","402710.280998","403476.911224","404243.136129","407335.450114"
"Mixed","Both","ball","11","F_dime.wav","space","580.473103488","123","398110.71637","405010.005961","405776.516538","406543.05525","407326.43535","408093.676495","408859.979001","394977.620768","398877.004655","399643.658687","400410.449681","401176.958094","401943.14157","402710.280998","403476.911224","404243.136129","408103.243744"
"Mixed","Both","ball","11","F_cad.wav","None","722.638192572","123","398110.71637","405010.005961","405776.516538","406543.05525","407326.43535","408093.676495","408859.979001","409627.182427","398877.004655","399643.658687","400410.449681","401176.958094","401943.14157","402710.280998","403476.911224","404243.136129","408869.082496"
"Mixed","Both","done","47","F_cling.wav","None","721.834661119","123","412760.064703","405010.005961","405776.516538","406543.05525","407326.43535","408093.676495","408859.979001","409627.182427","398877.004655","399643.658687","400410.449681","401176.958094","401943.14157","402710.280998","403476.911224","404243.136129","409637.334934"
"Mixed","Both","done","47","M_bluff.wav","None","724.869468657","123","412760.064703","405010.005961","405776.516538","406543.05525","407326.43535","408093.676495","408859.979001","409627.182427","413526.637733","399643.658687","400410.449681","401176.958094","401943.14157","402710.280998","403476.911224","404243.136129","412769.148102"
"Mixed","Both","done","47","F_jolt.wav","None","725.943214231","123","412760.064703","405010.005961","405776.516538","406543.05525","407326.43535","408093.676495","408859.979001","409627.182427","413526.637733","414292.781016","400410.449681","401176.958094","401943.14157","402710.280998","403476.911224","404243.136129","413536.008968"
"Mixed","Both","done","47","M_jolt.wav","None","727.941994861","123","412760.064703","405010.005961","405776.516538","406543.05525","407326.43535","408093.676495","408859.979001","409627.182427","413526.637733","414292.781016","415059.966202","401176.958094","401943.14157","402710.280998","403476.911224","404243.136129","414301.781867"
"Mixed","Both","done","47","M_done.wav","None","727.92622722","123","412760.064703","405010.005961","405776.516538","406543.05525","407326.43535","408093.676495","408859.979001","409627.182427","413526.637733","414292.781016","415059.966202","415826.466576","401943.14157","402710.280998","403476.911224","404243.136129","415069.730392"
"Mixed","Both","done","47","M_depth.wav","space","631.882112444","123","412760.064703","405010.005961","405776.516538","406543.05525","407326.43535","408093.676495","408859.979001","409627.182427","413526.637733","414292.781016","415059.966202","415826.466576","416593.085672","402710.280998","403476.911224","404243.136129","415835.570071"
"Mixed","Both","done","47","M_ball.wav","None","730.181000181","123","412760.064703","405010.005961","405776.516538","406543.05525","407326.43535","408093.676495","408859.979001","409627.182427","413526.637733","414292.781016","415059.966202","415826.466576","416593.085672","417359.827508","403476.911224","404243.136129","416602.406822"
"Mixed","Both","done","47","F_bluff.wav","None","731.392635338","123","412760.064703","405010.005961","405776.516538","406543.05525","407326.43535","408093.676495","408859.979001","409627.182427","413526.637733","414292.781016","415059.966202","415826.466576","416593.085672","417359.827508","418126.437638","404243.136129","417368.99191"
"Mixed","Both","done","47","F_depth.wav","None","731.748798571","123","412760.064703","405010.005961","405776.516538","406543.05525","407326.43535","408093.676495","408859.979001","409627.182427","413526.637733","414292.781016","415059.966202","415826.466576","416593.085672","417359.827508","418126.437638","418892.891946","418135.962222"
"Mixed","Both","done","47","M_done.wav","None","733.768293547","123","412760.064703","419659.488473","405776.516538","406543.05525","407326.43535","408093.676495","408859.979001","409627.182427","413526.637733","414292.781016","415059.966202","415826.466576","416593.085672","417359.827508","418126.437638","418892.891946","418901.85075"
"Mixed","Both","done","47","M_dime.wav","space","454.476959465","123","412760.064703","419659.488473","420425.978645","406543.05525","407326.43535","408093.676495","408859.979001","409627.182427","413526.637733","414292.781016","415059.966202","415826.466576","416593.085672","417359.827508","418126.437638","418892.891946","419668.901137"
"Mixed","Both","done","47","F_done.wav","None","735.52437617","123","412760.064703","419659.488473","420425.978645","421210.020677","407326.43535","408093.676495","408859.979001","409627.182427","413526.637733","414292.781016","415059.966202","415826.466576","416593.085672","417359.827508","418126.437638","418892.891946","420435.291448"
"Mixed","Both","done","47","M_reek.wav","None","718.222015828","123","412760.064703","419659.488473","420425.978645","421210.020677","421976.265369","408093.676495","408859.979001","409627.182427","413526.637733","414292.781016","415059.966202","415826.466576","416593.085672","417359.827508","418126.437638","418892.891946","421220.28634"
"Mixed","Both","done","47","F_greet.wav","space","17.8563920199","123","412760.064703","419659.488473","420425.978645","421210.020677","421976.265369","422743.00164","408859.979001","409627.182427","413526.637733","414292.781016","415059.966202","415826.466576","416593.085672","417359.827508","418126.437638","418892.891946","421985.460996"
"Mixed","Both","done","47","F_done.wav","None","719.87761835","123","412760.064703","419659.488473","420425.978645","421210.020677","421976.265369","422743.00164","423509.988338","409627.182427","413526.637733","414292.781016","415059.966202","415826.466576","416593.085672","417359.827508","418126.437638","418892.891946","422752.990905"
"Mixed","Both","done","47","F_dime.wav","space","419.499380427","123","412760.064703","419659.488473","420425.978645","421210.020677","421976.265369","422743.00164","423509.988338","424276.614854","413526.637733","414292.781016","415059.966202","415826.466576","416593.085672","417359.827508","418126.437638","418892.891946","423519.752219"
"Mixed","Both","cave","21","M_jolt.wav","None","721.116769593","123","427409.468995","419659.488473","420425.978645","421210.020677","421976.265369","422743.00164","423509.988338","424276.614854","413526.637733","414292.781016","415059.966202","415826.466576","416593.085672","417359.827508","418126.437638","418892.891946","424286.349673"
"Mixed","Both","cave","21","F_jolt.wav","None","725.528617957","123","427409.468995","419659.488473","420425.978645","421210.020677","421976.265369","422743.00164","423509.988338","424276.614854","428176.082526","414292.781016","415059.966202","415826.466576","416593.085672","417359.827508","418126.437638","418892.891946","427418.592586"
"Mixed","Both","cave","21","M_cling.wav","None","726.245891128","123","427409.468995","419659.488473","420425.978645","421210.020677","421976.265369","422743.00164","423509.988338","424276.614854","428176.082526","428942.683072","415059.966202","415826.466576","416593.085672","417359.827508","418126.437638","418892.891946","428185.350499"
"Mixed","Both","cave","21","F_cave.wav","None","727.430628554","123","427409.468995","419659.488473","420425.978645","421210.020677","421976.265369","422743.00164","423509.988338","424276.614854","428176.082526","428942.683072","429709.458916","415826.466576","416593.085672","417359.827508","418126.437638","418892.891946","428951.686396"
"Mixed","Both","cave","21","M_gnash.wav","space","699.955355929","123","427409.468995","419659.488473","420425.978645","421210.020677","421976.265369","422743.00164","423509.988338","424276.614854","428176.082526","428942.683072","429709.458916","430475.473586","416593.085672","417359.827508","418126.437638","418892.891946","429719.103767"
"Mixed","Both","cave","21","M_cave.wav","None","730.256746698","123","427409.468995","419659.488473","420425.978645","421210.020677","421976.265369","422743.00164","423509.988338","424276.614854","428176.082526","428942.683072","429709.458916","430475.473586","431242.175848","417359.827508","418126.437638","418892.891946","430484.169286"
"Mixed","Both","cave","21","F_romp.wav","None","731.269276715","123","427409.468995","419659.488473","420425.978645","421210.020677","421976.265369","422743.00164","423509.988338","424276.614854","428176.082526","428942.683072","429709.458916","430475.473586","431242.175848","432009.423795","418126.437638","418892.891946","431251.164332"
"Mixed","Both","cave","21","F_priest.wav","space","0.0343178107869","123","427409.468995","419659.488473","420425.978645","421210.020677","421976.265369","422743.00164","423509.988338","424276.614854","428176.082526","428942.683072","429709.458916","430475.473586","431242.175848","432009.423795","432775.996515","418892.891946","432018.498846"
"Mixed","Both","cave","21","F_cave.wav","None","732.16153981","123","427409.468995","419659.488473","420425.978645","421210.020677","421976.265369","422743.00164","423509.988338","424276.614854","428176.082526","428942.683072","429709.458916","430475.473586","431242.175848","432009.423795","432775.996515","433559.763077","432785.522336"
"Mixed","Both","cave","21","M_cling.wav","space","553.514143889","123","427409.468995","434326.206874","420425.978645","421210.020677","421976.265369","422743.00164","423509.988338","424276.614854","428176.082526","428942.683072","429709.458916","430475.473586","431242.175848","432009.423795","432775.996515","433559.763077","433569.420913"
"Mixed","Both","cave","21","M_ball.wav","None","719.300398952","123","427409.468995","434326.206874","435092.323569","421210.020677","421976.265369","422743.00164","423509.988338","424276.614854","428176.082526","428942.683072","429709.458916","430475.473586","431242.175848","432009.423795","432775.996515","433559.763077","434335.921597"
"Mixed","Both","cave","21","M_cave.wav","None","722.243073993","123","427409.468995","434326.206874","435092.323569","435859.095395","421976.265369","422743.00164","423509.988338","424276.614854","428176.082526","428942.683072","429709.458916","430475.473586","431242.175848","432009.423795","432775.996515","433559.763077","435101.108002"
"Mixed","Both","cave","21","F_park.wav","space","590.584491074","123","427409.468995","434326.206874","435092.323569","435859.095395","436626.111155","422743.00164","423509.988338","424276.614854","428176.082526","428942.683072","429709.458916","430475.473586","431242.175848","432009.423795","432775.996515","433559.763077","435868.241865"
"Mixed","Both","cave","21","F_gnash.wav","None","722.446198328","123","427409.468995","434326.206874","435092.323569","435859.095395","436626.111155","437393.353846","423509.988338","424276.614854","428176.082526","428942.683072","429709.458916","430475.473586","431242.175848","432009.423795","432775.996515","433559.763077","436636.042606"
"Mixed","Both","cave","21","F_greet.wav","None","722.935922764","123","427409.468995","434326.206874","435092.323569","435859.095395","436626.111155","437393.353846","438159.270508","424276.614854","428176.082526","428942.683072","429709.458916","430475.473586","431242.175848","432009.423795","432775.996515","433559.763077","437403.360425"
"Mixed","Both","cave","21","M_reek.wav","None","725.346517138","123","427409.468995","434326.206874","435092.323569","435859.095395","436626.111155","437393.353846","438159.270508","438925.856214","428176.082526","428942.683072","429709.458916","430475.473586","431242.175848","432009.423795","432775.996515","433559.763077","438168.896191"
"Mixed","Both","cave","23","F_done.wav","None","726.980786974","123","442059.398566","434326.206874","435092.323569","435859.095395","436626.111155","437393.353846","438159.270508","438925.856214","428176.082526","428942.683072","429709.458916","430475.473586","431242.175848","432009.423795","432775.996515","433559.763077","438935.340606"
"Mixed","Both","cave","23","M_jaw.wav","None","722.704045678","123","442059.398566","434326.206874","435092.323569","435859.095395","436626.111155","437393.353846","438159.270508","438925.856214","442825.625945","428942.683072","429709.458916","430475.473586","431242.175848","432009.423795","432775.996515","433559.763077","442069.661138"
"Mixed","Both","cave","23","M_cave.wav","None","724.868541132","123","442059.398566","434326.206874","435092.323569","435859.095395","436626.111155","437393.353846","438159.270508","438925.856214","442825.625945","443592.25617","429709.458916","430475.473586","431242.175848","432009.423795","432775.996515","433559.763077","442834.903502"
"Mixed","Both","cave","23","F_done.wav","space","561.16979834","123","442059.398566","434326.206874","435092.323569","435859.095395","436626.111155","437393.353846","438159.270508","438925.856214","442825.625945","443592.25617","444358.9742","430475.473586","431242.175848","432009.423795","432775.996515","433559.763077","443601.459836"
"Mixed","Both","cave","23","F_bluff.wav","None","726.217138377","123","442059.398566","434326.206874","435092.323569","435859.095395","436626.111155","437393.353846","438159.270508","438925.856214","442825.625945","443592.25617","444358.9742","445125.649565","431242.175848","432009.423795","432775.996515","433559.763077","444368.304626"
"Mixed","Both","cave","23","M_knife.wav","None","726.949560849","123","442059.398566","434326.206874","435092.323569","435859.095395","436626.111155","437393.353846","438159.270508","438925.856214","442825.625945","443592.25617","444358.9742","445125.649565","445892.212392","432009.423795","432775.996515","433559.763077","445135.085417"
"Mixed","Both","cave","23","M_cave.wav","None","727.975075992","123","442059.398566","434326.206874","435092.323569","435859.095395","436626.111155","437393.353846","438159.270508","438925.856214","442825.625945","443592.25617","444358.9742","445125.649565","445892.212392","446659.313792","432775.996515","433559.763077","445901.520866"
"Mixed","Both","cave","23","F_reek.wav","space","541.965427445","123","442059.398566","434326.206874","435092.323569","435859.095395","436626.111155","437393.353846","438159.270508","438925.856214","442825.625945","443592.25617","444358.9742","445125.649565","445892.212392","446659.313792","447425.515818","433559.763077","446668.616083"
"Mixed","Both","cave","23","F_cave.wav","None","729.69096656","123","442059.398566","434326.206874","435092.323569","435859.095395","436626.111155","437393.353846","438159.270508","438925.856214","442825.625945","443592.25617","444358.9742","445125.649565","445892.212392","446659.313792","447425.515818","448192.126876","447435.269497"
"Mixed","Both","cave","23","M_tile.wav","space","545.056812975","123","442059.398566","448958.792347","435092.323569","435859.095395","436626.111155","437393.353846","438159.270508","438925.856214","442825.625945","443592.25617","444358.9742","445125.649565","445892.212392","446659.313792","447425.515818","448192.126876","448201.452045"
"Mixed","Both","cave","23","M_priest.wav","None","731.901528285","123","442059.398566","448958.792347","449725.438959","435859.095395","436626.111155","437393.353846","438159.270508","438925.856214","442825.625945","443592.25617","444358.9742","445125.649565","445892.212392","446659.313792","447425.515818","448192.126876","448967.936962"
"Mixed","Both","cave","23","F_cave.wav","None","733.573825957","123","442059.398566","448958.792347","449725.438959","450492.003332","436626.111155","437393.353846","438159.270508","438925.856214","442825.625945","443592.25617","444358.9742","445125.649565","445892.212392","446659.313792","447425.515818","448192.126876","449734.386014"
"Mixed","Both","cave","23","M_knife.wav","space","541.162205132","123","442059.398566","448958.792347","449725.438959","450492.003332","451258.545135","437393.353846","438159.270508","438925.856214","442825.625945","443592.25617","444358.9742","445125.649565","445892.212392","446659.313792","447425.515818","448192.126876","450501.26574"
"Mixed","Both","cave","23","F_jolt.wav","None","733.781278672","123","442059.398566","448958.792347","449725.438959","450492.003332","451258.545135","452025.450831","438159.270508","438925.856214","442825.625945","443592.25617","444358.9742","445125.649565","445892.212392","446659.313792","447425.515818","448192.126876","451268.648484"
"Mixed","Both","cave","23","M_park.wav","None","735.760890806","123","442059.398566","448958.792347","449725.438959","450492.003332","451258.545135","452025.450831","452809.213683","438925.856214","442825.625945","443592.25617","444358.9742","445125.649565","445892.212392","446659.313792","447425.515818","448192.126876","452034.579678"
"Mixed","Both","cave","23","F_jolt.wav","None","719.275356227","123","442059.398566","448958.792347","449725.438959","450492.003332","451258.545135","452025.450831","452809.213683","453575.689633","442825.625945","443592.25617","444358.9742","445125.649565","445892.212392","446659.313792","447425.515818","448192.126876","452818.598832"
"Mixed","Both","cave","18","F_cling.wav","None","719.85844984","123","456708.720001","448958.792347","449725.438959","450492.003332","451258.545135","452025.450831","452809.213683","453575.689633","442825.625945","443592.25617","444358.9742","445125.649565","445892.212392","446659.313792","447425.515818","448192.126876","453585.501745"
"Mixed","Both","cave","18","M_reek.wav","None","725.674545945","123","456708.720001","448958.792347","449725.438959","450492.003332","451258.545135","452025.450831","452809.213683","453575.689633","457474.806398","443592.25617","444358.9742","445125.649565","445892.212392","446659.313792","447425.515818","448192.126876","456717.757952"
"Mixed","Both","cave","18","F_bluff.wav","None","727.768859957","123","456708.720001","448958.792347","449725.438959","450492.003332","451258.545135","452025.450831","452809.213683","453575.689633","457474.806398","458241.862659","444358.9742","445125.649565","445892.212392","446659.313792","447425.515818","448192.126876","457483.884541"
"Mixed","Both","cave","18","F_gnash.wav","None","728.157176811","123","456708.720001","448958.792347","449725.438959","450492.003332","451258.545135","452025.450831","452809.213683","453575.689633","457474.806398","458241.862659","459008.380966","445125.649565","445892.212392","446659.313792","447425.515818","448192.126876","458251.308714"
"Mixed","Both","cave","18","M_gnash.wav","None","729.571627147","123","456708.720001","448958.792347","449725.438959","450492.003332","451258.545135","452025.450831","452809.213683","453575.689633","457474.806398","458241.862659","459008.380966","459775.092504","445892.212392","446659.313792","447425.515818","448192.126876","459018.029527"
"Mixed","Both","cave","18","M_cave.wav","None","730.499135563","123","456708.720001","448958.792347","449725.438959","450492.003332","451258.545135","452025.450831","452809.213683","453575.689633","457474.806398","458241.862659","459008.380966","459775.092504","460541.757975","446659.313792","447425.515818","448192.126876","459784.632237"
"Mixed","Both","cave","18","M_bluff.wav","space","578.996200915","123","456708.720001","448958.792347","449725.438959","450492.003332","451258.545135","452025.450831","452809.213683","453575.689633","457474.806398","458241.862659","459008.380966","459775.092504","460541.757975","461308.345844","447425.515818","448192.126876","460551.137249"
"Mixed","Both","cave","18","M_done.wav","None","732.583556135","123","456708.720001","448958.792347","449725.438959","450492.003332","451258.545135","452025.450831","452809.213683","453575.689633","457474.806398","458241.862659","459008.380966","459775.092504","460541.757975","461308.345844","462074.556527","448192.126876","461317.982657"
"Mixed","Both","cave","18","F_cave.wav","None","734.668285892","123","456708.720001","448958.792347","449725.438959","450492.003332","451258.545135","452025.450831","452809.213683","453575.689633","457474.806398","458241.862659","459008.380966","459775.092504","460541.757975","461308.345844","462074.556527","462841.24735","462083.359819"
"Mixed","Both","cave","18","F_knife.wav","space","719.561028818","123","456708.720001","463608.022577","449725.438959","450492.003332","451258.545135","452025.450831","452809.213683","453575.689633","457474.806398","458241.862659","459008.380966","459775.092504","460541.757975","461308.345844","462074.556527","462841.24735","462850.545931"
"Mixed","Both","cave","18","M_cave.wav","None","735.26900218","123","456708.720001","463608.022577","464392.318437","450492.003332","451258.545135","452025.450831","452809.213683","453575.689633","457474.806398","458241.862659","459008.380966","459775.092504","460541.757975","461308.345844","462074.556527","462841.24735","463617.283439"
"Mixed","Both","cave","18","M_lash.wav","None","718.215832458","123","456708.720001","463608.022577","464392.318437","465158.013735","451258.545135","452025.450831","452809.213683","453575.689633","457474.806398","458241.862659","459008.380966","459775.092504","460541.757975","461308.345844","462074.556527","462841.24735","464402.234739"
"Mixed","Both","cave","18","F_knife.wav","space","27.1277661377","123","456708.720001","463608.022577","464392.318437","465158.013735","465925.438835","452025.450831","452809.213683","453575.689633","457474.806398","458241.862659","459008.380966","459775.092504","460541.757975","461308.345844","462074.556527","462841.24735","465166.783327"
"Mixed","Both","cave","18","F_cling.wav","None","721.86712391","123","456708.720001","463608.022577","464392.318437","465158.013735","465925.438835","466691.6152","452809.213683","453575.689633","457474.806398","458241.862659","459008.380966","459775.092504","460541.757975","461308.345844","462074.556527","462841.24735","465935.643901"
"Mixed","Both","cave","18","F_cave.wav","None","724.678401923","123","456708.720001","463608.022577","464392.318437","465158.013735","465925.438835","466691.6152","467457.838868","453575.689633","457474.806398","458241.862659","459008.380966","459775.092504","460541.757975","461308.345844","462074.556527","462841.24735","466701.06682"
"Mixed","Both","cave","18","M_gnash.wav","space","407.245448412","123","456708.720001","463608.022577","464392.318437","465158.013735","465925.438835","466691.6152","467457.838868","468224.884","457474.806398","458241.862659","459008.380966","459775.092504","460541.757975","461308.345844","462074.556527","462841.24735","467466.670913"
"Mixed","Both","ball","1","F_cling.wav","None","726.294739914","123","471358.471491","463608.022577","464392.318437","465158.013735","465925.438835","466691.6152","467457.838868","468224.884","457474.806398","458241.862659","459008.380966","459775.092504","460541.757975","461308.345844","462074.556527","462841.24735","468234.403637"
"Mixed","Both","ball","1","F_ball.wav","None","723.347736508","123","471358.471491","463608.022577","464392.318437","465158.013735","465925.438835","466691.6152","467457.838868","468224.884","472124.822228","458241.862659","459008.380966","459775.092504","460541.757975","461308.345844","462074.556527","462841.24735","471368.34049"
"Mixed","Both","ball","1","F_dime.wav","space","395.957052649","123","471358.471491","463608.022577","464392.318437","465158.013735","465925.438835","466691.6152","467457.838868","468224.884","472124.822228","472891.374234","459008.380966","459775.092504","460541.757975","461308.345844","462074.556527","462841.24735","472133.808547"
"Mixed","Both","ball","1","F_reek.wav","None","725.752765837","123","471358.471491","463608.022577","464392.318437","465158.013735","465925.438835","466691.6152","467457.838868","468224.884","472124.822228","472891.374234","473658.051762","459775.092504","460541.757975","461308.345844","462074.556527","462841.24735","472900.928498"
"Mixed","Both","ball","1","M_ball.wav","None","727.091160472","123","471358.471491","463608.022577","464392.318437","465158.013735","465925.438835","466691.6152","467457.838868","468224.884","472124.822228","472891.374234","473658.051762","474424.631284","460541.757975","461308.345844","462074.556527","462841.24735","473667.808533"
"Mixed","Both","ball","1","M_jolt.wav","space","375.671516085","123","471358.471491","463608.022577","464392.318437","465158.013735","465925.438835","466691.6152","467457.838868","468224.884","472124.822228","472891.374234","473658.051762","474424.631284","475190.977693","461308.345844","462074.556527","462841.24735","474434.084141"
"Mixed","Both","ball","1","F_ball.wav","None","730.245307423","123","471358.471491","463608.022577","464392.318437","465158.013735","465925.438835","466691.6152","467457.838868","468224.884","472124.822228","472891.374234","473658.051762","474424.631284","475190.977693","475958.016641","462074.556527","462841.24735","475199.90187"
"Mixed","Both","ball","1","M_lash.wav","space","546.082328117","123","471358.471491","463608.022577","464392.318437","465158.013735","465925.438835","466691.6152","467457.838868","468224.884","472124.822228","472891.374234","473658.051762","474424.631284","475190.977693","475958.016641","476724.341407","462841.24735","475967.624082"
"Mixed","Both","ball","1","M_reek.wav","None","731.910185044","123","471358.471491","463608.022577","464392.318437","465158.013735","465925.438835","466691.6152","467457.838868","468224.884","472124.822228","472891.374234","473658.051762","474424.631284","475190.977693","475958.016641","476724.341407","477491.228862","476733.516011"
"Mixed","Both","ball","1","M_bluff.wav","None","733.266202325","123","471358.471491","478257.816423","464392.318437","465158.013735","465925.438835","466691.6152","467457.838868","468224.884","472124.822228","472891.374234","473658.051762","474424.631284","475190.977693","475958.016641","476724.341407","477491.228862","477500.432837"
"Mixed","Both","ball","1","F_bluff.wav","None","734.539362224","123","471358.471491","478257.816423","479041.63307","465158.013735","465925.438835","466691.6152","467457.838868","468224.884","472124.822228","472891.374234","473658.051762","474424.631284","475190.977693","475958.016641","476724.341407","477491.228862","478267.30607"
"Mixed","Both","ball","1","F_lash.wav","None","719.184769579","123","471358.471491","478257.816423","479041.63307","479808.357284","465925.438835","466691.6152","467457.838868","468224.884","472124.822228","472891.374234","473658.051762","474424.631284","475190.977693","475958.016641","476724.341407","477491.228862","479051.028421"
"Mixed","Both","ball","1","M_ball.wav","None","720.311073965","123","471358.471491","478257.816423","479041.63307","479808.357284","480574.929695","466691.6152","467457.838868","468224.884","472124.822228","472891.374234","473658.051762","474424.631284","475190.977693","475958.016641","476724.341407","477491.228862","479817.996879"
"Mixed","Both","ball","1","M_knife.wav","space","384.695554647","123","471358.471491","478257.816423","479041.63307","479808.357284","480574.929695","481341.558993","467457.838868","468224.884","472124.822228","472891.374234","473658.051762","474424.631284","475190.977693","475958.016641","476724.341407","477491.228862","480584.819408"
"Mixed","Both","ball","1","M_bluff.wav","None","721.960802257","123","471358.471491","478257.816423","479041.63307","479808.357284","480574.929695","481341.558993","482108.177471","468224.884","472124.822228","472891.374234","473658.051762","474424.631284","475190.977693","475958.016641","476724.341407","477491.228862","481351.178801"
"Mixed","Both","ball","1","F_knife.wav","None","723.167490709","123","471358.471491","478257.816423","479041.63307","479808.357284","480574.929695","481341.558993","482108.177471","482874.495435","472124.822228","472891.374234","473658.051762","474424.631284","475190.977693","475958.016641","476724.341407","477491.228862","482117.946298"
"Mixed","Both","tile","33","F_cling.wav","None","725.643938174","123","486008.085091","478257.816423","479041.63307","479808.357284","480574.929695","481341.558993","482108.177471","482874.495435","472124.822228","472891.374234","473658.051762","474424.631284","475190.977693","475958.016641","476724.341407","477491.228862","482883.762172"
"Mixed","Both","tile","33","M_bluff.wav","None","723.189132565","123","486008.085091","478257.816423","479041.63307","479808.357284","480574.929695","481341.558993","482108.177471","482874.495435","486773.807286","472891.374234","473658.051762","474424.631284","475190.977693","475958.016641","476724.341407","477491.228862","486017.868759"
"Mixed","Both","tile","33","M_tile.wav","None","727.265222886","123","486008.085091","478257.816423","479041.63307","479808.357284","480574.929695","481341.558993","482108.177471","482874.495435","486773.807286","487540.961863","473658.051762","474424.631284","475190.977693","475958.016641","476724.341407","477491.228862","486782.510407"
"Mixed","Both","tile","33","M_cad.wav","space","483.03185188","123","486008.085091","478257.816423","479041.63307","479808.357284","480574.929695","481341.558993","482108.177471","482874.495435","486773.807286","487540.961863","488307.366086","474424.631284","475190.977693","475958.016641","476724.341407","477491.228862","487550.325988"
"Mixed","Both","tile","33","F_bluff.wav","None","728.659886372","123","486008.085091","478257.816423","479041.63307","479808.357284","480574.929695","481341.558993","482108.177471","482874.495435","486773.807286","487540.961863","488307.366086","489074.423275","475190.977693","475958.016641","476724.341407","477491.228862","488316.520285"
"Mixed","Both","tile","33","M_jaw.wav","None","729.622640109","123","486008.085091","478257.816423","479041.63307","479808.357284","480574.929695","481341.558993","482108.177471","482874.495435","486773.807286","487540.961863","488307.366086","489074.423275","489840.837083","475958.016641","476724.341407","477491.228862","489083.844597"
"Mixed","Both","tile","33","M_gnash.wav","None","730.976802384","123","486008.085091","478257.816423","479041.63307","479808.357284","480574.929695","481341.558993","482108.177471","482874.495435","486773.807286","487540.961863","488307.366086","489074.423275","489840.837083","490607.467927","476724.341407","477491.228862","489850.332605"
"Mixed","Both","tile","33","F_tile.wav","None","733.107907567","123","486008.085091","478257.816423","479041.63307","479808.357284","480574.929695","481341.558993","482108.177471","482874.495435","486773.807286","487540.961863","488307.366086","489074.423275","489840.837083","490607.467927","491374.118867","477491.228862","490616.912127"
"Mixed","Both","tile","33","F_greet.wav","space","425.471297931","123","486008.085091","478257.816423","479041.63307","479808.357284","480574.929695","481341.558993","482108.177471","482874.495435","486773.807286","487540.961863","488307.366086","489074.423275","489840.837083","490607.467927","491374.118867","492140.507941","491383.737129"
"Mixed","Both","tile","33","M_lash.wav","None","735.322488501","123","486008.085091","492924.557393","479041.63307","479808.357284","480574.929695","481341.558993","482108.177471","482874.495435","486773.807286","487540.961863","488307.366086","489074.423275","489840.837083","490607.467927","491374.118867","492140.507941","492150.104252"
"Mixed","Both","tile","33","F_tile.wav","None","718.911154589","123","486008.085091","492924.557393","493690.898545","479808.357284","480574.929695","481341.558993","482108.177471","482874.495435","486773.807286","487540.961863","488307.366086","489074.423275","489840.837083","490607.467927","491374.118867","492140.507941","492934.714847"
"Mixed","Both","tile","33","F_bluff.wav","space","372.722348504","123","486008.085091","492924.557393","493690.898545","494457.814753","480574.929695","481341.558993","482108.177471","482874.495435","486773.807286","487540.961863","488307.366086","489074.423275","489840.837083","490607.467927","491374.118867","492140.507941","493700.394067"
"Mixed","Both","tile","33","M_cave.wav","None","720.786885766","123","486008.085091","492924.557393","493690.898545","494457.814753","495223.747183","481341.558993","482108.177471","482874.495435","486773.807286","487540.961863","488307.366086","489074.423275","489840.837083","490607.467927","491374.118867","492140.507941","494468.113807"
"Mixed","Both","tile","33","F_bluff.wav","None","724.384381741","123","486008.085091","492924.557393","493690.898545","494457.814753","495223.747183","495990.676685","482108.177471","482874.495435","486773.807286","487540.961863","488307.366086","489074.423275","489840.837083","490607.467927","491374.118867","492140.507941","495232.897363"
"Mixed","Both","tile","33","M_tile.wav","None","724.912443198","123","486008.085091","492924.557393","493690.898545","494457.814753","495223.747183","495990.676685","496757.251261","482874.495435","486773.807286","487540.961863","488307.366086","489074.423275","489840.837083","490607.467927","491374.118867","492140.507941","496000.268977"
"Mixed","Both","tile","33","F_gnash.wav","space","450.959847542","123","486008.085091","492924.557393","493690.898545","494457.814753","495223.747183","495990.676685","496757.251261","497523.48204","486773.807286","487540.961863","488307.366086","489074.423275","489840.837083","490607.467927","491374.118867","492140.507941","496766.089488"
"Mixed","Both","done","37","F_ball.wav","None","730.867974751","123","500657.837199","492924.557393","493690.898545","494457.814753","495223.747183","495990.676685","496757.251261","497523.48204","486773.807286","487540.961863","488307.366086","489074.423275","489840.837083","490607.467927","491374.118867","492140.507941","497532.270182"
"Mixed","Both","done","37","M_reek.wav","None","723.304143612","123","500657.837199","492924.557393","493690.898545","494457.814753","495223.747183","495990.676685","496757.251261","497523.48204","501423.501888","487540.961863","488307.366086","489074.423275","489840.837083","490607.467927","491374.118867","492140.507941","500667.233168"
"Mixed","Both","done","37","M_done.wav","None","725.823256478","123","500657.837199","492924.557393","493690.898545","494457.814753","495223.747183","495990.676685","496757.251261","497523.48204","501423.501888","502190.482094","488307.366086","489074.423275","489840.837083","490607.467927","491374.118867","492140.507941","501432.527782"
"Mixed","Both","done","37","F_jaw.wav","None","726.465401473","123","500657.837199","492924.557393","493690.898545","494457.814753","495223.747183","495990.676685","496757.251261","497523.48204","501423.501888","502190.482094","502957.42118","489074.423275","489840.837083","490607.467927","491374.118867","492140.507941","502199.941443"
"Mixed","Both","done","37","F_bluff.wav","space","186.834821885","123","500657.837199","492924.557393","493690.898545","494457.814753","495223.747183","495990.676685","496757.251261","497523.48204","501423.501888","502190.482094","502957.42118","503723.635882","489840.837083","490607.467927","491374.118867","492140.507941","502966.07267"
"Mixed","Both","done","37","M_priest.wav","None","729.324291577","123","500657.837199","492924.557393","493690.898545","494457.814753","495223.747183","495990.676685","496757.251261","497523.48204","501423.501888","502190.482094","502957.42118","503723.635882","504490.442953","490607.467927","491374.118867","492140.507941","503732.981766"
"Mixed","Both","done","37","M_priest.wav","None","730.230776462","123","500657.837199","492924.557393","493690.898545","494457.814753","495223.747183","495990.676685","496757.251261","497523.48204","501423.501888","502190.482094","502957.42118","503723.635882","504490.442953","505257.329171","491374.118867","492140.507941","504499.993507"
"Mixed","Both","done","37","F_done.wav","None","731.317816317","123","500657.837199","492924.557393","493690.898545","494457.814753","495223.747183","495990.676685","496757.251261","497523.48204","501423.501888","502190.482094","502957.42118","503723.635882","504490.442953","505257.329171","506023.747925","492140.507941","505266.67691"
"Mixed","Both","done","37","M_park.wav","space","599.367377421","123","500657.837199","492924.557393","493690.898545","494457.814753","495223.747183","495990.676685","496757.251261","497523.48204","501423.501888","502190.482094","502957.42118","503723.635882","504490.442953","505257.329171","506023.747925","506790.354345","506033.430186"
"Mixed","Both","done","37","F_lash.wav","None","735.93464405","123","500657.837199","507574.162955","493690.898545","494457.814753","495223.747183","495990.676685","496757.251261","497523.48204","501423.501888","502190.482094","502957.42118","503723.635882","504490.442953","505257.329171","506023.747925","506790.354345","506799.280995"
"Mixed","Both","done","37","F_done.wav","None","719.462712921","123","500657.837199","507574.162955","508340.757626","494457.814753","495223.747183","495990.676685","496757.251261","497523.48204","501423.501888","502190.482094","502957.42118","503723.635882","504490.442953","505257.329171","506023.747925","506790.354345","507583.69805"
"Mixed","Both","done","37","M_reek.wav","space","546.487030966","123","500657.837199","507574.162955","508340.757626","509107.585102","495223.747183","495990.676685","496757.251261","497523.48204","501423.501888","502190.482094","502957.42118","503723.635882","504490.442953","505257.329171","506023.747925","506790.354345","508350.242945"
"Mixed","Both","done","37","F_cad.wav","None","721.497666396","123","500657.837199","507574.162955","508340.757626","509107.585102","509874.035391","495990.676685","496757.251261","497523.48204","501423.501888","502190.482094","502957.42118","503723.635882","504490.442953","505257.329171","506023.747925","506790.354345","509117.454101"
"Mixed","Both","done","37","M_done.wav","None","723.084942452","123","500657.837199","507574.162955","508340.757626","509107.585102","509874.035391","510640.246074","496757.251261","497523.48204","501423.501888","502190.482094","502957.42118","503723.635882","504490.442953","505257.329171","506023.747925","506790.354345","509883.698174"
"Mixed","Both","done","37","M_ball.wav","space","414.825047192","123","500657.837199","507574.162955","508340.757626","509107.585102","509874.035391","510640.246074","511406.944008","497523.48204","501423.501888","502190.482094","502957.42118","503723.635882","504490.442953","505257.329171","506023.747925","506790.354345","510649.807758"
"Mixed","Both","done","37","F_knife.wav","None","726.029163328","123","500657.837199","507574.162955","508340.757626","509107.585102","509874.035391","510640.246074","511406.944008","512173.582272","501423.501888","502190.482094","502957.42118","503723.635882","504490.442953","505257.329171","506023.747925","506790.354345","511416.411705"
"Mixed","Both","cave","22","M_bluff.wav","None","728.381633846","123","515307.21583","507574.162955","508340.757626","509107.585102","509874.035391","510640.246074","511406.944008","512173.582272","501423.501888","502190.482094","502957.42118","503723.635882","504490.442953","505257.329171","506023.747925","506790.354345","512182.724723"
"Mixed","Both","cave","22","F_reek.wav","None","722.759077835","123","515307.21583","507574.162955","508340.757626","509107.585102","509874.035391","510640.246074","511406.944008","512173.582272","516073.50566","502190.482094","502957.42118","503723.635882","504490.442953","505257.329171","506023.747925","506790.354345","515317.009391"
"Mixed","Both","cave","22","F_cad.wav","None","725.231506105","123","515307.21583","507574.162955","508340.757626","509107.585102","509874.035391","510640.246074","511406.944008","512173.582272","516073.50566","516839.734893","502957.42118","503723.635882","504490.442953","505257.329171","506023.747925","506790.354345","516083.044157"
"Mixed","Both","cave","22","F_tile.wav","None","727.681674165","123","515307.21583","507574.162955","508340.757626","509107.585102","509874.035391","510640.246074","511406.944008","512173.582272","516073.50566","516839.734893","517606.735504","503723.635882","504490.442953","505257.329171","506023.747925","506790.354345","516848.985553"
"Mixed","Both","cave","22","F_cave.wav","None","728.944322283","123","515307.21583","507574.162955","508340.757626","509107.585102","509874.035391","510640.246074","511406.944008","512173.582272","516073.50566","516839.734893","517606.735504","518373.418907","504490.442953","505257.329171","506023.747925","506790.354345","517616.137657"
"Mixed","Both","cave","22","M_ball.wav","space","465.43207053","123","515307.21583","507574.162955","508340.757626","509107.585102","509874.035391","510640.246074","511406.944008","512173.582272","516073.50566","516839.734893","517606.735504","518373.418907","519140.463111","505257.329171","506023.747925","506790.354345","518382.958022"
"Mixed","Both","cave","22","F_cave.wav","None","730.693912323","123","515307.21583","507574.162955","508340.757626","509107.585102","509874.035391","510640.246074","511406.944008","512173.582272","516073.50566","516839.734893","517606.735504","518373.418907","519140.463111","519906.572077","506023.747925","506790.354345","519149.94503"
"Mixed","Both","cave","22","M_lash.wav","space","516.473786134","123","515307.21583","507574.162955","508340.757626","509107.585102","509874.035391","510640.246074","511406.944008","512173.582272","516073.50566","516839.734893","517606.735504","518373.418907","519140.463111","519906.572077","520673.200448","506790.354345","519915.918889"
"Mixed","Both","cave","22","M_cave.wav","None","734.589447675","123","515307.21583","507574.162955","508340.757626","509107.585102","509874.035391","510640.246074","511406.944008","512173.582272","516073.50566","516839.734893","517606.735504","518373.418907","519140.463111","519906.572077","520673.200448","521457.046467","520682.45049"
"Mixed","Both","cave","22","F_park.wav","space","629.464716345","123","515307.21583","522223.631554","508340.757626","509107.585102","509874.035391","510640.246074","511406.944008","512173.582272","516073.50566","516839.734893","517606.735504","518373.418907","519140.463111","519906.572077","520673.200448","521457.046467","521466.814367"
"Mixed","Both","cave","22","F_knife.wav","None","719.059246767","123","515307.21583","522223.631554","522990.238592","509107.585102","509874.035391","510640.246074","511406.944008","512173.582272","516073.50566","516839.734893","517606.735504","518373.418907","519140.463111","519906.572077","520673.200448","521457.046467","522233.482312"
"Mixed","Both","cave","22","F_ball.wav","None","721.244765766","123","515307.21583","522223.631554","522990.238592","523756.879948","509874.035391","510640.246074","511406.944008","512173.582272","516073.50566","516839.734893","517606.735504","518373.418907","519140.463111","519906.572077","520673.200448","521457.046467","522999.794711"
"Mixed","Both","cave","22","M_cave.wav","space","481.445194135","123","515307.21583","522223.631554","522990.238592","523756.879948","524523.551603","510640.246074","511406.944008","512173.582272","516073.50566","516839.734893","517606.735504","518373.418907","519140.463111","519906.572077","520673.200448","521457.046467","523766.823457"
"Mixed","Both","cave","22","M_knife.wav","space","627.000326494","123","515307.21583","522223.631554","522990.238592","523756.879948","524523.551603","525289.78671","511406.944008","512173.582272","516073.50566","516839.734893","517606.735504","518373.418907","519140.463111","519906.572077","520673.200448","521457.046467","524533.240974"
"Mixed","Both","cave","22","M_knife.wav","None","724.397366866","123","515307.21583","522223.631554","522990.238592","523756.879948","524523.551603","525289.78671","526056.641702","512173.582272","516073.50566","516839.734893","517606.735504","518373.418907","519140.463111","519906.572077","520673.200448","521457.046467","525299.427542"
"Mixed","Both","cave","22","M_ball.wav","None","726.442213752","123","515307.21583","522223.631554","522990.238592","523756.879948","524523.551603","525289.78671","526056.641702","526823.134348","516073.50566","516839.734893","517606.735504","518373.418907","519140.463111","519906.572077","520673.200448","521457.046467","526065.979857"
"Mixed","Both","done","44","F_jaw.wav","None","729.323673237","123","529956.369077","522223.631554","522990.238592","523756.879948","524523.551603","525289.78671","526056.641702","526823.134348","516073.50566","516839.734893","517606.735504","518373.418907","519140.463111","519906.572077","520673.200448","521457.046467","526832.420871"
"Mixed","Both","done","44","M_cave.wav","None","725.209555065","123","529956.369077","522223.631554","522990.238592","523756.879948","524523.551603","525289.78671","526056.641702","526823.134348","530722.938087","516839.734893","517606.735504","518373.418907","519140.463111","519906.572077","520673.200448","521457.046467","529965.68528"
"Mixed","Both","done","44","M_done.wav","None","726.179419697","123","529956.369077","522223.631554","522990.238592","523756.879948","524523.551603","525289.78671","526056.641702","526823.134348","530722.938087","531490.047216","517606.735504","518373.418907","519140.463111","519906.572077","520673.200448","521457.046467","530732.680326"
"Mixed","Both","done","44","F_cad.wav","space","612.807901882","123","529956.369077","522223.631554","522990.238592","523756.879948","524523.551603","525289.78671","526056.641702","526823.134348","530722.938087","531490.047216","532256.297473","518373.418907","519140.463111","519906.572077","520673.200448","521457.046467","531499.199251"
"Mixed","Both","done","44","F_cling.wav","None","728.536218579","123","529956.369077","522223.631554","522990.238592","523756.879948","524523.551603","525289.78671","526056.641702","526823.134348","530722.938087","531490.047216","532256.297473","533022.783008","519140.463111","519906.572077","520673.200448","521457.046467","532265.728997"
"Mixed","Both","done","44","F_cad.wav","None","730.501918079","123","529956.369077","522223.631554","522990.238592","523756.879948","524523.551603","525289.78671","526056.641702","526823.134348","530722.938087","531490.047216","532256.297473","533022.783008","533789.523298","519906.572077","520673.200448","521457.046467","533032.173721"
"Mixed","Both","done","44","M_park.wav","None","732.369920035","123","529956.369077","522223.631554","522990.238592","523756.879948","524523.551603","525289.78671","526056.641702","526823.134348","530722.938087","531490.047216","532256.297473","533022.783008","533789.523298","534556.046551","520673.200448","521457.046467","533798.846922"
"Mixed","Both","done","44","F_romp.wav","None","734.58048176","123","529956.369077","522223.631554","522990.238592","523756.879948","524523.551603","525289.78671","526056.641702","526823.134348","530722.938087","531490.047216","532256.297473","533022.783008","533789.523298","534556.046551","535322.937098","521457.046467","534565.484258"
"Mixed","Both","done","44","F_done.wav","None","727.941994861","123","529956.369077","522223.631554","522990.238592","523756.879948","524523.551603","525289.78671","526056.641702","526823.134348","530722.938087","531490.047216","532256.297473","533022.783008","533789.523298","534556.046551","535322.937098","536106.332038","535340.117336"
"Mixed","Both","done","44","M_cad.wav","space","515.37994454","123","529956.369077","536873.052851","522990.238592","523756.879948","524523.551603","525289.78671","526056.641702","526823.134348","530722.938087","531490.047216","532256.297473","533022.783008","533789.523298","534556.046551","535322.937098","536106.332038","536116.514226"
"Mixed","Both","done","44","M_priest.wav","None","720.813474341","123","529956.369077","536873.052851","537639.676275","523756.879948","524523.551603","525289.78671","526056.641702","526823.134348","530722.938087","531490.047216","532256.297473","533022.783008","533789.523298","534556.046551","535322.937098","536106.332038","536883.458877"
"Mixed","Both","done","44","F_cave.wav","None","722.203500292","123","529956.369077","536873.052851","537639.676275","538406.296298","524523.551603","525289.78671","526056.641702","526823.134348","530722.938087","531490.047216","532256.297473","533022.783008","533789.523298","534556.046551","535322.937098","536106.332038","537650.15341"
"Mixed","Both","done","44","M_done.wav","None","725.345589643","123","529956.369077","536873.052851","537639.676275","538406.296298","539172.722472","525289.78671","526056.641702","526823.134348","530722.938087","531490.047216","532256.297473","533022.783008","533789.523298","534556.046551","535322.937098","536106.332038","538415.584367"
"Mixed","Both","done","44","M_cling.wav","space","513.474533087","123","529956.369077","536873.052851","537639.676275","538406.296298","539172.722472","539939.837785","526056.641702","526823.134348","530722.938087","531490.047216","532256.297473","533022.783008","533789.523298","534556.046551","535322.937098","536106.332038","539182.316619"
"Mixed","Both","done","44","F_done.wav","None","726.210027482","123","529956.369077","536873.052851","537639.676275","538406.296298","539172.722472","539939.837785","540706.039811","526823.134348","530722.938087","531490.047216","532256.297473","533022.783008","533789.523298","534556.046551","535322.937098","536106.332038","539950.217841"
"Mixed","Both","done","44","M_bluff.wav","space","548.076780382","123","529956.369077","536873.052851","537639.676275","538406.296298","539172.722472","539939.837785","540706.039811","541472.666945","530722.938087","531490.047216","532256.297473","533022.783008","533789.523298","534556.046551","535322.937098","536106.332038","540715.643542"
"Mixed","Both","cave","17","M_reek.wav","None","729.538546017","123","544606.342241","536873.052851","537639.676275","538406.296298","539172.722472","539939.837785","540706.039811","541472.666945","530722.938087","531490.047216","532256.297473","533022.783008","533789.523298","534556.046551","535322.937098","536106.332038","541482.264184"
"Mixed","Both","cave","17","F_cave.wav","None","723.19717097","123","544606.342241","536873.052851","537639.676275","538406.296298","539172.722472","539939.837785","540706.039811","541472.666945","545372.672572","531490.047216","532256.297473","533022.783008","533789.523298","534556.046551","535322.937098","536106.332038","544616.341709"
"Mixed","Both","cave","17","M_reek.wav","None","725.844589164","123","544606.342241","536873.052851","537639.676275","538406.296298","539172.722472","539939.837785","540706.039811","541472.666945","545372.672572","546139.216849","532256.297473","533022.783008","533789.523298","534556.046551","535322.937098","536106.332038","545382.242295"
"Mixed","Both","cave","17","F_ball.wav","space","74.4523371977","123","544606.342241","536873.052851","537639.676275","538406.296298","539172.722472","539939.837785","540706.039811","541472.666945","545372.672572","546139.216849","546905.845529","533022.783008","533789.523298","534556.046551","535322.937098","536106.332038","546149.139334"
"Mixed","Both","cave","17","F_cling.wav","None","727.243890185","123","544606.342241","536873.052851","537639.676275","538406.296298","539172.722472","539939.837785","540706.039811","541472.666945","545372.672572","546139.216849","546905.845529","547672.46277","533789.523298","534556.046551","535322.937098","536106.332038","546915.499346"
"Mixed","Both","cave","17","F_park.wav","None","728.919279558","123","544606.342241","536873.052851","537639.676275","538406.296298","539172.722472","539939.837785","540706.039811","541472.666945","545372.672572","546139.216849","546905.845529","547672.46277","548439.091141","534556.046551","535322.937098","536106.332038","547682.02229"
"Mixed","Both","cave","17","M_cave.wav","None","730.256746698","123","544606.342241","536873.052851","537639.676275","538406.296298","539172.722472","539939.837785","540706.039811","541472.666945","545372.672572","546139.216849","546905.845529","547672.46277","548439.091141","549205.628307","535322.937098","536106.332038","548448.737847"
"Mixed","Both","cave","17","F_knife.wav","space","631.889223339","123","544606.342241","536873.052851","537639.676275","538406.296298","539172.722472","539939.837785","540706.039811","541472.666945","545372.672572","546139.216849","546905.845529","547672.46277","548439.091141","549205.628307","549972.409716","536106.332038","549215.597785"
"Mixed","Both","cave","17","M_jaw.wav","None","732.968162964","123","544606.342241","536873.052851","537639.676275","538406.296298","539172.722472","539939.837785","540706.039811","541472.666945","545372.672572","546139.216849","546905.845529","547672.46277","548439.091141","549205.628307","549972.409716","550739.675595","549982.128768"
"Mixed","Both","cave","17","F_cave.wav","None","734.049019433","123","544606.342241","551522.798775","537639.676275","538406.296298","539172.722472","539939.837785","540706.039811","541472.666945","545372.672572","546139.216849","546905.845529","547672.46277","548439.091141","549205.628307","549972.409716","550739.675595","550749.501928"
"Mixed","Both","cave","17","F_reek.wav","space","674.526476039","123","544606.342241","551522.798775","552289.402103","538406.296298","539172.722472","539939.837785","540706.039811","541472.666945","545372.672572","546139.216849","546905.845529","547672.46277","548439.091141","549205.628307","549972.409716","550739.675595","551532.929022"
"Mixed","Both","cave","17","M_cave.wav","None","719.705720127","123","544606.342241","551522.798775","552289.402103","553055.9875","539172.722472","539939.837785","540706.039811","541472.666945","545372.672572","546139.216849","546905.845529","547672.46277","548439.091141","549205.628307","549972.409716","550739.675595","552299.558939"
"Mixed","Both","cave","17","M_bluff.wav","None","721.856612145","123","544606.342241","551522.798775","552289.402103","553055.9875","553822.277639","539939.837785","540706.039811","541472.666945","545372.672572","546139.216849","546905.845529","547672.46277","548439.091141","549205.628307","549972.409716","550739.675595","553066.257182"
"Mixed","Both","cave","17","F_depth.wav","None","724.420554587","123","544606.342241","551522.798775","552289.402103","553055.9875","553822.277639","554589.192919","540706.039811","541472.666945","545372.672572","546139.216849","546905.845529","547672.46277","548439.091141","549205.628307","549972.409716","550739.675595","553832.098407"
"Mixed","Both","cave","17","M_romp.wav","None","725.847062524","123","544606.342241","551522.798775","552289.402103","553055.9875","553822.277639","554589.192919","555355.748944","541472.666945","545372.672572","546139.216849","546905.845529","547672.46277","548439.091141","549205.628307","549972.409716","550739.675595","554598.862813"
"Mixed","Both","cave","17","M_tile.wav","None","727.713518616","123","544606.342241","551522.798775","552289.402103","553055.9875","553822.277639","554589.192919","555355.748944","556122.236643","545372.672572","546139.216849","546905.845529","547672.46277","548439.091141","549205.628307","549972.409716","550739.675595","555365.826014"
"Mixed","Both","ball","12","M_jolt.wav","None","730.249326618","123","559255.597513","551522.798775","552289.402103","553055.9875","553822.277639","554589.192919","555355.748944","556122.236643","545372.672572","546139.216849","546905.845529","547672.46277","548439.091141","549205.628307","549972.409716","550739.675595","556132.142742"
"Mixed","Both","ball","12","F_greet.wav","None","723.392256914","123","559255.597513","551522.798775","552289.402103","553055.9875","553822.277639","554589.192919","555355.748944","556122.236643","560021.615274","546139.216849","546905.845529","547672.46277","548439.091141","549205.628307","549972.409716","550739.675595","559265.63841"
"Mixed","Both","ball","12","M_ball.wav","None","730.12967805","123","559255.597513","551522.798775","552289.402103","553055.9875","553822.277639","554589.192919","555355.748944","556122.236643","560021.615274","560788.730278","546905.845529","547672.46277","548439.091141","549205.628307","549972.409716","550739.675595","560030.45814"
"Mixed","Both","ball","12","F_romp.wav","space","536.838160915","123","559255.597513","551522.798775","552289.402103","553055.9875","553822.277639","554589.192919","555355.748944","556122.236643","560021.615274","560788.730278","561555.123371","547672.46277","548439.091141","549205.628307","549972.409716","550739.675595","560798.287016"
"Mixed","Both","ball","12","M_reek.wav","None","731.640898419","123","559255.597513","551522.798775","552289.402103","553055.9875","553822.277639","554589.192919","555355.748944","556122.236643","560021.615274","560788.730278","561555.123371","562322.036178","548439.091141","549205.628307","549972.409716","550739.675595","561564.67578"
"Mixed","Both","ball","12","M_knife.wav","None","733.635350683","123","559255.597513","551522.798775","552289.402103","553055.9875","553822.277639","554589.192919","555355.748944","556122.236643","560021.615274","560788.730278","561555.123371","562322.036178","563088.970317","549205.628307","549972.409716","550739.675595","562331.580858"
"Mixed","Both","ball","12","F_ball.wav","None","735.363608037","123","559255.597513","551522.798775","552289.402103","553055.9875","553822.277639","554589.192919","555355.748944","556122.236643","560021.615274","560788.730278","561555.123371","562322.036178","563088.970317","563872.346398","549972.409716","550739.675595","563098.622279"
"Mixed","Both","ball","12","F_cad.wav","space","636.341882069","123","559255.597513","551522.798775","552289.402103","553055.9875","553822.277639","554589.192919","555355.748944","556122.236643","560021.615274","560788.730278","561555.123371","562322.036178","563088.970317","563872.346398","564639.10493","550739.675595","563882.72058"
"Mixed","Both","ball","12","F_reek.wav","None","721.814874269","123","559255.597513","551522.798775","552289.402103","553055.9875","553822.277639","554589.192919","555355.748944","556122.236643","560021.615274","560788.730278","561555.123371","562322.036178","563088.970317","563872.346398","564639.10493","565405.841201","564648.977948"
"Mixed","Both","ball","12","F_ball.wav","None","723.323930462","123","559255.597513","566171.890497","552289.402103","553055.9875","553822.277639","554589.192919","555355.748944","556122.236643","560021.615274","560788.730278","561555.123371","562322.036178","563088.970317","563872.346398","564639.10493","565405.841201","565416.02648"
"Mixed","Both","ball","12","M_cave.wav","space","369.62694375","123","559255.597513","566171.890497","566938.588122","553055.9875","553822.277639","554589.192919","555355.748944","556122.236643","560021.615274","560788.730278","561555.123371","562322.036178","563088.970317","563872.346398","564639.10493","565405.841201","566181.388183"
"Mixed","Both","ball","12","M_knife.wav","None","726.568354905","123","559255.597513","566171.890497","566938.588122","567705.158369","553822.277639","554589.192919","555355.748944","556122.236643","560021.615274","560788.730278","561555.123371","562322.036178","563088.970317","563872.346398","564639.10493","565405.841201","566948.484018"
"Mixed","Both","ball","12","F_greet.wav","None","728.461399573","123","559255.597513","566171.890497","566938.588122","567705.158369","568471.833115","554589.192919","555355.748944","556122.236643","560021.615274","560788.730278","561555.123371","562322.036178","563088.970317","563872.346398","564639.10493","565405.841201","567714.980374"
"Mixed","Both","ball","12","M_ball.wav","None","731.995515816","123","559255.597513","566171.890497","566938.588122","567705.158369","568471.833115","569238.465505","555355.748944","556122.236643","560021.615274","560788.730278","561555.123371","562322.036178","563088.970317","563872.346398","564639.10493","565405.841201","568481.255982"
"Mixed","Both","ball","12","M_reek.wav","space","430.448617262","123","559255.597513","566171.890497","566938.588122","567705.158369","568471.833115","569238.465505","570005.339975","556122.236643","560021.615274","560788.730278","561555.123371","562322.036178","563088.970317","563872.346398","564639.10493","565405.841201","569248.431892"
"Mixed","Both","ball","12","F_cling.wav","None","733.6990396","123","559255.597513","566171.890497","566938.588122","567705.158369","568471.833115","569238.465505","570005.339975","570788.83014","560021.615274","560788.730278","561555.123371","562322.036178","563088.970317","563872.346398","564639.10493","565405.841201","570015.165072"
"Mixed","Both","tile","28","M_bluff.wav","None","719.037295727","123","573922.068579","566171.890497","566938.588122","567705.158369","568471.833115","569238.465505","570005.339975","570788.83014","560021.615274","560788.730278","561555.123371","562322.036178","563088.970317","563872.346398","564639.10493","565405.841201","570798.735002"
"Mixed","Both","tile","28","M_tile.wav","None","723.589816218","123","573922.068579","566171.890497","566938.588122","567705.158369","568471.833115","569238.465505","570005.339975","570788.83014","574688.335221","560788.730278","561555.123371","562322.036178","563088.970317","563872.346398","564639.10493","565405.841201","573931.893675"
"Mixed","Both","tile","28","M_cad.wav","space","460.440838564","123","573922.068579","566171.890497","566938.588122","567705.158369","568471.833115","569238.465505","570005.339975","570788.83014","574688.335221","575455.196397","561555.123371","562322.036178","563088.970317","563872.346398","564639.10493","565405.841201","574698.277184"
"Mixed","Both","tile","28","F_cad.wav","None","726.692022683","123","573922.068579","566171.890497","566938.588122","567705.158369","568471.833115","569238.465505","570005.339975","570788.83014","574688.335221","575455.196397","576221.114605","562322.036178","563088.970317","563872.346398","564639.10493","565405.841201","575464.848049"
"Mixed","Both","tile","28","F_cling.wav","None","730.075882559","123","573922.068579","566171.890497","566938.588122","567705.158369","568471.833115","569238.465505","570005.339975","570788.83014","574688.335221","575455.196397","576221.114605","576988.286805","563088.970317","563872.346398","564639.10493","565405.841201","576230.349498"
"Mixed","Both","tile","28","M_greet.wav","None","731.591740478","123","573922.068579","566171.890497","566938.588122","567705.158369","568471.833115","569238.465505","570005.339975","570788.83014","574688.335221","575455.196397","576221.114605","576988.286805","577754.300857","563872.346398","564639.10493","565405.841201","576997.959172"
"Mixed","Both","tile","28","M_tile.wav","None","735.314140926","123","573922.068579","566171.890497","566938.588122","567705.158369","568471.833115","569238.465505","570005.339975","570788.83014","574688.335221","575455.196397","576221.114605","576988.286805","577754.300857","578538.810353","564639.10493","565405.841201","577763.516271"
"Mixed","Both","tile","28","M_bluff.wav","space","489.256979199","123","573922.068579","566171.890497","566938.588122","567705.158369","568471.833115","569238.465505","570005.339975","570788.83014","574688.335221","575455.196397","576221.114605","576988.286805","577754.300857","578538.810353","579304.662399","565405.841201","578549.353032"
"Mixed","Both","tile","28","F_tile.wav","None","721.207665425","123","573922.068579","566171.890497","566938.588122","567705.158369","568471.833115","569238.465505","570005.339975","570788.83014","574688.335221","575455.196397","576221.114605","576988.286805","577754.300857","578538.810353","579304.662399","580071.723298","579314.067335"
"Mixed","Both","tile","28","M_reek.wav","None","722.462584323","123","573922.068579","580838.121338","566938.588122","567705.158369","568471.833115","569238.465505","570005.339975","570788.83014","574688.335221","575455.196397","576221.114605","576988.286805","577754.300857","578538.810353","579304.662399","580071.723298","580081.733897"
"Mixed","Both","tile","28","F_cave.wav","space","62.4751118594","123","573922.068579","580838.121338","581604.741052","567705.158369","568471.833115","569238.465505","570005.339975","570788.83014","574688.335221","575455.196397","576221.114605","576988.286805","577754.300857","578538.810353","579304.662399","580071.723298","580848.090817"
"Mixed","Both","tile","28","F_depth.wav","None","725.499556036","123","573922.068579","580838.121338","581604.741052","582371.390446","568471.833115","569238.465505","570005.339975","570788.83014","574688.335221","575455.196397","576221.114605","576988.286805","577754.300857","578538.810353","579304.662399","580071.723298","581614.749486"
"Mixed","Both","tile","28","M_reek.wav","None","728.202315557","123","573922.068579","580838.121338","581604.741052","582371.390446","583138.052208","569238.465505","570005.339975","570788.83014","574688.335221","575455.196397","576221.114605","576988.286805","577754.300857","578538.810353","579304.662399","580071.723298","582381.019839"
"Mixed","Both","tile","28","F_tile.wav","None","730.55478606","123","573922.068579","580838.121338","581604.741052","582371.390446","583138.052208","583904.32256","570005.339975","570788.83014","574688.335221","575455.196397","576221.114605","576988.286805","577754.300857","578538.810353","579304.662399","580071.723298","583147.510011"
"Mixed","Both","tile","28","F_ball.wav","space","532.502677408","123","573922.068579","580838.121338","581604.741052","582371.390446","583138.052208","583904.32256","584671.303384","570788.83014","574688.335221","575455.196397","576221.114605","576988.286805","577754.300857","578538.810353","579304.662399","580071.723298","583913.943605"
"Mixed","Both","tile","28","F_depth.wav","None","733.627930618","123","573922.068579","580838.121338","581604.741052","582371.390446","583138.052208","583904.32256","584671.303384","585437.55024","574688.335221","575455.196397","576221.114605","576988.286805","577754.300857","578538.810353","579304.662399","580071.723298","584680.71203"
"Mixed","Both","tile","25","M_ball.wav","None","735.969580201","123","588588.243769","580838.121338","581604.741052","582371.390446","583138.052208","583904.32256","584671.303384","585437.55024","574688.335221","575455.196397","576221.114605","576988.286805","577754.300857","578538.810353","579304.662399","580071.723298","585446.941263"
"Mixed","Both","tile","25","F_jolt.wav","None","723.161925664","123","588588.243769","580838.121338","581604.741052","582371.390446","583138.052208","583904.32256","584671.303384","585437.55024","589354.51103","575455.196397","576221.114605","576988.286805","577754.300857","578538.810353","579304.662399","580071.723298","588598.412353"
"Mixed","Both","tile","25","M_tile.wav","None","726.0993448","123","588588.243769","580838.121338","581604.741052","582371.390446","583138.052208","583904.32256","584671.303384","585437.55024","589354.51103","590120.701308","576221.114605","576988.286805","577754.300857","578538.810353","579304.662399","580071.723298","589364.475562"
"Mixed","Both","tile","25","F_park.wav","space","444.526030828","123","588588.243769","580838.121338","581604.741052","582371.390446","583138.052208","583904.32256","584671.303384","585437.55024","589354.51103","590120.701308","590887.825277","576988.286805","577754.300857","578538.810353","579304.662399","580071.723298","590129.754717"
"Mixed","Both","tile","25","M_priest.wav","None","729.664996325","123","588588.243769","580838.121338","581604.741052","582371.390446","583138.052208","583904.32256","584671.303384","585437.55024","589354.51103","590120.701308","590887.825277","591654.35997","577754.300857","578538.810353","579304.662399","580071.723298","590897.463326"
"Mixed","Both","tile","25","M_tile.wav","None","732.747106784","123","588588.243769","580838.121338","581604.741052","582371.390446","583138.052208","583904.32256","584671.303384","585437.55024","589354.51103","590120.701308","590887.825277","591654.35997","592421.052648","578538.810353","579304.662399","580071.723298","591663.647111"
"Mixed","Both","tile","25","F_gnash.wav","space","591.334845376","123","588588.243769","580838.121338","581604.741052","582371.390446","583138.052208","583904.32256","584671.303384","585437.55024","589354.51103","590120.701308","590887.825277","591654.35997","592421.052648","593187.325783","579304.662399","580071.723298","592430.857648"
"Mixed","Both","tile","25","F_gnash.wav","None","735.995241266","123","588588.243769","580838.121338","581604.741052","582371.390446","583138.052208","583904.32256","584671.303384","585437.55024","589354.51103","590120.701308","590887.825277","591654.35997","592421.052648","593187.325783","593971.348647","580071.723298","593196.6593"
"Mixed","Both","tile","25","F_romp.wav","None","719.408917445","123","588588.243769","580838.121338","581604.741052","582371.390446","583138.052208","583904.32256","584671.303384","585437.55024","589354.51103","590120.701308","590887.825277","591654.35997","592421.052648","593187.325783","593971.348647","594738.117071","593981.83753"
"Mixed","Both","tile","25","M_cling.wav","None","722.575740336","123","588588.243769","595504.394226","581604.741052","582371.390446","583138.052208","583904.32256","584671.303384","585437.55024","589354.51103","590120.701308","590887.825277","591654.35997","592421.052648","593187.325783","593971.348647","594738.117071","594747.824684"
"Mixed","Both","tile","25","F_tile.wav","None","724.839170041","123","588588.243769","595504.394226","596270.988279","582371.390446","583138.052208","583904.32256","584671.303384","585437.55024","589354.51103","590120.701308","590887.825277","591654.35997","592421.052648","593187.325783","593971.348647","594738.117071","595514.118224"
"Mixed","Both","tile","25","M_done.wav","space","525.056949016","123","588588.243769","595504.394226","596270.988279","597037.249047","583138.052208","583904.32256","584671.303384","585437.55024","589354.51103","590120.701308","590887.825277","591654.35997","592421.052648","593187.325783","593971.348647","594738.117071","596281.003515"
"Mixed","Both","tile","25","F_tile.wav","None","727.814926198","123","588588.243769","595504.394226","596270.988279","597037.249047","597804.494829","583904.32256","584671.303384","585437.55024","589354.51103","590120.701308","590887.825277","591654.35997","592421.052648","593187.325783","593971.348647","594738.117071","597046.890806"
"Mixed","Both","tile","25","F_greet.wav","space","592.001105586","123","588588.243769","595504.394226","596270.988279","597037.249047","597804.494829","598570.954703","584671.303384","585437.55024","589354.51103","590120.701308","590887.825277","591654.35997","592421.052648","593187.325783","593971.348647","594738.117071","597814.095778"
"Mixed","Both","tile","25","M_dime.wav","None","731.052858086","123","588588.243769","595504.394226","596270.988279","597037.249047","597804.494829","598570.954703","599337.523095","585437.55024","589354.51103","590120.701308","590887.825277","591654.35997","592421.052648","593187.325783","593971.348647","594738.117071","598580.241536"
"Mixed","Both","tile","25","M_greet.wav","None","733.173451488","123","588588.243769","595504.394226","596270.988279","597037.249047","597804.494829","598570.954703","599337.523095","600120.598354","589354.51103","590120.701308","590887.825277","591654.35997","592421.052648","593187.325783","593971.348647","594738.117071","599347.220195"
"Mixed","Both","ball","2","F_priest.wav","None","719.483118111","123","603253.832156","595504.394226","596270.988279","597037.249047","597804.494829","598570.954703","599337.523095","600120.598354","589354.51103","590120.701308","590887.825277","591654.35997","592421.052648","593187.325783","593971.348647","594738.117071","600130.380476"
"Mixed","Both","ball","2","M_cave.wav","None","725.782755268","123","603253.832156","595504.394226","596270.988279","597037.249047","597804.494829","598570.954703","599337.523095","600120.598354","604020.773097","590120.701308","590887.825277","591654.35997","592421.052648","593187.325783","593971.348647","594738.117071","603262.963167"
"Mixed","Both","ball","2","M_done.wav","None","727.00613887","123","603253.832156","595504.394226","596270.988279","597037.249047","597804.494829","598570.954703","599337.523095","600120.598354","604020.773097","604787.902322","590887.825277","591654.35997","592421.052648","593187.325783","593971.348647","594738.117071","604030.751232"
"Mixed","Both","ball","2","M_ball.wav","None","730.336821594","123","603253.832156","595504.394226","596270.988279","597037.249047","597804.494829","598570.954703","599337.523095","600120.598354","604020.773097","604787.902322","605554.185351","591654.35997","592421.052648","593187.325783","593971.348647","594738.117071","604797.127012"
"Mixed","Both","ball","2","F_jaw.wav","space","466.52065622","123","603253.832156","595504.394226","596270.988279","597037.249047","597804.494829","598570.954703","599337.523095","600120.598354","604020.773097","604787.902322","605554.185351","606320.868136","592421.052648","593187.325783","593971.348647","594738.117071","605563.27988"
"Mixed","Both","ball","2","M_greet.wav","None","731.859790409","123","603253.832156","595504.394226","596270.988279","597037.249047","597804.494829","598570.954703","599337.523095","600120.598354","604020.773097","604787.902322","605554.185351","606320.868136","607087.151164","593187.325783","593971.348647","594738.117071","606330.695396"
"Mixed","Both","ball","2","F_ball.wav","None","734.508136113","123","603253.832156","595504.394226","596270.988279","597037.249047","597804.494829","598570.954703","599337.523095","600120.598354","604020.773097","604787.902322","605554.185351","606320.868136","607087.151164","607871.029955","593971.348647","594738.117071","607097.051698"
"Mixed","Both","ball","2","M_jaw.wav","space","404.737774821","123","603253.832156","595504.394226","596270.988279","597037.249047","597804.494829","598570.954703","599337.523095","600120.598354","604020.773097","604787.902322","605554.185351","606320.868136","607087.151164","607871.029955","608638.143413","594738.117071","607881.028805"
