"Condition","Talker","Target","Trial","current_stimulus","response_response","response_time_response","subject_nr","time_Audio1","time_Audio10","time_Audio11","time_Audio12","time_Audio13","time_Audio14","time_Audio15","time_Audio16","time_Audio2","time_Audio3","time_Audio4","time_Audio5","time_Audio6","time_Audio7","time_Audio8","time_Audio9","time_response"
"Blocked","Male","done","23","M_romp.wav","NA","NA","225","78360.9519575","NA","NA","NA","NA","NA","NA","NA","NA","NA","NA","NA","NA","NA","NA","NA","NA"
"Blocked","Male","done","23","M_done.wav","None","716.695027775","225","78360.9519575","NA","NA","NA","NA","NA","NA","NA","79110.5559114","NA","NA","NA","NA","NA","NA","NA","78375.578147"
"Blocked","Male","done","23","M_gnash.wav","None","736.314613314","225","78360.9519575","NA","NA","NA","NA","NA","NA","NA","79110.5559114","79877.2263294","NA","NA","NA","NA","NA","NA","79120.566819"
"Blocked","Male","done","23","M_knife.wav","space","28.5703508998","225","78360.9519575","NA","NA","NA","NA","NA","NA","NA","79110.5559114","79877.2263294","80643.8278025","NA","NA","NA","NA","NA","79886.4612215"
"Blocked","Male","done","23","M_done.wav","None","732.957032858","225","78360.9519575","NA","NA","NA","NA","NA","NA","NA","79110.5559114","79877.2263294","80643.8278025","81410.1683366","NA","NA","NA","NA","80653.1245285"
"Blocked","Male","done","23","M_lash.wav","space","543.584238738","225","78360.9519575","NA","NA","NA","NA","NA","NA","NA","79110.5559114","79877.2263294","80643.8278025","81410.1683366","82176.7160143","NA","NA","NA","81419.3627276"
"Blocked","Male","done","23","M_dime.wav","None","730.489551323","225","78360.9519575","NA","NA","NA","NA","NA","NA","NA","79110.5559114","79877.2263294","80643.8278025","81410.1683366","82176.7160143","82943.6640664","NA","NA","82185.6847114"
"Blocked","Male","done","23","M_reek.wav","None","728.256111091","225","78360.9519575","NA","NA","NA","NA","NA","NA","NA","79110.5559114","79877.2263294","80643.8278025","81410.1683366","82176.7160143","82943.6640664","83710.3536528","NA","82952.5817506"
"Blocked","Male","done","23","M_done.wav","None","725.617658754","225","78360.9519575","NA","NA","NA","NA","NA","NA","NA","79110.5559114","79877.2263294","80643.8278025","81410.1683366","82176.7160143","82943.6640664","83710.3536528","84477.602836","83720.0176722"
"Blocked","Male","done","23","M_depth.wav","space","507.446655887","225","78360.9519575","85244.5017301","NA","NA","NA","NA","NA","NA","79110.5559114","79877.2263294","80643.8278025","81410.1683366","82176.7160143","82943.6640664","83710.3536528","84477.602836","84487.4563762"
"Blocked","Male","done","23","M_cad.wav","None","720.975479111","225","78360.9519575","85244.5017301","85994.2627421","NA","NA","NA","NA","NA","79110.5559114","79877.2263294","80643.8278025","81410.1683366","82176.7160143","82943.6640664","83710.3536528","84477.602836","85253.9017188"
"Blocked","Male","done","23","M_cling.wav","None","735.977309465","225","78360.9519575","85244.5017301","85994.2627421","86760.6734577","NA","NA","NA","NA","79110.5559114","79877.2263294","80643.8278025","81410.1683366","82176.7160143","82943.6640664","83710.3536528","84477.602836","86003.2833798"
"Blocked","Male","done","23","M_cling.wav","None","733.490968531","225","78360.9519575","85244.5017301","85994.2627421","86760.6734577","87527.4196221","NA","NA","NA","79110.5559114","79877.2263294","80643.8278025","81410.1683366","82176.7160143","82943.6640664","83710.3536528","84477.602836","86770.3473705"
"Blocked","Male","done","23","M_done.wav","None","731.259383319","225","78360.9519575","85244.5017301","85994.2627421","86760.6734577","87527.4196221","88294.3185163","NA","NA","79110.5559114","79877.2263294","80643.8278025","81410.1683366","82176.7160143","82943.6640664","83710.3536528","84477.602836","87536.9216367"
"Blocked","Male","done","23","M_gnash.wav","space","419.22112793","225","78360.9519575","85244.5017301","85994.2627421","86760.6734577","87527.4196221","88294.3185163","89060.7814815","NA","79110.5559114","79877.2263294","80643.8278025","81410.1683366","82176.7160143","82943.6640664","83710.3536528","84477.602836","88303.547225"
"Blocked","Male","done","23","M_lash.wav","None","727.400948294","225","78360.9519575","85244.5017301","85994.2627421","86760.6734577","87527.4196221","88294.3185163","89060.7814815","89827.2691803","79110.5559114","79877.2263294","80643.8278025","81410.1683366","82176.7160143","82943.6640664","83710.3536528","84477.602836","89070.1734317"
"Blocked","Male","cave","10","M_ball.wav","None","725.505430251","225","93010.9653136","85244.5017301","85994.2627421","86760.6734577","87527.4196221","88294.3185163","89060.7814815","89827.2691803","79110.5559114","79877.2263294","80643.8278025","81410.1683366","82176.7160143","82943.6640664","83710.3536528","84477.602836","89836.7619197"
"Blocked","Male","cave","10","M_cave.wav","None","720.872216509","225","93010.9653136","85244.5017301","85994.2627421","86760.6734577","87527.4196221","88294.3185163","89060.7814815","89827.2691803","93760.6542892","79877.2263294","80643.8278025","81410.1683366","82176.7160143","82943.6640664","83710.3536528","84477.602836","93020.6797277"
"Blocked","Male","cave","10","M_bluff.wav","space","313.027906872","225","93010.9653136","85244.5017301","85994.2627421","86760.6734577","87527.4196221","88294.3185163","89060.7814815","89827.2691803","93760.6542892","94527.205986","80643.8278025","81410.1683366","82176.7160143","82943.6640664","83710.3536528","84477.602836","93769.5756835"
"Blocked","Male","cave","10","M_dime.wav","None","734.139296925","225","93010.9653136","85244.5017301","85994.2627421","86760.6734577","87527.4196221","88294.3185163","89060.7814815","89827.2691803","93760.6542892","94527.205986","95294.2944011","81410.1683366","82176.7160143","82943.6640664","83710.3536528","84477.602836","94536.422328"
"Blocked","Male","cave","10","M_cave.wav","None","731.523414026","225","93010.9653136","85244.5017301","85994.2627421","86760.6734577","87527.4196221","88294.3185163","89060.7814815","89827.2691803","93760.6542892","94527.205986","95294.2944011","96060.6015449","82176.7160143","82943.6640664","83710.3536528","84477.602836","95303.6118415"
"Blocked","Male","cave","10","M_ball.wav","space","388.506995921","225","93010.9653136","85244.5017301","85994.2627421","86760.6734577","87527.4196221","88294.3185163","89060.7814815","89827.2691803","93760.6542892","94527.205986","95294.2944011","96060.6015449","96826.7510122","82943.6640664","83710.3536528","84477.602836","96070.0676957"
"Blocked","Male","cave","10","M_done.wav","None","728.479022218","225","93010.9653136","85244.5017301","85994.2627421","86760.6734577","87527.4196221","88294.3185163","89060.7814815","89827.2691803","93760.6542892","94527.205986","95294.2944011","96060.6015449","96826.7510122","97593.8932227","83710.3536528","84477.602836","96835.6346879"
"Blocked","Male","cave","10","M_dime.wav","None","725.768533477","225","93010.9653136","85244.5017301","85994.2627421","86760.6734577","87527.4196221","88294.3185163","89060.7814815","89827.2691803","93760.6542892","94527.205986","95294.2944011","96060.6015449","96826.7510122","97593.8932227","98360.8536416","84477.602836","97603.0715369"
"Blocked","Male","cave","10","M_greet.wav","None","722.964366374","225","93010.9653136","85244.5017301","85994.2627421","86760.6734577","87527.4196221","88294.3185163","89060.7814815","89827.2691803","93760.6542892","94527.205986","95294.2944011","96060.6015449","96826.7510122","97593.8932227","98360.8536416","99127.7033779","98370.5519788"
"Blocked","Male","cave","10","M_romp.wav","None","720.649923722","225","93010.9653136","99894.2247761","85994.2627421","86760.6734577","87527.4196221","88294.3185163","89060.7814815","89827.2691803","93760.6542892","94527.205986","95294.2944011","96060.6015449","96826.7510122","97593.8932227","98360.8536416","99127.7033779","99137.6107136"
"Blocked","Male","cave","10","M_cling.wav","None","719.144268369","225","93010.9653136","99894.2247761","100643.541821","86760.6734577","87527.4196221","88294.3185163","89060.7814815","89827.2691803","93760.6542892","94527.205986","95294.2944011","96060.6015449","96826.7510122","97593.8932227","98360.8536416","99127.7033779","99903.9574311"
"Blocked","Male","cave","10","M_cave.wav","None","735.023521585","225","93010.9653136","99894.2247761","100643.541821","101410.295714","87527.4196221","88294.3185163","89060.7814815","89827.2691803","93760.6542892","94527.205986","95294.2944011","96060.6015449","96826.7510122","97593.8932227","98360.8536416","99127.7033779","100652.906564"
"Blocked","Male","cave","10","M_park.wav","space","262.777974305","225","93010.9653136","99894.2247761","100643.541821","101410.295714","102176.914192","88294.3185163","89060.7814815","89827.2691803","93760.6542892","94527.205986","95294.2944011","96060.6015449","96826.7510122","97593.8932227","98360.8536416","99127.7033779","101419.59986"
"Blocked","Male","cave","10","M_done.wav","None","730.547675164","225","93010.9653136","99894.2247761","100643.541821","101410.295714","102176.914192","102943.818651","89060.7814815","89827.2691803","93760.6542892","94527.205986","95294.2944011","96060.6015449","96826.7510122","97593.8932227","98360.8536416","99127.7033779","102186.515141"
"Blocked","Male","cave","10","M_cave.wav","None","728.971220029","225","93010.9653136","99894.2247761","100643.541821","101410.295714","102176.914192","102943.818651","103710.225347","89827.2691803","93760.6542892","94527.205986","95294.2944011","96060.6015449","96826.7510122","97593.8932227","98360.8536416","99127.7033779","102952.828777"
"Blocked","Male","cave","10","M_knife.wav","space","322.779421171","225","93010.9653136","99894.2247761","100643.541821","101410.295714","102176.914192","102943.818651","103710.225347","104477.364157","93760.6542892","94527.205986","95294.2944011","96060.6015449","96826.7510122","97593.8932227","98360.8536416","99127.7033779","103719.525783"
"Blocked","Male","cave","8","M_gnash.wav","None","723.489954486","225","107593.876837","99894.2247761","100643.541821","101410.295714","102176.914192","102943.818651","103710.225347","104477.364157","93760.6542892","94527.205986","95294.2944011","96060.6015449","96826.7510122","97593.8932227","98360.8536416","99127.7033779","104487.047963"
"Blocked","Male","cave","8","M_knife.wav","None","720.293142134","225","107593.876837","99894.2247761","100643.541821","101410.295714","102176.914192","102943.818651","103710.225347","104477.364157","108343.744821","94527.205986","95294.2944011","96060.6015449","96826.7510122","97593.8932227","98360.8536416","99127.7033779","107603.965037"
"Blocked","Male","cave","8","M_romp.wav","None","735.70245778","225","107593.876837","99894.2247761","100643.541821","101410.295714","102176.914192","102943.818651","103710.225347","104477.364157","108343.744821","109110.139151","95294.2944011","96060.6015449","96826.7510122","97593.8932227","98360.8536416","99127.7033779","108352.953125"
"Blocked","Male","cave","8","M_knife.wav","None","733.381831727","225","107593.876837","99894.2247761","100643.541821","101410.295714","102176.914192","102943.818651","103710.225347","104477.364157","108343.744821","109110.139151","109876.253373","96060.6015449","96826.7510122","97593.8932227","98360.8536416","99127.7033779","109119.696507"
"Blocked","Male","cave","8","M_ball.wav","None","732.57057101","225","107593.876837","99894.2247761","100643.541821","101410.295714","102176.914192","102943.818651","103710.225347","104477.364157","108343.744821","109110.139151","109876.253373","110643.527908","96826.7510122","97593.8932227","98360.8536416","99127.7033779","109885.245258"
"Blocked","Male","cave","8","M_bluff.wav","None","730.058259855","225","107593.876837","99894.2247761","100643.541821","101410.295714","102176.914192","102943.818651","103710.225347","104477.364157","108343.744821","109110.139151","109876.253373","110643.527908","111409.989327","97593.8932227","98360.8536416","99127.7033779","110652.392106"
"Blocked","Male","cave","8","M_reek.wav","None","727.899947786","225","107593.876837","99894.2247761","100643.541821","101410.295714","102176.914192","102943.818651","103710.225347","104477.364157","108343.744821","109110.139151","109876.253373","110643.527908","111409.989327","112176.725599","98360.8536416","99127.7033779","111419.287909"
"Blocked","Male","cave","8","M_cave.wav","None","725.642392354","225","107593.876837","99894.2247761","100643.541821","101410.295714","102176.914192","102943.818651","103710.225347","104477.364157","108343.744821","109110.139151","109876.253373","110643.527908","111409.989327","112176.725599","112944.126275","99127.7033779","112186.209063"
"Blocked","Male","cave","8","M_ball.wav","space","279.852476669","225","107593.876837","99894.2247761","100643.541821","101410.295714","102176.914192","102943.818651","103710.225347","104477.364157","108343.744821","109110.139151","109876.253373","110643.527908","111409.989327","112176.725599","112944.126275","113709.444385","112954.125743"
"Blocked","Male","cave","8","M_cave.wav","None","724.865758617","225","107593.876837","114476.862066","100643.541821","101410.295714","102176.914192","102943.818651","103710.225347","104477.364157","108343.744821","109110.139151","109876.253373","110643.527908","111409.989327","112176.725599","112944.126275","113709.444385","113718.150289"
"Blocked","Male","cave","8","M_ball.wav","space","499.435765727","225","107593.876837","114476.862066","115243.140457","101410.295714","102176.914192","102943.818651","103710.225347","104477.364157","108343.744821","109110.139151","109876.253373","110643.527908","111409.989327","112176.725599","112944.126275","113709.444385","114486.56164"
"Blocked","Male","cave","8","M_tile.wav","None","719.995411928","225","107593.876837","114476.862066","115243.140457","115993.084806","102176.914192","102943.818651","103710.225347","104477.364157","108343.744821","109110.139151","109876.253373","110643.527908","111409.989327","112176.725599","112944.126275","113709.444385","115252.279197"
"Blocked","Male","cave","8","M_cave.wav","None","734.256162948","225","107593.876837","114476.862066","115243.140457","115993.084806","116759.986792","102943.818651","103710.225347","104477.364157","108343.744821","109110.139151","109876.253373","110643.527908","111409.989327","112176.725599","112944.126275","113709.444385","116002.638143"
"Blocked","Male","cave","8","M_cling.wav","space","328.891392506","225","107593.876837","114476.862066","115243.140457","115993.084806","116759.986792","117526.462433","103710.225347","104477.364157","108343.744821","109110.139151","109876.253373","110643.527908","111409.989327","112176.725599","112944.126275","113709.444385","116769.042057"
"Blocked","Male","cave","8","M_cave.wav","None","729.93119125","225","107593.876837","114476.862066","115243.140457","115993.084806","116759.986792","117526.462433","118293.28218","104477.364157","108343.744821","109110.139151","109876.253373","110643.527908","111409.989327","112176.725599","112944.126275","113709.444385","117535.635801"
"Blocked","Male","cave","8","M_gnash.wav","space","426.802890841","225","107593.876837","114476.862066","115243.140457","115993.084806","116759.986792","117526.462433","118293.28218","119059.46071","108343.744821","109110.139151","109876.253373","110643.527908","111409.989327","112176.725599","112944.126275","113709.444385","118303.077287"
"Blocked","Male","tile","15","M_cling.wav","None","726.561553194","225","122193.527104","114476.862066","115243.140457","115993.084806","116759.986792","117526.462433","118293.28218","119059.46071","108343.744821","109110.139151","109876.253373","110643.527908","111409.989327","112176.725599","112944.126275","113709.444385","119068.561731"
"Blocked","Male","tile","15","M_bluff.wav","None","721.3990413","225","122193.527104","114476.862066","115243.140457","115993.084806","116759.986792","117526.462433","118293.28218","119059.46071","122959.564961","109110.139151","109876.253373","110643.527908","111409.989327","112176.725599","112944.126275","113709.444385","122203.94055"
"Blocked","Male","tile","15","M_jolt.wav","None","721.869906411","225","122193.527104","114476.862066","115243.140457","115993.084806","116759.986792","117526.462433","118293.28218","119059.46071","122959.564961","123726.857119","109876.253373","110643.527908","111409.989327","112176.725599","112944.126275","113709.444385","122968.640322"
"Blocked","Male","tile","15","M_reek.wav","None","718.706175219","225","122193.527104","114476.862066","115243.140457","115993.084806","116759.986792","117526.462433","118293.28218","119059.46071","122959.564961","123726.857119","124476.144174","110643.527908","111409.989327","112176.725599","112944.126275","113709.444385","123736.82969"
"Blocked","Male","tile","15","M_reek.wav","None","740.66400947","225","122193.527104","114476.862066","115243.140457","115993.084806","116759.986792","117526.462433","118293.28218","119059.46071","122959.564961","123726.857119","124476.144174","125242.869315","111409.989327","112176.725599","112944.126275","113709.444385","124479.904912"
"Blocked","Male","tile","15","M_priest.wav","None","733.711406356","225","122193.527104","114476.862066","115243.140457","115993.084806","116759.986792","117526.462433","118293.28218","119059.46071","122959.564961","123726.857119","124476.144174","125242.869315","126009.532931","112176.725599","112944.126275","113709.444385","125252.205615"
"Blocked","Male","tile","15","M_tile.wav","None","731.794246472","225","122193.527104","114476.862066","115243.140457","115993.084806","116759.986792","117526.462433","118293.28218","119059.46071","122959.564961","123726.857119","124476.144174","125242.869315","126009.532931","126775.794009","112944.126275","113709.444385","126019.093997"
"Blocked","Male","tile","15","M_cad.wav","space","360.498405935","225","122193.527104","114476.862066","115243.140457","115993.084806","116759.986792","117526.462433","118293.28218","119059.46071","122959.564961","123726.857119","124476.144174","125242.869315","126009.532931","126775.794009","127542.983832","113709.444385","126785.136183"
"Blocked","Male","tile","15","M_tile.wav","None","728.225503291","225","122193.527104","114476.862066","115243.140457","115993.084806","116759.986792","117526.462433","118293.28218","119059.46071","122959.564961","123726.857119","124476.144174","125242.869315","126009.532931","126775.794009","127542.983832","128309.591179","127551.894714"
"Blocked","Male","tile","15","M_greet.wav","space","458.904884639","225","122193.527104","129076.496875","115243.140457","115993.084806","116759.986792","117526.462433","118293.28218","119059.46071","122959.564961","123726.857119","124476.144174","125242.869315","126009.532931","126775.794009","127542.983832","128309.591179","128318.668704"
"Blocked","Male","tile","15","M_tile.wav","None","723.192224279","225","122193.527104","129076.496875","129843.274884","115993.084806","116759.986792","117526.462433","118293.28218","119059.46071","122959.564961","123726.857119","124476.144174","125242.869315","126009.532931","126775.794009","127542.983832","128309.591179","129086.476247"
"Blocked","Male","tile","15","M_knife.wav","space","372.176664358","225","122193.527104","129076.496875","129843.274884","130609.147954","116759.986792","117526.462433","118293.28218","119059.46071","122959.564961","123726.857119","124476.144174","125242.869315","126009.532931","126775.794009","127542.983832","128309.591179","129853.346389"
"Blocked","Male","tile","15","M_cad.wav","None","720.965894929","225","122193.527104","129076.496875","129843.274884","130609.147954","131358.961834","117526.462433","118293.28218","119059.46071","122959.564961","123726.857119","124476.144174","125242.869315","126009.532931","126775.794009","127542.983832","128309.591179","130618.431076"
"Blocked","Male","tile","15","M_cad.wav","None","736.686853343","225","122193.527104","129076.496875","129843.274884","130609.147954","131358.961834","132125.499","118293.28218","119059.46071","122959.564961","123726.857119","124476.144174","125242.869315","126009.532931","126775.794009","127542.983832","128309.591179","131367.638675"
"Blocked","Male","tile","15","M_tile.wav","None","734.797209559","225","122193.527104","129076.496875","129843.274884","130609.147954","131358.961834","132125.499","132892.775699","119059.46071","122959.564961","123726.857119","124476.144174","125242.869315","126009.532931","126775.794009","127542.983832","128309.591179","132134.549627"
"Blocked","Male","tile","15","M_knife.wav","space","307.293122343","225","122193.527104","129076.496875","129843.274884","130609.147954","131358.961834","132125.499","132892.775699","133659.401596","122959.564961","123726.857119","124476.144174","125242.869315","126009.532931","126775.794009","127542.983832","128309.591179","132902.160847"
"Blocked","Male","cave","12","M_jolt.wav","None","731.107581058","225","136793.102862","129076.496875","129843.274884","130609.147954","131358.961834","132125.499","132892.775699","133659.401596","122959.564961","123726.857119","124476.144174","125242.869315","126009.532931","126775.794009","127542.983832","128309.591179","133668.706052"
"Blocked","Male","cave","12","M_cave.wav","None","720.619625121","225","136793.102862","129076.496875","129843.274884","130609.147954","131358.961834","132125.499","132892.775699","133659.401596","137559.727832","123726.857119","124476.144174","125242.869315","126009.532931","126775.794009","127542.983832","128309.591179","136802.777393"
"Blocked","Male","cave","12","M_cling.wav","None","718.881474342","225","136793.102862","129076.496875","129843.274884","130609.147954","131358.961834","132125.499","132892.775699","133659.401596","137559.727832","138308.748692","124476.144174","125242.869315","126009.532931","126775.794009","127542.983832","128309.591179","137569.503152"
"Blocked","Male","cave","12","M_priest.wav","None","735.933098185","225","136793.102862","129076.496875","129843.274884","130609.147954","131358.961834","132125.499","132892.775699","133659.401596","137559.727832","138308.748692","139075.364696","125242.869315","126009.532931","126775.794009","127542.983832","128309.591179","138317.394307"
"Blocked","Male","cave","12","M_reek.wav","None","734.102196584","225","136793.102862","129076.496875","129843.274884","130609.147954","131358.961834","132125.499","132892.775699","133659.401596","137559.727832","138308.748692","139075.364696","139842.7292","126009.532931","126775.794009","127542.983832","128309.591179","139084.343905"
"Blocked","Male","cave","12","M_depth.wav","None","731.28689942","225","136793.102862","129076.496875","129843.274884","130609.147954","131358.961834","132125.499","132892.775699","133659.401596","137559.727832","138308.748692","139075.364696","139842.7292","140609.094777","126775.794009","127542.983832","128309.591179","139851.995009"
"Blocked","Male","cave","12","M_romp.wav","None","729.964581493","225","136793.102862","129076.496875","129843.274884","130609.147954","131358.961834","132125.499","132892.775699","133659.401596","137559.727832","138308.748692","139075.364696","139842.7292","140609.094777","141375.281344","127542.983832","128309.591179","140618.365223"
"Blocked","Male","cave","12","M_cave.wav","None","729.287809576","225","136793.102862","129076.496875","129843.274884","130609.147954","131358.961834","132125.499","132892.775699","133659.401596","137559.727832","138308.748692","139075.364696","139842.7292","140609.094777","141375.281344","142142.632553","128309.591179","141384.059284"
"Blocked","Male","cave","12","M_bluff.wav","space","241.086953261","225","136793.102862","129076.496875","129843.274884","130609.147954","131358.961834","132125.499","132892.775699","133659.401596","137559.727832","138308.748692","139075.364696","139842.7292","140609.094777","141375.281344","142142.632553","142908.682777","142152.096849"
"Blocked","Male","cave","12","M_priest.wav","None","725.306015927","225","136793.102862","143676.039861","129843.274884","130609.147954","131358.961834","132125.499","132892.775699","133659.401596","137559.727832","138308.748692","139075.364696","139842.7292","140609.094777","141375.281344","142142.632553","142908.682777","142917.405066"
"Blocked","Male","cave","12","M_cave.wav","None","721.777773986","225","136793.102862","143676.039861","144443.105706","130609.147954","131358.961834","132125.499","132892.775699","133659.401596","137559.727832","138308.748692","139075.364696","139842.7292","140609.094777","141375.281344","142142.632553","142908.682777","143685.54002"
"Blocked","Male","cave","12","M_greet.wav","space","385.466314096","225","136793.102862","143676.039861","144443.105706","145192.238795","131358.961834","132125.499","132892.775699","133659.401596","137559.727832","138308.748692","139075.364696","139842.7292","140609.094777","141375.281344","142142.632553","142908.682777","144447.610306"
"Blocked","Male","cave","12","M_cling.wav","None","734.835237381","225","136793.102862","143676.039861","144443.105706","145192.238795","145959.025152","132125.499","132892.775699","133659.401596","137559.727832","138308.748692","139075.364696","139842.7292","140609.094777","141375.281344","142142.632553","142908.682777","145201.789349"
"Blocked","Male","cave","12","M_cave.wav","None","733.660393453","225","136793.102862","143676.039861","144443.105706","145192.238795","145959.025152","146725.588288","132892.775699","133659.401596","137559.727832","138308.748692","139075.364696","139842.7292","140609.094777","141375.281344","142142.632553","142908.682777","145967.960149"
"Blocked","Male","cave","12","M_jolt.wav","space","305.956891854","225","136793.102862","143676.039861","144443.105706","145192.238795","145959.025152","146725.588288","147492.474506","133659.401596","137559.727832","138308.748692","139075.364696","139842.7292","140609.094777","141375.281344","142142.632553","142908.682777","146735.060622"
"Blocked","Male","cave","12","M_reek.wav","None","729.073864291","225","136793.102862","143676.039861","144443.105706","145192.238795","145959.025152","146725.588288","147492.474506","148258.955094","137559.727832","138308.748692","139075.364696","139842.7292","140609.094777","141375.281344","142142.632553","142908.682777","147501.492361"
"Blocked","Male","tile","18","M_dime.wav","None","727.650757239","225","151392.614003","143676.039861","144443.105706","145192.238795","145959.025152","146725.588288","147492.474506","148258.955094","137559.727832","138308.748692","139075.364696","139842.7292","140609.094777","141375.281344","142142.632553","142908.682777","148268.076212"
"Blocked","Male","tile","18","M_tile.wav","None","720.614060061","225","151392.614003","143676.039861","144443.105706","145192.238795","145959.025152","146725.588288","147492.474506","148258.955094","152159.422311","138308.748692","139075.364696","139842.7292","140609.094777","141375.281344","142142.632553","142908.682777","151402.403854"
"Blocked","Male","tile","18","M_depth.wav","space","263.491537364","225","151392.614003","143676.039861","144443.105706","145192.238795","145959.025152","146725.588288","147492.474506","148258.955094","152159.422311","152908.70411","139075.364696","139842.7292","140609.094777","141375.281344","142142.632553","142908.682777","152169.363964"
"Blocked","Male","tile","18","M_priest.wav","None","734.217207646","225","151392.614003","143676.039861","144443.105706","145192.238795","145959.025152","146725.588288","147492.474506","148258.955094","152159.422311","152908.70411","153675.480264","139842.7292","140609.094777","141375.281344","142142.632553","142908.682777","152918.234259"
"Blocked","Male","tile","18","M_tile.wav","None","732.713716454","225","151392.614003","143676.039861","144443.105706","145192.238795","145959.025152","146725.588288","147492.474506","148258.955094","152159.422311","152908.70411","153675.480264","154442.287335","140609.094777","141375.281344","142142.632553","142908.682777","153685.027726"
"Blocked","Male","tile","18","M_romp.wav","space","317.170777766","225","151392.614003","143676.039861","144443.105706","145192.238795","145959.025152","146725.588288","147492.474506","148258.955094","152159.422311","152908.70411","153675.480264","154442.287335","155208.270778","141375.281344","142142.632553","142908.682777","154451.627035"
"Blocked","Male","tile","18","M_romp.wav","None","736.505989218","225","151392.614003","143676.039861","144443.105706","145192.238795","145959.025152","146725.588288","147492.474506","148258.955094","152159.422311","152908.70411","153675.480264","154442.287335","155208.270778","155974.914607","142142.632553","142908.682777","155211.842304"
"Blocked","Male","tile","18","M_jolt.wav","None","729.589868104","225","151392.614003","143676.039861","144443.105706","145192.238795","145959.025152","146725.588288","147492.474506","148258.955094","152159.422311","152908.70411","153675.480264","154442.287335","155208.270778","155974.914607","156741.780111","142908.682777","155984.161557"
"Blocked","Male","tile","18","M_knife.wav","space","161.937404308","225","151392.614003","143676.039861","144443.105706","145192.238795","145959.025152","146725.588288","147492.474506","148258.955094","152159.422311","152908.70411","153675.480264","154442.287335","155208.270778","155974.914607","156741.780111","157508.546372","156750.809096"
"Blocked","Male","tile","18","M_tile.wav","None","725.361048069","225","151392.614003","158275.55904","144443.105706","145192.238795","145959.025152","146725.588288","147492.474506","148258.955094","152159.422311","152908.70411","153675.480264","154442.287335","155208.270778","155974.914607","156741.780111","157508.546372","157518.360338"
"Blocked","Male","tile","18","M_priest.wav","space","459.155930206","225","151392.614003","158275.55904","159042.448041","145192.238795","145959.025152","146725.588288","147492.474506","148258.955094","152159.422311","152908.70411","153675.480264","154442.287335","155208.270778","155974.914607","156741.780111","157508.546372","158285.503476"
"Blocked","Male","tile","18","M_jolt.wav","None","721.145831572","225","151392.614003","158275.55904","159042.448041","159809.125879","145959.025152","146725.588288","147492.474506","148258.955094","152159.422311","152908.70411","153675.480264","154442.287335","155208.270778","155974.914607","156741.780111","157508.546372","159052.288905"
"Blocked","Male","tile","18","M_tile.wav","None","720.02045461","225","151392.614003","158275.55904","159042.448041","159809.125879","160575.557309","146725.588288","147492.474506","148258.955094","152159.422311","152908.70411","153675.480264","154442.287335","155208.270778","155974.914607","156741.780111","157508.546372","159818.803193"
"Blocked","Male","tile","18","M_done.wav","space","399.126348901","225","151392.614003","158275.55904","159042.448041","159809.125879","160575.557309","161325.077787","147492.474506","148258.955094","152159.422311","152908.70411","153675.480264","154442.287335","155208.270778","155974.914607","156741.780111","157508.546372","160585.496489"
"Blocked","Male","tile","18","M_cave.wav","None","734.237612807","225","151392.614003","158275.55904","159042.448041","159809.125879","160575.557309","161325.077787","162091.974826","148258.955094","152159.422311","152908.70411","153675.480264","154442.287335","155208.270778","155974.914607","156741.780111","157508.546372","161334.408831"
"Blocked","Male","tile","18","M_romp.wav","None","732.349514903","225","151392.614003","158275.55904","159042.448041","159809.125879","160575.557309","161325.077787","162091.974826","162858.454487","152159.422311","152908.70411","153675.480264","154442.287335","155208.270778","155974.914607","156741.780111","157508.546372","162101.414698"
"Blocked","Male","ball","1","M_romp.wav","None","731.061823957","225","165992.240774","158275.55904","159042.448041","159809.125879","160575.557309","161325.077787","162091.974826","162858.454487","152159.422311","152908.70411","153675.480264","154442.287335","155208.270778","155974.914607","156741.780111","157508.546372","162868.069348"
"Blocked","Male","ball","1","M_done.wav","None","721.45283682","225","165992.240774","158275.55904","159042.448041","159809.125879","160575.557309","161325.077787","162091.974826","162858.454487","166758.796799","152908.70411","153675.480264","154442.287335","155208.270778","155974.914607","156741.780111","157508.546372","166002.116265"
"Blocked","Male","ball","1","M_ball.wav","None","719.915336987","225","165992.240774","158275.55904","159042.448041","159809.125879","160575.557309","161325.077787","162091.974826","162858.454487","166758.796799","167508.516691","153675.480264","154442.287335","155208.270778","155974.914607","156741.780111","157508.546372","166768.635499"
"Blocked","Male","ball","1","M_jaw.wav","space","370.17448293","225","165992.240774","158275.55904","159042.448041","159809.125879","160575.557309","161325.077787","162091.974826","162858.454487","166758.796799","167508.516691","168274.901437","154442.287335","155208.270778","155974.914607","156741.780111","157508.546372","167518.209773"
"Blocked","Male","ball","1","M_ball.wav","None","733.759945957","225","165992.240774","158275.55904","159042.448041","159809.125879","160575.557309","161325.077787","162091.974826","162858.454487","166758.796799","167508.516691","168274.901437","169041.390063","155208.270778","155974.914607","156741.780111","157508.546372","168284.70922"
"Blocked","Male","ball","1","M_lash.wav","space","461.787580804","225","165992.240774","158275.55904","159042.448041","159809.125879","160575.557309","161325.077787","162091.974826","162858.454487","166758.796799","167508.516691","168274.901437","169041.390063","169808.236089","155974.914607","156741.780111","157508.546372","169050.551064"
"Blocked","Male","ball","1","M_park.wav","None","730.627131765","225","165992.240774","158275.55904","159042.448041","159809.125879","160575.557309","161325.077787","162091.974826","162858.454487","166758.796799","167508.516691","168274.901437","169041.390063","169808.236089","170574.827978","156741.780111","157508.546372","169817.548892"
"Blocked","Male","ball","1","M_ball.wav","None","734.805247979","225","165992.240774","158275.55904","159042.448041","159809.125879","160575.557309","161325.077787","162091.974826","162858.454487","166758.796799","167508.516691","168274.901437","169041.390063","169808.236089","170574.827978","171341.707085","157508.546372","170578.415581"
"Blocked","Male","ball","1","M_bluff.wav","space","449.49222001","225","165992.240774","158275.55904","159042.448041","159809.125879","160575.557309","161325.077787","162091.974826","162858.454487","166758.796799","167508.516691","168274.901437","169041.390063","169808.236089","170574.827978","171341.707085","172107.702896","171350.822329"
"Blocked","Male","ball","1","M_romp.wav","None","726.31885513","225","165992.240774","172875.258775","159042.448041","159809.125879","160575.557309","161325.077787","162091.974826","162858.454487","166758.796799","167508.516691","168274.901437","169041.390063","169808.236089","170574.827978","171341.707085","172107.702896","172116.768054"
"Blocked","Male","ball","1","M_dime.wav","None","723.25374902","225","165992.240774","172875.258775","173642.104801","159809.125879","160575.557309","161325.077787","162091.974826","162858.454487","166758.796799","167508.516691","168274.901437","169041.390063","169808.236089","170574.827978","171341.707085","172107.702896","172885.049863"
"Blocked","Male","ball","1","M_ball.wav","None","721.436759981","225","165992.240774","172875.258775","173642.104801","174408.507787","160575.557309","161325.077787","162091.974826","162858.454487","166758.796799","167508.516691","168274.901437","169041.390063","169808.236089","170574.827978","171341.707085","172107.702896","173651.909183"
"Blocked","Male","ball","1","M_lash.wav","space","365.907944215","225","165992.240774","172875.258775","173642.104801","174408.507787","175157.977253","161325.077787","162091.974826","162858.454487","166758.796799","167508.516691","168274.901437","169041.390063","169808.236089","170574.827978","171341.707085","172107.702896","174418.280325"
"Blocked","Male","ball","1","M_jolt.wav","None","735.070515366","225","165992.240774","172875.258775","173642.104801","174408.507787","175157.977253","175924.292435","162091.974826","162858.454487","166758.796799","167508.516691","168274.901437","169041.390063","169808.236089","170574.827978","171341.707085","172107.702896","175167.816262"
"Blocked","Male","ball","1","M_bluff.wav","None","734.739085718","225","165992.240774","172875.258775","173642.104801","174408.507787","175157.977253","175924.292435","176691.560477","162858.454487","166758.796799","167508.516691","168274.901437","169041.390063","169808.236089","170574.827978","171341.707085","172107.702896","175933.32513"
"Blocked","Male","ball","1","M_dime.wav","None","732.17421578","225","165992.240774","172875.258775","173642.104801","174408.507787","175157.977253","175924.292435","176691.560477","177457.982632","166758.796799","167508.516691","168274.901437","169041.390063","169808.236089","170574.827978","171341.707085","172107.702896","176701.173174"
"Blocked","Male","tile","16","M_park.wav","None","731.248562399","225","180591.827662","172875.258775","173642.104801","174408.507787","175157.977253","175924.292435","176691.560477","177457.982632","166758.796799","167508.516691","168274.901437","169041.390063","169808.236089","170574.827978","171341.707085","172107.702896","177467.338719"
"Blocked","Male","tile","16","M_cling.wav","None","721.469532","225","180591.827662","172875.258775","173642.104801","174408.507787","175157.977253","175924.292435","176691.560477","177457.982632","181358.387706","167508.516691","168274.901437","169041.390063","169808.236089","170574.827978","171341.707085","172107.702896","180601.709954"
"Blocked","Male","tile","16","M_cling.wav","None","720.557791181","225","180591.827662","172875.258775","173642.104801","174408.507787","175157.977253","175924.292435","176691.560477","177457.982632","181358.387706","182125.021642","168274.901437","169041.390063","169808.236089","170574.827978","171341.707085","172107.702896","181368.18405"
"Blocked","Male","tile","16","M_jolt.wav","None","719.298234791","225","180591.827662","172875.258775","173642.104801","174408.507787","175157.977253","175924.292435","176691.560477","177457.982632","181358.387706","182125.021642","182874.315499","169041.390063","169808.236089","170574.827978","171341.707085","172107.702896","182134.815512"
"Blocked","Male","tile","16","M_tile.wav","None","735.624237859","225","180591.827662","172875.258775","173642.104801","174408.507787","175157.977253","175924.292435","176691.560477","177457.982632","181358.387706","182125.021642","182874.315499","183640.874307","169808.236089","170574.827978","171341.707085","172107.702896","182883.3012"
"Blocked","Male","tile","16","M_park.wav","space","382.13934144","225","180591.827662","172875.258775","173642.104801","174408.507787","175157.977253","175924.292435","176691.560477","177457.982632","181358.387706","182125.021642","182874.315499","183640.874307","184407.85544","170574.827978","171341.707085","172107.702896","183649.745615"
"Blocked","Male","tile","16","M_tile.wav","None","731.21950042","225","180591.827662","172875.258775","173642.104801","174408.507787","175157.977253","175924.292435","176691.560477","177457.982632","181358.387706","182125.021642","182874.315499","183640.874307","184407.85544","185174.486902","171341.707085","172107.702896","184417.472156"
"Blocked","Male","tile","16","M_cling.wav","space","479.85544469","225","180591.827662","172875.258775","173642.104801","174408.507787","175157.977253","175924.292435","176691.560477","177457.982632","181358.387706","182125.021642","182874.315499","183640.874307","184407.85544","185174.486902","185941.182981","172107.702896","185184.054461"
"Blocked","Male","tile","16","M_ball.wav","None","733.646171633","225","180591.827662","172875.258775","173642.104801","174408.507787","175157.977253","175924.292435","176691.560477","177457.982632","181358.387706","182125.021642","182874.315499","183640.874307","184407.85544","185174.486902","185941.182981","186707.887099","185945.031832"
"Blocked","Male","tile","16","M_tile.wav","None","726.323492709","225","180591.827662","187474.372633","173642.104801","174408.507787","175157.977253","175924.292435","176691.560477","177457.982632","181358.387706","182125.021642","182874.315499","183640.874307","184407.85544","185174.486902","185941.182981","186707.887099","186717.339337"
"Blocked","Male","tile","16","M_ball.wav","space","347.828331753","225","180591.827662","187474.372633","188241.46414","174408.507787","175157.977253","175924.292435","176691.560477","177457.982632","181358.387706","182125.021642","182874.315499","183640.874307","184407.85544","185174.486902","185941.182981","186707.887099","187484.001098"
"Blocked","Male","tile","16","M_greet.wav","None","721.787049028","225","180591.827662","187474.372633","188241.46414","189008.043353","175157.977253","175924.292435","176691.560477","177457.982632","181358.387706","182125.021642","182874.315499","183640.874307","184407.85544","185174.486902","185941.182981","186707.887099","188251.905102"
"Blocked","Male","tile","16","M_tile.wav","None","721.379254479","225","180591.827662","187474.372633","188241.46414","189008.043353","189774.693675","175924.292435","176691.560477","177457.982632","181358.387706","182125.021642","182874.315499","183640.874307","184407.85544","185174.486902","185941.182981","186707.887099","189017.869068"
"Blocked","Male","tile","16","M_knife.wav","space","431.479079125","225","180591.827662","187474.372633","188241.46414","189008.043353","189774.693675","190541.700469","176691.560477","177457.982632","181358.387706","182125.021642","182874.315499","183640.874307","184407.85544","185174.486902","185941.182981","186707.887099","189784.249485"
"Blocked","Male","tile","16","M_greet.wav","None","717.160018743","225","180591.827662","187474.372633","188241.46414","189008.043353","189774.693675","190541.700469","191290.888281","177457.982632","181358.387706","182125.021642","182874.315499","183640.874307","184407.85544","185174.486902","185941.182981","186707.887099","190551.56483"
"Blocked","Male","tile","16","M_lash.wav","None","733.850223478","225","180591.827662","187474.372633","188241.46414","189008.043353","189774.693675","190541.700469","191290.888281","192057.545714","181358.387706","182125.021642","182874.315499","183640.874307","184407.85544","185174.486902","185941.182981","186707.887099","191300.250242"
"Blocked","Male","done","22","M_depth.wav","None","732.346114004","225","195191.387033","187474.372633","188241.46414","189008.043353","189774.693675","190541.700469","191290.888281","192057.545714","181358.387706","182125.021642","182874.315499","183640.874307","184407.85544","185174.486902","185941.182981","186707.887099","192067.146972"
"Blocked","Male","done","22","M_done.wav","None","720.56799382","225","195191.387033","187474.372633","188241.46414","189008.043353","189774.693675","190541.700469","191290.888281","192057.545714","195957.883698","182125.021642","182874.315499","183640.874307","184407.85544","185174.486902","185941.182981","186707.887099","195201.309827"
"Blocked","Male","done","22","M_priest.wav","space","439.840567531","225","195191.387033","187474.372633","188241.46414","189008.043353","189774.693675","190541.700469","191290.888281","192057.545714","195957.883698","196707.192086","182874.315499","183640.874307","184407.85544","185174.486902","185941.182981","186707.887099","195967.703229"
"Blocked","Male","done","22","M_priest.wav","None","735.439972894","225","195191.387033","187474.372633","188241.46414","189008.043353","189774.693675","190541.700469","191290.888281","192057.545714","195957.883698","196707.192086","197473.960201","183640.874307","184407.85544","185174.486902","185941.182981","186707.887099","196716.737075"
"Blocked","Male","done","22","M_cad.wav","None","734.280587349","225","195191.387033","187474.372633","188241.46414","189008.043353","189774.693675","190541.700469","191290.888281","192057.545714","195957.883698","196707.192086","197473.960201","198240.232718","184407.85544","185174.486902","185941.182981","186707.887099","197483.155829"
"Blocked","Male","done","22","M_bluff.wav","None","734.291099128","225","195191.387033","187474.372633","188241.46414","189008.043353","189774.693675","190541.700469","191290.888281","192057.545714","195957.883698","196707.192086","197473.960201","198240.232718","199007.412029","185174.486902","185941.182981","186707.887099","198248.975412"
"Blocked","Male","done","22","M_park.wav","None","731.608126429","225","195191.387033","187474.372633","188241.46414","189008.043353","189774.693675","190541.700469","191290.888281","192057.545714","195957.883698","196707.192086","197473.960201","198240.232718","199007.412029","199773.603234","185941.182981","186707.887099","199016.924864"
"Blocked","Male","done","22","M_done.wav","None","731.335438963","225","195191.387033","187474.372633","188241.46414","189008.043353","189774.693675","190541.700469","191290.888281","192057.545714","195957.883698","196707.192086","197473.960201","198240.232718","199007.412029","199773.603234","200540.912705","186707.887099","199782.574096"
"Blocked","Male","done","22","M_romp.wav","space","409.172810905","225","195191.387033","187474.372633","188241.46414","189008.043353","189774.693675","190541.700469","191290.888281","192057.545714","195957.883698","196707.192086","197473.960201","198240.232718","199007.412029","199773.603234","200540.912705","201307.276427","200550.229527"
"Blocked","Male","done","22","M_done.wav","None","726.946469164","225","195191.387033","202073.564712","188241.46414","189008.043353","189774.693675","190541.700469","191290.888281","192057.545714","195957.883698","196707.192086","197473.960201","198240.232718","199007.412029","199773.603234","200540.912705","201307.276427","201316.914785"
"Blocked","Male","done","22","M_greet.wav","space","548.812603753","225","195191.387033","202073.564712","202840.516474","189008.043353","189774.693675","190541.700469","191290.888281","192057.545714","195957.883698","196707.192086","197473.960201","198240.232718","199007.412029","199773.603234","200540.912705","201307.276427","202082.540211"
"Blocked","Male","done","22","M_jaw.wav","None","724.406951107","225","195191.387033","202073.564712","202840.516474","203607.616328","189774.693675","190541.700469","191290.888281","192057.545714","195957.883698","196707.192086","197473.960201","198240.232718","199007.412029","199773.603234","200540.912705","201307.276427","202849.381908"
"Blocked","Male","done","22","M_done.wav","None","721.85042873","225","195191.387033","202073.564712","202840.516474","203607.616328","204374.209763","190541.700469","191290.888281","192057.545714","195957.883698","196707.192086","197473.960201","198240.232718","199007.412029","199773.603234","200540.912705","201307.276427","203617.353002"
"Blocked","Male","done","22","M_depth.wav","space","558.827839617","225","195191.387033","202073.564712","202840.516474","203607.616328","204374.209763","205123.552469","191290.888281","192057.545714","195957.883698","196707.192086","197473.960201","198240.232718","199007.412029","199773.603234","200540.912705","201307.276427","204384.426577"
"Blocked","Male","done","22","M_ball.wav","None","735.655154858","225","195191.387033","202073.564712","202840.516474","203607.616328","204374.209763","205123.552469","205890.421682","192057.545714","195957.883698","196707.192086","197473.960201","198240.232718","199007.412029","199773.603234","200540.912705","201307.276427","205133.091583"
"Blocked","Male","done","22","M_park.wav","None","734.391270031","225","195191.387033","202073.564712","202840.516474","203607.616328","204374.209763","205123.552469","205890.421682","206657.056237","195957.883698","196707.192086","197473.960201","198240.232718","199007.412029","199773.603234","200540.912705","201307.276427","205899.788281"
"Blocked","Male","ball","3","M_reek.wav","None","733.46963583","225","209790.860147","202073.564712","202840.516474","203607.616328","204374.209763","205123.552469","205890.421682","206657.056237","195957.883698","196707.192086","197473.960201","198240.232718","199007.412029","199773.603234","200540.912705","201307.276427","206666.315244"
"Blocked","Male","ball","3","M_reek.wav","None","720.305508876","225","209790.860147","202073.564712","202840.516474","203607.616328","204374.209763","205123.552469","205890.421682","206657.056237","210556.708792","196707.192086","197473.960201","198240.232718","199007.412029","199773.603234","200540.912705","201307.276427","209800.930415"
"Blocked","Male","ball","3","M_jolt.wav","None","720.762770565","225","209790.860147","202073.564712","202840.516474","203607.616328","204374.209763","205123.552469","205890.421682","206657.056237","210556.708792","211307.141629","197473.960201","198240.232718","199007.412029","199773.603234","200540.912705","201307.276427","210565.931317"
"Blocked","Male","ball","3","M_ball.wav","None","735.655463999","225","209790.860147","202073.564712","202840.516474","203607.616328","204374.209763","205123.552469","205890.421682","206657.056237","210556.708792","211307.141629","212073.239465","198240.232718","199007.412029","199773.603234","200540.912705","201307.276427","211316.497098"
"Blocked","Male","ball","3","M_reek.wav","space","340.109606797","225","209790.860147","202073.564712","202840.516474","203607.616328","204374.209763","205123.552469","205890.421682","206657.056237","210556.708792","211307.141629","212073.239465","212840.484939","199007.412029","199773.603234","200540.912705","201307.276427","212082.921107"
"Blocked","Male","ball","3","M_depth.wav","None","733.43006213","225","209790.860147","202073.564712","202840.516474","203607.616328","204374.209763","205123.552469","205890.421682","206657.056237","210556.708792","211307.141629","212073.239465","212840.484939","213606.925025","199773.603234","200540.912705","201307.276427","212849.638828"
"Blocked","Male","ball","3","M_ball.wav","None","732.295410184","225","209790.860147","202073.564712","202840.516474","203607.616328","204374.209763","205123.552469","205890.421682","206657.056237","210556.708792","211307.141629","212073.239465","212840.484939","213606.925025","214373.59297","200540.912705","201307.276427","213616.451464"
"Blocked","Male","ball","3","M_priest.wav","space","327.851037204","225","209790.860147","202073.564712","202840.516474","203607.616328","204374.209763","205123.552469","205890.421682","206657.056237","210556.708792","211307.141629","212073.239465","212840.484939","213606.925025","214373.59297","215140.37809","201307.276427","214383.154345"
"Blocked","Male","ball","3","M_jaw.wav","None","728.577338159","225","209790.860147","202073.564712","202840.516474","203607.616328","204374.209763","205123.552469","205890.421682","206657.056237","210556.708792","211307.141629","212073.239465","212840.484939","213606.925025","214373.59297","215140.37809","215906.825596","215149.696767"
"Blocked","Male","ball","3","M_cad.wav","None","727.594797558","225","209790.860147","216673.516729","202840.516474","203607.616328","204374.209763","205123.552469","205890.421682","206657.056237","210556.708792","211307.141629","212073.239465","212840.484939","213606.925025","214373.59297","215140.37809","215906.825596","215916.160968"
"Blocked","Male","ball","3","M_park.wav","None","726.041220943","225","209790.860147","216673.516729","217440.315452","203607.616328","204374.209763","205123.552469","205890.421682","206657.056237","210556.708792","211307.141629","212073.239465","212840.484939","213606.925025","214373.59297","215140.37809","215906.825596","216683.145812"
"Blocked","Male","ball","3","M_cad.wav","None","725.357956428","225","209790.860147","216673.516729","217440.315452","218206.724312","204374.209763","205123.552469","205890.421682","206657.056237","210556.708792","211307.141629","212073.239465","212840.484939","213606.925025","214373.59297","215140.37809","215906.825596","217449.36206"
"Blocked","Male","ball","3","M_ball.wav","None","724.319456145","225","209790.860147","216673.516729","217440.315452","218206.724312","218973.411116","205123.552469","205890.421682","206657.056237","210556.708792","211307.141629","212073.239465","212840.484939","213606.925025","214373.59297","215140.37809","215906.825596","218216.359579"
"Blocked","Male","ball","3","M_tile.wav","space","312.723684066","225","209790.860147","216673.516729","217440.315452","218206.724312","218973.411116","219740.668647","205890.421682","206657.056237","210556.708792","211307.141629","212073.239465","212840.484939","213606.925025","214373.59297","215140.37809","215906.825596","218982.130005"
"Blocked","Male","ball","3","M_ball.wav","None","719.528875197","225","209790.860147","216673.516729","217440.315452","218206.724312","218973.411116","219740.668647","220507.340611","206657.056237","210556.708792","211307.141629","212073.239465","212840.484939","213606.925025","214373.59297","215140.37809","215906.825596","219751.032935"
"Blocked","Male","ball","3","M_cling.wav","space","505.766938149","225","209790.860147","216673.516729","217440.315452","218206.724312","218973.411116","219740.668647","220507.340611","221256.394552","210556.708792","211307.141629","212073.239465","212840.484939","213606.925025","214373.59297","215140.37809","215906.825596","220517.024108"
"Blocked","Male","done","20","M_romp.wav","None","735.034342564","225","224390.387674","216673.516729","217440.315452","218206.724312","218973.411116","219740.668647","220507.340611","221256.394552","210556.708792","211307.141629","212073.239465","212840.484939","213606.925025","214373.59297","215140.37809","215906.825596","221265.647685"
"Blocked","Male","done","20","M_reek.wav","None","721.506941481","225","224390.387674","216673.516729","217440.315452","218206.724312","218973.411116","219740.668647","220507.340611","221256.394552","225156.769637","211307.141629","212073.239465","212840.484939","213606.925025","214373.59297","215140.37809","215906.825596","224400.285425"
"Blocked","Male","done","20","M_gnash.wav","None","720.417428238","225","224390.387674","216673.516729","217440.315452","218206.724312","218973.411116","219740.668647","220507.340611","221256.394552","225156.769637","225923.880312","212073.239465","212840.484939","213606.925025","214373.59297","215140.37809","215906.825596","225166.814553"
"Blocked","Male","done","20","M_done.wav","None","719.045952486","225","224390.387674","216673.516729","217440.315452","218206.724312","218973.411116","219740.668647","220507.340611","221256.394552","225156.769637","225923.880312","226673.373892","212840.484939","213606.925025","214373.59297","215140.37809","215906.825596","225933.773426"
"Blocked","Male","done","20","M_cave.wav","space","331.918470794","225","224390.387674","216673.516729","217440.315452","218206.724312","218973.411116","219740.668647","220507.340611","221256.394552","225156.769637","225923.880312","226673.373892","227439.882305","213606.925025","214373.59297","215140.37809","215906.825596","226682.723177"
"Blocked","Male","done","20","M_done.wav","None","733.412439469","225","224390.387674","216673.516729","217440.315452","218206.724312","218973.411116","219740.668647","220507.340611","221256.394552","225156.769637","225923.880312","226673.373892","227439.882305","228206.650112","214373.59297","215140.37809","215906.825596","227449.702455"
"Blocked","Male","done","20","M_knife.wav","space","414.547722205","225","224390.387674","216673.516729","217440.315452","218206.724312","218973.411116","219740.668647","220507.340611","221256.394552","225156.769637","225923.880312","226673.373892","227439.882305","228206.650112","228973.096691","215140.37809","215906.825596","228216.014237"
"Blocked","Male","done","20","M_done.wav","None","731.473637745","225","224390.387674","216673.516729","217440.315452","218206.724312","218973.411116","219740.668647","220507.340611","221256.394552","225156.769637","225923.880312","226673.373892","227439.882305","228206.650112","228973.096691","229739.981672","215906.825596","228982.123821"
"Blocked","Male","done","20","M_tile.wav","space","625.553413352","225","224390.387674","216673.516729","217440.315452","218206.724312","218973.411116","219740.668647","220507.340611","221256.394552","225156.769637","225923.880312","226673.373892","227439.882305","228206.650112","228973.096691","229739.981672","230506.549137","229748.973867"
"Blocked","Male","done","20","M_ball.wav","None","727.434029395","225","224390.387674","231273.007774","217440.315452","218206.724312","218973.411116","219740.668647","220507.340611","221256.394552","225156.769637","225923.880312","226673.373892","227439.882305","228206.650112","228973.096691","229739.981672","230506.549137","230515.799488"
"Blocked","Male","done","20","M_jolt.wav","None","725.47636833","225","224390.387674","231273.007774","232039.554524","218206.724312","218973.411116","219740.668647","220507.340611","221256.394552","225156.769637","225923.880312","226673.373892","227439.882305","228206.650112","228973.096691","229739.981672","230506.549137","231282.794224"
"Blocked","Male","done","20","M_reek.wav","None","730.86024553","225","224390.387674","231273.007774","232039.554524","232806.25926","218973.411116","219740.668647","220507.340611","221256.394552","225156.769637","225923.880312","226673.373892","227439.882305","228206.650112","228973.096691","229739.981672","230506.549137","232043.120175"
"Blocked","Male","done","20","M_done.wav","None","723.853846954","225","224390.387674","231273.007774","232039.554524","232806.25926","233573.229881","219740.668647","220507.340611","221256.394552","225156.769637","225923.880312","226673.373892","227439.882305","228206.650112","228973.096691","229739.981672","230506.549137","232815.267221"
"Blocked","Male","done","20","M_ball.wav","space","351.656468178","225","224390.387674","231273.007774","232039.554524","232806.25926","233573.229881","234340.394043","220507.340611","221256.394552","225156.769637","225923.880312","226673.373892","227439.882305","228206.650112","228973.096691","229739.981672","230506.549137","233582.767141"
"Blocked","Male","done","20","M_depth.wav","None","719.233618351","225","224390.387674","231273.007774","232039.554524","232806.25926","233573.229881","234340.394043","235089.545063","221256.394552","225156.769637","225923.880312","226673.373892","227439.882305","228206.650112","228973.096691","229739.981672","230506.549137","234349.949853"
"Blocked","Male","done","20","M_cave.wav","None","735.791807761","225","224390.387674","231273.007774","232039.554524","232806.25926","233573.229881","234340.394043","235089.545063","235855.939702","225156.769637","225923.880312","226673.373892","227439.882305","228206.650112","228973.096691","229739.981672","230506.549137","235099.081705"
"Blocked","Male","done","21","M_jaw.wav","None","735.324652691","225","238989.968378","231273.007774","232039.554524","232806.25926","233573.229881","234340.394043","235089.545063","235855.939702","225156.769637","225923.880312","226673.373892","227439.882305","228206.650112","228973.096691","229739.981672","230506.549137","235865.185724"
"Blocked","Male","done","21","M_done.wav","None","721.681003924","225","238989.968378","231273.007774","232039.554524","232806.25926","233573.229881","234340.394043","235089.545063","235855.939702","239756.643124","225923.880312","226673.373892","227439.882305","228206.650112","228973.096691","229739.981672","230506.549137","239000.03339"
"Blocked","Male","done","21","M_lash.wav","space","415.71545531","225","238989.968378","231273.007774","232039.554524","232806.25926","233573.229881","234340.394043","235089.545063","235855.939702","239756.643124","240522.272878","226673.373892","227439.882305","228206.650112","228973.096691","229739.981672","230506.549137","239766.512432"
"Blocked","Male","done","21","M_ball.wav","None","723.357320763","225","238989.968378","231273.007774","232039.554524","232806.25926","233573.229881","234340.394043","235089.545063","235855.939702","239756.643124","240522.272878","241289.353255","227439.882305","228206.650112","228973.096691","229739.981672","230506.549137","240530.961777"
"Blocked","Male","done","21","M_done.wav","None","721.811164229","225","238989.968378","231273.007774","232039.554524","232806.25926","233573.229881","234340.394043","235089.545063","235855.939702","239756.643124","240522.272878","241289.353255","242056.403333","228206.650112","228973.096691","229739.981672","230506.549137","241298.27063"
"Blocked","Male","done","21","M_tile.wav","space","507.697083172","225","238989.968378","231273.007774","232039.554524","232806.25926","233573.229881","234340.394043","235089.545063","235855.939702","239756.643124","240522.272878","241289.353255","242056.403333","242805.992137","228973.096691","229739.981672","230506.549137","242066.489677"
"Blocked","Male","done","21","M_romp.wav","None","734.971271944","225","238989.968378","231273.007774","232039.554524","232806.25926","233573.229881","234340.394043","235089.545063","235855.939702","239756.643124","240522.272878","241289.353255","242056.403333","242805.992137","243572.641841","229739.981672","230506.549137","242815.3609"
"Blocked","Male","done","21","M_park.wav","None","734.178252285","225","238989.968378","231273.007774","232039.554524","232806.25926","233573.229881","234340.394043","235089.545063","235855.939702","239756.643124","240522.272878","241289.353255","242056.403333","242805.992137","243572.641841","244339.516311","230506.549137","243581.633417"
"Blocked","Male","done","21","M_bluff.wav","None","732.558204269","225","238989.968378","231273.007774","232039.554524","232806.25926","233573.229881","234340.394043","235089.545063","235855.939702","239756.643124","240522.272878","241289.353255","242056.403333","242805.992137","243572.641841","244339.516311","245106.130769","244348.705446"
"Blocked","Male","done","21","M_cad.wav","None","731.32523644","225","238989.968378","245872.564363","232039.554524","232806.25926","233573.229881","234340.394043","235089.545063","235855.939702","239756.643124","240522.272878","241289.353255","242056.403333","242805.992137","243572.641841","244339.516311","245106.130769","245115.616397"
"Blocked","Male","done","21","M_gnash.wav","None","730.727302609","225","238989.968378","245872.564363","246639.065974","232806.25926","233573.229881","234340.394043","235089.545063","235855.939702","239756.643124","240522.272878","241289.353255","242056.403333","242805.992137","243572.641841","244339.516311","245106.130769","245881.939618"
"Blocked","Male","done","21","M_done.wav","None","730.34887918","225","238989.968378","245872.564363","246639.065974","247406.060711","233573.229881","234340.394043","235089.545063","235855.939702","239756.643124","240522.272878","241289.353255","242056.403333","242805.992137","243572.641841","244339.516311","245106.130769","246647.999117"
"Blocked","Male","done","21","M_jaw.wav","space","462.467444479","225","238989.968378","245872.564363","246639.065974","247406.060711","248172.495542","234340.394043","235089.545063","235855.939702","239756.643124","240522.272878","241289.353255","242056.403333","242805.992137","243572.641841","244339.516311","245106.130769","247415.539229"
"Blocked","Male","done","21","M_done.wav","None","726.251456188","225","238989.968378","245872.564363","246639.065974","247406.060711","248172.495542","248939.347442","235089.545063","235855.939702","239756.643124","240522.272878","241289.353255","242056.403333","242805.992137","243572.641841","244339.516311","245106.130769","248181.840498"
"Blocked","Male","done","21","M_jolt.wav","space","585.253172729","225","238989.968378","245872.564363","246639.065974","247406.060711","248172.495542","248939.347442","249705.542357","235855.939702","239756.643124","240522.272878","241289.353255","242056.403333","242805.992137","243572.641841","244339.516311","245106.130769","248948.693326"
"Blocked","Male","done","21","M_jolt.wav","None","724.056971259","225","238989.968378","245872.564363","246639.065974","247406.060711","248172.495542","248939.347442","249705.542357","250472.930976","239756.643124","240522.272878","241289.353255","242056.403333","242805.992137","243572.641841","244339.516311","245106.130769","249714.430361"
"Blocked","Male","cave","11","M_knife.wav","None","721.048443171","225","253589.957495","245872.564363","246639.065974","247406.060711","248172.495542","248939.347442","249705.542357","250472.930976","239756.643124","240522.272878","241289.353255","242056.403333","242805.992137","243572.641841","244339.516311","245106.130769","250483.02505"
"Blocked","Male","cave","11","M_cave.wav","None","721.373380278","225","253589.957495","245872.564363","246639.065974","247406.060711","248172.495542","248939.347442","249705.542357","250472.930976","254355.969382","240522.272878","241289.353255","242056.403333","242805.992137","243572.641841","244339.516311","245106.130769","253599.338934"
"Blocked","Male","cave","11","M_cad.wav","space","415.838504676","225","253589.957495","245872.564363","246639.065974","247406.060711","248172.495542","248939.347442","249705.542357","250472.930976","254355.969382","255122.778617","241289.353255","242056.403333","242805.992137","243572.641841","244339.516311","245106.130769","254365.960503"
"Blocked","Male","cave","11","M_reek.wav","None","718.146887608","225","253589.957495","245872.564363","246639.065974","247406.060711","248172.495542","248939.347442","249705.542357","250472.930976","254355.969382","255122.778617","255871.873369","242056.403333","242805.992137","243572.641841","244339.516311","245106.130769","255132.838992"
"Blocked","Male","cave","11","M_cave.wav","None","735.326816852","225","253589.957495","245872.564363","246639.065974","247406.060711","248172.495542","248939.347442","249705.542357","250472.930976","254355.969382","255122.778617","255871.873369","256639.038149","242805.992137","243572.641841","244339.516311","245106.130769","255881.299019"
"Blocked","Male","cave","11","M_gnash.wav","space","517.725304177","225","253589.957495","245872.564363","246639.065974","247406.060711","248172.495542","248939.347442","249705.542357","250472.930976","254355.969382","255122.778617","255871.873369","256639.038149","257405.753706","243572.641841","244339.516311","245106.130769","256648.032198"
"Blocked","Male","cave","11","M_cave.wav","None","731.197549379","225","253589.957495","245872.564363","246639.065974","247406.060711","248172.495542","248939.347442","249705.542357","250472.930976","254355.969382","255122.778617","255871.873369","256639.038149","257405.753706","258172.217598","244339.516311","245106.130769","257415.186157"
"Blocked","Male","cave","11","M_greet.wav","space","471.766643808","225","253589.957495","245872.564363","246639.065974","247406.060711","248172.495542","248939.347442","249705.542357","250472.930976","254355.969382","255122.778617","255871.873369","256639.038149","257405.753706","258172.217598","258938.704061","245106.130769","258181.894603"
"Blocked","Male","cave","11","M_tile.wav","None","728.648447141","225","253589.957495","245872.564363","246639.065974","247406.060711","248172.495542","248939.347442","249705.542357","250472.930976","254355.969382","255122.778617","255871.873369","256639.038149","257405.753706","258172.217598","258938.704061","259705.550396","258947.805701"
"Blocked","Male","cave","11","M_cave.wav","None","727.365393774","225","253589.957495","260471.714703","246639.065974","247406.060711","248172.495542","248939.347442","249705.542357","250472.930976","254355.969382","255122.778617","255871.873369","256639.038149","257405.753706","258172.217598","258938.704061","259705.550396","259714.853614"
"Blocked","Male","cave","11","M_dime.wav","space","348.832514253","225","253589.957495","260471.714703","261239.274911","247406.060711","248172.495542","248939.347442","249705.542357","250472.930976","254355.969382","255122.778617","255871.873369","256639.038149","257405.753706","258172.217598","258938.704061","259705.550396","260480.745234"
"Blocked","Male","cave","11","M_greet.wav","None","723.223450361","225","253589.957495","260471.714703","261239.274911","262005.662748","248172.495542","248939.347442","249705.542357","250472.930976","254355.969382","255122.778617","255871.873369","256639.038149","257405.753706","258172.217598","258938.704061","259705.550396","261249.240371"
"Blocked","Male","cave","11","M_greet.wav","None","722.470622684","225","253589.957495","260471.714703","261239.274911","262005.662748","262772.409531","248939.347442","249705.542357","250472.930976","254355.969382","255122.778617","255871.873369","256639.038149","257405.753706","258172.217598","258938.704061","259705.550396","262015.785575"
"Blocked","Male","cave","11","M_cling.wav","None","727.188858029","225","253589.957495","260471.714703","261239.274911","262005.662748","262772.409531","263539.15013","249705.542357","250472.930976","254355.969382","255122.778617","255871.873369","256639.038149","257405.753706","258172.217598","258938.704061","259705.550396","262776.828799"
"Blocked","Male","cave","11","M_tile.wav","None","721.091417712","225","253589.957495","260471.714703","261239.274911","262005.662748","262772.409531","263539.15013","264305.945143","250472.930976","254355.969382","255122.778617","255871.873369","256639.038149","257405.753706","258172.217598","258938.704061","259705.550396","263548.465716"
"Blocked","Male","cave","11","M_reek.wav","None","719.16034515","225","253589.957495","260471.714703","261239.274911","262005.662748","262772.409531","263539.15013","264305.945143","265072.686361","254355.969382","255122.778617","255871.873369","256639.038149","257405.753706","258172.217598","258938.704061","259705.550396","264315.713353"
"Blocked","Male","ball","2","M_tile.wav","None","718.183988007","225","268189.267986","260471.714703","261239.274911","262005.662748","262772.409531","263539.15013","264305.945143","265072.686361","254355.969382","255122.778617","255871.873369","256639.038149","257405.753706","258172.217598","258938.704061","259705.550396","265082.687994"
"Blocked","Male","ball","2","M_ball.wav","None","720.738655364","225","268189.267986","260471.714703","261239.274911","262005.662748","262772.409531","263539.15013","264305.945143","265072.686361","268955.7461","255122.778617","255871.873369","256639.038149","257405.753706","258172.217598","258938.704061","259705.550396","268198.855949"
"Blocked","Male","ball","2","M_cling.wav","space","311.787828105","225","268189.267986","260471.714703","261239.274911","262005.662748","262772.409531","263539.15013","264305.945143","265072.686361","268955.7461","269705.102718","255871.873369","256639.038149","257405.753706","258172.217598","258938.704061","259705.550396","268965.579235"
"Blocked","Male","ball","2","M_ball.wav","None","735.544472176","225","268189.267986","260471.714703","261239.274911","262005.662748","262772.409531","263539.15013","264305.945143","265072.686361","268955.7461","269705.102718","270471.750567","256639.038149","257405.753706","258172.217598","258938.704061","259705.550396","269714.468389"
"Blocked","Male","ball","2","M_jolt.wav","space","489.964977314","225","268189.267986","260471.714703","261239.274911","262005.662748","262772.409531","263539.15013","264305.945143","265072.686361","268955.7461","269705.102718","270471.750567","271238.581135","257405.753706","258172.217598","258938.704061","259705.550396","270475.349918"
"Blocked","Male","ball","2","M_lash.wav","None","733.029069321","225","268189.267986","260471.714703","261239.274911","262005.662748","262772.409531","263539.15013","264305.945143","265072.686361","268955.7461","269705.102718","270471.750567","271238.581135","272005.356361","258172.217598","258938.704061","259705.550396","271247.900121"
"Blocked","Male","ball","2","M_cave.wav","None","732.019940217","225","268189.267986","260471.714703","261239.274911","262005.662748","262772.409531","263539.15013","264305.945143","265072.686361","268955.7461","269705.102718","270471.750567","271238.581135","272005.356361","272771.885489","258938.704061","259705.550396","272014.770881"
"Blocked","Male","ball","2","M_dime.wav","None","731.394490344","225","268189.267986","260471.714703","261239.274911","262005.662748","262772.409531","263539.15013","264305.945143","265072.686361","268955.7461","269705.102718","270471.750567","271238.581135","272005.356361","272771.885489","273538.509222","259705.550396","272781.329379"
"Blocked","Male","ball","2","M_ball.wav","None","730.909403472","225","268189.267986","260471.714703","261239.274911","262005.662748","262772.409531","263539.15013","264305.945143","265072.686361","268955.7461","269705.102718","270471.750567","271238.581135","272005.356361","272771.885489","273538.509222","274305.217049","273547.635596"
"Blocked","Male","ball","2","M_jaw.wav","space","410.356002452","225","268189.267986","275071.709076","261239.274911","262005.662748","262772.409531","263539.15013","264305.945143","265072.686361","268955.7461","269705.102718","270471.750567","271238.581135","272005.356361","272771.885489","273538.509222","274305.217049","274314.830983"
"Blocked","Male","ball","2","M_jolt.wav","None","727.730832121","225","268189.267986","275071.709076","275838.600241","262005.662748","262772.409531","263539.15013","264305.945143","265072.686361","268955.7461","269705.102718","270471.750567","271238.581135","272005.356361","272771.885489","273538.509222","274305.217049","275081.220366"
"Blocked","Male","ball","2","M_lash.wav","None","727.283463872","225","268189.267986","275071.709076","275838.600241","276605.101234","262772.409531","263539.15013","264305.945143","265072.686361","268955.7461","269705.102718","270471.750567","271238.581135","272005.356361","272771.885489","273538.509222","274305.217049","275847.61315"
"Blocked","Male","ball","2","M_ball.wav","None","726.196733187","225","268189.267986","275071.709076","275838.600241","276605.101234","277371.638091","263539.15013","264305.945143","265072.686361","268955.7461","269705.102718","270471.750567","271238.581135","272005.356361","272771.885489","273538.509222","274305.217049","276614.187107"
"Blocked","Male","ball","2","M_cad.wav","space","343.952274125","225","268189.267986","275071.709076","275838.600241","276605.101234","277371.638091","278138.827914","264305.945143","265072.686361","268955.7461","269705.102718","270471.750567","271238.581135","272005.356361","272771.885489","273538.509222","274305.217049","277381.162057"
"Blocked","Male","ball","2","M_bluff.wav","None","721.498284722","225","268189.267986","275071.709076","275838.600241","276605.101234","277371.638091","278138.827914","278905.413619","265072.686361","268955.7461","269705.102718","270471.750567","271238.581135","272005.356361","272771.885489","273538.509222","274305.217049","278149.090176"
"Blocked","Male","ball","2","M_knife.wav","None","721.313401358","225","268189.267986","275071.709076","275838.600241","276605.101234","277371.638091","278138.827914","278905.413619","279671.332446","268955.7461","269705.102718","270471.750567","271238.581135","272005.356361","272771.885489","273538.509222","274305.217049","278915.161733"
"Blocked","Male","tile","13","M_depth.wav","None","722.042732174","225","282788.782528","275071.709076","275838.600241","276605.101234","277371.638091","278138.827914","278905.413619","279671.332446","268955.7461","269705.102718","270471.750567","271238.581135","272005.356361","272771.885489","273538.509222","274305.217049","279680.450163"
"Blocked","Male","tile","13","M_tile.wav","None","720.677439764","225","282788.782528","275071.709076","275838.600241","276605.101234","277371.638091","278138.827914","278905.413619","279671.332446","283554.452473","269705.102718","270471.750567","271238.581135","272005.356361","272771.885489","273538.509222","274305.217049","282798.491067"
"Blocked","Male","tile","13","M_cad.wav","space","385.525056336","225","282788.782528","275071.709076","275838.600241","276605.101234","277371.638091","278138.827914","278905.413619","279671.332446","283554.452473","284304.815129","270471.750567","271238.581135","272005.356361","272771.885489","273538.509222","274305.217049","283563.399219"
"Blocked","Male","tile","13","M_priest.wav","None","735.212424188","225","282788.782528","275071.709076","275838.600241","276605.101234","277371.638091","278138.827914","278905.413619","279671.332446","283554.452473","284304.815129","285071.073424","271238.581135","272005.356361","272771.885489","273538.509222","274305.217049","284314.394127"
"Blocked","Male","tile","13","M_gnash.wav","None","734.904182202","225","282788.782528","275071.709076","275838.600241","276605.101234","277371.638091","278138.827914","278905.413619","279671.332446","283554.452473","284304.815129","285071.073424","285838.241605","272005.356361","272771.885489","273538.509222","274305.217049","285080.95077"
"Blocked","Male","tile","13","M_jaw.wav","None","733.823944058","225","282788.782528","275071.709076","275838.600241","276605.101234","277371.638091","278138.827914","278905.413619","279671.332446","283554.452473","284304.815129","285071.073424","285838.241605","286604.858536","272771.885489","273538.509222","274305.217049","285847.601092"
"Blocked","Male","tile","13","M_bluff.wav","None","733.332364587","225","282788.782528","275071.709076","275838.600241","276605.101234","277371.638091","278138.827914","278905.413619","279671.332446","283554.452473","284304.815129","285071.073424","285838.241605","286604.858536","287371.432803","273538.509222","274305.217049","286614.045198"
"Blocked","Male","tile","13","M_cave.wav","None","732.512447168","225","282788.782528","275071.709076","275838.600241","276605.101234","277371.638091","278138.827914","278905.413619","279671.332446","283554.452473","284304.815129","285071.073424","285838.241605","286604.858536","287371.432803","288137.853412","274305.217049","287381.028186"
"Blocked","Male","tile","13","M_tile.wav","None","732.737831713","225","282788.782528","275071.709076","275838.600241","276605.101234","277371.638091","278138.827914","278905.413619","279671.332446","283554.452473","284304.815129","285071.073424","285838.241605","286604.858536","287371.432803","288137.853412","288904.669139","288146.94083"
"Blocked","Male","tile","13","M_jolt.wav","space","482.399291126","225","282788.782528","289670.918468","275838.600241","276605.101234","277371.638091","278138.827914","278905.413619","279671.332446","283554.452473","284304.815129","285071.073424","285838.241605","286604.858536","287371.432803","288137.853412","288904.669139","288914.343361"
"Blocked","Male","tile","13","M_cad.wav","None","730.014048633","225","282788.782528","289670.918468","290438.133334","276605.101234","277371.638091","278138.827914","278905.413619","279671.332446","283554.452473","284304.815129","285071.073424","285838.241605","286604.858536","287371.432803","288137.853412","288904.669139","289680.229725"
"Blocked","Male","tile","13","M_tile.wav","None","728.702242603","225","282788.782528","289670.918468","290438.133334","291204.595062","277371.638091","278138.827914","278905.413619","279671.332446","283554.452473","284304.815129","285071.073424","285838.241605","286604.858536","287371.432803","288137.853412","288904.669139","290447.606286"
"Blocked","Male","tile","13","M_cave.wav","None","728.163669351","225","282788.782528","289670.918468","290438.133334","291204.595062","291971.256823","278138.827914","278905.413619","279671.332446","283554.452473","284304.815129","285071.073424","285838.241605","286604.858536","287371.432803","288137.853412","288904.669139","291214.140979"
"Blocked","Male","tile","13","M_tile.wav","None","727.483496536","225","282788.782528","289670.918468","290438.133334","291204.595062","291971.256823","292738.095739","278905.413619","279671.332446","283554.452473","284304.815129","285071.073424","285838.241605","286604.858536","287371.432803","288137.853412","288904.669139","291980.819435"
"Blocked","Male","tile","13","M_park.wav","None","727.009230584","225","282788.782528","289670.918468","290438.133334","291204.595062","291971.256823","292738.095739","293504.415868","279671.332446","283554.452473","284304.815129","285071.073424","285838.241605","286604.858536","287371.432803","288137.853412","288904.669139","292747.318573"
"Blocked","Male","tile","13","M_done.wav","None","726.649666496","225","282788.782528","289670.918468","290438.133334","291204.595062","291971.256823","292738.095739","293504.415868","294271.144719","283554.452473","284304.815129","285071.073424","285838.241605","286604.858536","287371.432803","288137.853412","288904.669139","293513.758041"
"Blocked","Male","ball","4","M_priest.wav","None","725.531400472","225","297404.656463","289670.918468","290438.133334","291204.595062","291971.256823","292738.095739","293504.415868","294271.144719","283554.452473","284304.815129","285071.073424","285838.241605","286604.858536","287371.432803","288137.853412","288904.669139","294280.809047"
"Blocked","Male","ball","4","M_knife.wav","space","0.0361728598364","225","297404.656463","289670.918468","290438.133334","291204.595062","291971.256823","292738.095739","293504.415868","294271.144719","298171.679025","284304.815129","285071.073424","285838.241605","286604.858536","287371.432803","288137.853412","288904.669139","297414.352327"
"Blocked","Male","ball","4","M_ball.wav","None","718.472443114","225","297404.656463","289670.918468","290438.133334","291204.595062","291971.256823","292738.095739","293504.415868","294271.144719","298171.679025","298921.133341","285071.073424","285838.241605","286604.858536","287371.432803","288137.853412","288904.669139","298181.669837"
"Blocked","Male","ball","4","M_greet.wav","space","385.978298727","225","297404.656463","289670.918468","290438.133334","291204.595062","291971.256823","292738.095739","293504.415868","294271.144719","298171.679025","298921.133341","299687.593833","285838.241605","286604.858536","287371.432803","288137.853412","288904.669139","298930.492829"
"Blocked","Male","ball","4","M_priest.wav","None","733.673996874","225","297404.656463","289670.918468","290438.133334","291204.595062","291971.256823","292738.095739","293504.415868","294271.144719","298171.679025","298921.133341","299687.593833","300454.452844","286604.858536","287371.432803","288137.853412","288904.669139","299697.044216"
"Blocked","Male","ball","4","M_priest.wav","None","732.630859071","225","297404.656463","289670.918468","290438.133334","291204.595062","291971.256823","292738.095739","293504.415868","294271.144719","298171.679025","298921.133341","299687.593833","300454.452844","301220.986609","287371.432803","288137.853412","288904.669139","300463.945275"
"Blocked","Male","ball","4","M_ball.wav","None","732.627767371","225","297404.656463","289670.918468","290438.133334","291204.595062","291971.256823","292738.095739","293504.415868","294271.144719","298171.679025","298921.133341","299687.593833","300454.452844","301220.986609","301987.573861","288137.853412","288904.669139","301230.004155"
"Blocked","Male","ball","4","M_dime.wav","space","375.293092686","225","297404.656463","289670.918468","290438.133334","291204.595062","291971.256823","292738.095739","293504.415868","294271.144719","298171.679025","298921.133341","299687.593833","300454.452844","301220.986609","301987.573861","302754.212743","288904.669139","301997.071856"
"Blocked","Male","ball","4","M_reek.wav","None","729.46991038","225","297404.656463","289670.918468","290438.133334","291204.595062","291971.256823","292738.095739","293504.415868","294271.144719","298171.679025","298921.133341","299687.593833","300454.452844","301220.986609","301987.573861","302754.212743","303520.573373","302763.834406"
"Blocked","Male","ball","4","M_dime.wav","None","729.097670352","225","297404.656463","304287.697961","290438.133334","291204.595062","291971.256823","292738.095739","293504.415868","294271.144719","298171.679025","298921.133341","299687.593833","300454.452844","301220.986609","301987.573861","302754.212743","303520.573373","303529.800845"
"Blocked","Male","ball","4","M_ball.wav","None","727.22348501","225","297404.656463","304287.697961","305054.108368","291204.595062","291971.256823","292738.095739","293504.415868","294271.144719","298171.679025","298921.133341","299687.593833","300454.452844","301220.986609","301987.573861","302754.212743","303520.573373","304297.189773"
"Blocked","Male","ball","4","M_romp.wav","space","348.542513268","225","297404.656463","304287.697961","305054.108368","305820.833818","291971.256823","292738.095739","293504.415868","294271.144719","298171.679025","298921.133341","299687.593833","300454.452844","301220.986609","301987.573861","302754.212743","303520.573373","305063.76373"
"Blocked","Male","ball","4","M_ball.wav","None","725.253766344","225","297404.656463","304287.697961","305054.108368","305820.833818","306587.043573","292738.095739","293504.415868","294271.144719","298171.679025","298921.133341","299687.593833","300454.452844","301220.986609","301987.573861","302754.212743","303520.573373","305829.77067"
"Blocked","Male","ball","4","M_tile.wav","None","725.351463829","225","297404.656463","304287.697961","305054.108368","305820.833818","306587.043573","307353.839514","293504.415868","294271.144719","298171.679025","298921.133341","299687.593833","300454.452844","301220.986609","301987.573861","302754.212743","303520.573373","306595.748858"
"Blocked","Male","ball","4","M_greet.wav","None","724.338624626","225","297404.656463","304287.697961","305054.108368","305820.833818","306587.043573","307353.839514","308121.15455","294271.144719","298171.679025","298921.133341","299687.593833","300454.452844","301220.986609","301987.573861","302754.212743","303520.573373","307362.861697"
"Blocked","Male","ball","4","M_knife.wav","None","721.945652971","225","297404.656463","304287.697961","305054.108368","305820.833818","306587.043573","307353.839514","308121.15455","308887.945853","298171.679025","298921.133341","299687.593833","300454.452844","301220.986609","301987.573861","302754.212743","303520.573373","308131.351578"
"Blocked","Male","ball","6","M_depth.wav","None","721.828168607","225","312021.044857","304287.697961","305054.108368","305820.833818","306587.043573","307353.839514","308121.15455","308887.945853","298171.679025","298921.133341","299687.593833","300454.452844","301220.986609","301987.573861","302754.212743","303520.573373","308897.559478"
"Blocked","Male","ball","6","M_bluff.wav","None","721.494883881","225","312021.044857","304287.697961","305054.108368","305820.833818","306587.043573","307353.839514","308121.15455","308887.945853","312787.733207","298921.133341","299687.593833","300454.452844","301220.986609","301987.573861","302754.212743","303520.573373","312030.571914"
"Blocked","Male","ball","6","M_jolt.wav","None","720.11413303","225","312021.044857","304287.697961","305054.108368","305820.833818","306587.043573","307353.839514","308121.15455","308887.945853","312787.733207","313554.168037","299687.593833","300454.452844","301220.986609","301987.573861","302754.212743","303520.573373","312797.907046"
"Blocked","Male","ball","6","M_jolt.wav","None","719.393458974","225","312021.044857","304287.697961","305054.108368","305820.833818","306587.043573","307353.839514","308121.15455","308887.945853","312787.733207","313554.168037","314320.98562","300454.452844","301220.986609","301987.573861","302754.212743","303520.573373","313564.300758"
"Blocked","Male","ball","6","M_park.wav","None","718.510780134","225","312021.044857","304287.697961","305054.108368","305820.833818","306587.043573","307353.839514","308121.15455","308887.945853","312787.733207","313554.168037","314320.98562","315070.854223","301220.986609","301987.573861","302754.212743","303520.573373","314331.255611"
"Blocked","Male","ball","6","M_cave.wav","None","735.473053996","225","312021.044857","304287.697961","305054.108368","305820.833818","306587.043573","307353.839514","308121.15455","308887.945853","312787.733207","313554.168037","314320.98562","315070.854223","315836.97401","301987.573861","302754.212743","303520.573373","315080.406941"
"Blocked","Male","ball","6","M_ball.wav","None","735.7652192","225","312021.044857","304287.697961","305054.108368","305820.833818","306587.043573","307353.839514","308121.15455","308887.945853","312787.733207","313554.168037","314320.98562","315070.854223","315836.97401","316603.927936","302754.212743","303520.573373","315846.336898"
"Blocked","Male","ball","6","M_jolt.wav","space","398.793682572","225","312021.044857","304287.697961","305054.108368","305820.833818","306587.043573","307353.839514","308121.15455","308887.945853","312787.733207","313554.168037","314320.98562","315070.854223","315836.97401","316603.927936","317370.065037","303520.573373","316613.143351"
"Blocked","Male","ball","6","M_ball.wav","None","733.716971416","225","312021.044857","304287.697961","305054.108368","305820.833818","306587.043573","307353.839514","308121.15455","308887.945853","312787.733207","313554.168037","314320.98562","315070.854223","315836.97401","316603.927936","317370.065037","318137.16149","317379.267157"
"Blocked","Male","ball","6","M_gnash.wav","None","732.847277715","225","312021.044857","318903.683198","305054.108368","305820.833818","306587.043573","307353.839514","308121.15455","308887.945853","312787.733207","313554.168037","314320.98562","315070.854223","315836.97401","316603.927936","317370.065037","318137.16149","318146.494698"
"Blocked","Male","ball","6","M_ball.wav","space","258.91273754","225","312021.044857","318903.683198","319670.369074","305820.833818","306587.043573","307353.839514","308121.15455","308887.945853","312787.733207","313554.168037","314320.98562","315070.854223","315836.97401","316603.927936","317370.065037","318137.16149","318912.937258"
"Blocked","Male","ball","6","M_cave.wav","space","611.821960425","225","312021.044857","318903.683198","319670.369074","320437.141827","306587.043573","307353.839514","308121.15455","308887.945853","312787.733207","313554.168037","314320.98562","315070.854223","315836.97401","316603.927936","317370.065037","318137.16149","319679.98239"
"Blocked","Male","ball","6","M_cad.wav","None","727.054678486","225","312021.044857","318903.683198","319670.369074","320437.141827","321203.716093","307353.839514","308121.15455","308887.945853","312787.733207","313554.168037","314320.98562","315070.854223","315836.97401","316603.927936","317370.065037","318137.16149","320446.673831"
"Blocked","Male","ball","6","M_ball.wav","None","726.697896898","225","312021.044857","318903.683198","319670.369074","320437.141827","321203.716093","321969.961712","308121.15455","308887.945853","312787.733207","313554.168037","314320.98562","315070.854223","315836.97401","316603.927936","317370.065037","318137.16149","321213.301584"
"Blocked","Male","ball","6","M_greet.wav","space","352.916024625","225","312021.044857","318903.683198","319670.369074","320437.141827","321203.716093","321969.961712","322736.481874","308887.945853","312787.733207","313554.168037","314320.98562","315070.854223","315836.97401","316603.927936","317370.065037","318137.16149","321978.816635"
"Blocked","Male","ball","6","M_gnash.wav","None","725.45318061","225","312021.044857","318903.683198","319670.369074","320437.141827","321203.716093","321969.961712","322736.481874","323504.297765","312787.733207","313554.168037","314320.98562","315070.854223","315836.97401","316603.927936","317370.065037","318137.16149","322745.304334"
"Blocked","Male","tile","14","M_reek.wav","None","722.647467686","225","326637.35132","318903.683198","319670.369074","320437.141827","321203.716093","321969.961712","322736.481874","323504.297765","312787.733207","313554.168037","314320.98562","315070.854223","315836.97401","316603.927936","317370.065037","318137.16149","323514.228907"
"Blocked","Male","tile","14","M_romp.wav","None","721.607421525","225","326637.35132","318903.683198","319670.369074","320437.141827","321203.716093","321969.961712","322736.481874","323504.297765","327403.97289","313554.168037","314320.98562","315070.854223","315836.97401","316603.927936","317370.065037","318137.16149","326647.164978"
"Blocked","Male","tile","14","M_tile.wav","None","721.292996197","225","326637.35132","318903.683198","319670.369074","320437.141827","321203.716093","321969.961712","322736.481874","323504.297765","327403.97289","328170.459661","314320.98562","315070.854223","315836.97401","316603.927936","317370.065037","318137.16149","327413.766142"
"Blocked","Male","tile","14","M_depth.wav","space","422.78028687","225","326637.35132","318903.683198","319670.369074","320437.141827","321203.716093","321969.961712","322736.481874","323504.297765","327403.97289","328170.459661","328937.301049","315070.854223","315836.97401","316603.927936","317370.065037","318137.16149","328180.802307"
"Blocked","Male","tile","14","M_cave.wav","None","719.079342787","225","326637.35132","318903.683198","319670.369074","320437.141827","321203.716093","321969.961712","322736.481874","323504.297765","327403.97289","328170.459661","328937.301049","329703.73959","315836.97401","316603.927936","317370.065037","318137.16149","328947.093374"
"Blocked","Male","tile","14","M_depth.wav","None","719.638630399","225","326637.35132","318903.683198","319670.369074","320437.141827","321203.716093","321969.961712","322736.481874","323504.297765","327403.97289","328170.459661","328937.301049","329703.73959","330469.904207","316603.927936","317370.065037","318137.16149","329713.092276"
"Blocked","Male","tile","14","M_park.wav","None","720.272427774","225","326637.35132","318903.683198","319670.369074","320437.141827","321203.716093","321969.961712","322736.481874","323504.297765","327403.97289","328170.459661","328937.301049","329703.73959","330469.904207","331220.256351","317370.065037","318137.16149","330478.797776"
"Blocked","Male","tile","14","M_reek.wav","None","735.983183666","225","326637.35132","318903.683198","319670.369074","320437.141827","321203.716093","321969.961712","322736.481874","323504.297765","327403.97289","328170.459661","328937.301049","329703.73959","330469.904207","331220.256351","331986.596885","318137.16149","331229.355209"
"Blocked","Male","tile","14","M_tile.wav","None","735.494077555","225","326637.35132","318903.683198","319670.369074","320437.141827","321203.716093","321969.961712","322736.481874","323504.297765","327403.97289","328170.459661","328937.301049","329703.73959","330469.904207","331220.256351","331986.596885","332752.767994","331996.033356"
"Blocked","Male","tile","14","M_reek.wav","space","497.869513172","225","326637.35132","333519.991826","319670.369074","320437.141827","321203.716093","321969.961712","322736.481874","323504.297765","327403.97289","328170.459661","328937.301049","329703.73959","330469.904207","331220.256351","331986.596885","332752.767994","332761.613642"
"Blocked","Male","tile","14","M_tile.wav","None","732.995988219","225","326637.35132","333519.991826","334286.805698","320437.141827","321203.716093","321969.961712","322736.481874","323504.297765","327403.97289","328170.459661","328937.301049","329703.73959","330469.904207","331220.256351","331986.596885","332752.767994","333529.340183"
"Blocked","Male","tile","14","M_depth.wav","None","732.793482195","225","326637.35132","333519.991826","334286.805698","335053.217341","321203.716093","321969.961712","322736.481874","323504.297765","327403.97289","328170.459661","328937.301049","329703.73959","330469.904207","331220.256351","331986.596885","332752.767994","334295.838084"
"Blocked","Male","tile","14","M_tile.wav","None","732.350442384","225","326637.35132","333519.991826","334286.805698","335053.217341","335819.511809","321969.961712","322736.481874","323504.297765","327403.97289","328170.459661","328937.301049","329703.73959","330469.904207","331220.256351","331986.596885","332752.767994","335062.708535"
"Blocked","Male","tile","14","M_lash.wav","None","734.89305214","225","326637.35132","333519.991826","334286.805698","335053.217341","335819.511809","336586.055158","322736.481874","323504.297765","327403.97289","328170.459661","328937.301049","329703.73959","330469.904207","331220.256351","331986.596885","332752.767994","335828.363022"
"Blocked","Male","tile","14","M_park.wav","space","8.26162664453","225","326637.35132","333519.991826","334286.805698","335053.217341","335819.511809","336586.055158","337352.756802","323504.297765","327403.97289","328170.459661","328937.301049","329703.73959","330469.904207","331220.256351","331986.596885","332752.767994","336595.073941"
"Blocked","Male","tile","14","M_knife.wav","None","732.522031409","225","326637.35132","333519.991826","334286.805698","335053.217341","335819.511809","336586.055158","337352.756802","338119.748447","327403.97289","328170.459661","328937.301049","329703.73959","330469.904207","331220.256351","331986.596885","332752.767994","337361.831854"
"Blocked","Male","cave","7","M_knife.wav","None","730.925789452","225","341253.687464","333519.991826","334286.805698","335053.217341","335819.511809","336586.055158","337352.756802","338119.748447","327403.97289","328170.459661","328937.301049","329703.73959","330469.904207","331220.256351","331986.596885","332752.767994","338129.133596"
"Blocked","Male","cave","7","M_ball.wav","None","720.779465686","225","341253.687464","333519.991826","334286.805698","335053.217341","335819.511809","336586.055158","337352.756802","338119.748447","342020.44816","328170.459661","328937.301049","329703.73959","330469.904207","331220.256351","331986.596885","332752.767994","341263.455674"
"Blocked","Male","cave","7","M_lash.wav","None","720.032821409","225","341253.687464","333519.991826","334286.805698","335053.217341","335819.511809","336586.055158","337352.756802","338119.748447","342020.44816","342787.246574","328937.301049","329703.73959","330469.904207","331220.256351","331986.596885","332752.767994","342030.582426"
"Blocked","Male","cave","7","M_bluff.wav","None","719.795070123","225","341253.687464","333519.991826","334286.805698","335053.217341","335819.511809","336586.055158","337352.756802","338119.748447","342020.44816","342787.246574","343553.330188","329703.73959","330469.904207","331220.256351","331986.596885","332752.767994","342796.674697"
"Blocked","Male","cave","7","M_cave.wav","None","719.758278981","225","341253.687464","333519.991826","334286.805698","335053.217341","335819.511809","336586.055158","337352.756802","338119.748447","342020.44816","342787.246574","343553.330188","344320.000297","330469.904207","331220.256351","331986.596885","332752.767994","343563.056969"
"Blocked","Male","cave","7","M_tile.wav","space","401.433062332","225","341253.687464","333519.991826","334286.805698","335053.217341","335819.511809","336586.055158","337352.756802","338119.748447","342020.44816","342787.246574","343553.330188","344320.000297","345069.554474","331220.256351","331986.596885","332752.767994","344329.632472"
