"Condition","Talker","Target","Trial","current_stimulus","response_response","response_time_response","subject_nr","time_Audio1","time_Audio10","time_Audio11","time_Audio12","time_Audio13","time_Audio14","time_Audio15","time_Audio16","time_Audio2","time_Audio3","time_Audio4","time_Audio5","time_Audio6","time_Audio7","time_Audio8","time_Audio9","time_response"
"Blocked","Female","cave","10","F_romp.wav","NA","NA","338","242191.661576","NA","NA","NA","NA","NA","NA","NA","NA","NA","NA","NA","NA","NA","NA","NA","NA"
"Blocked","Female","cave","10","F_jaw.wav","None","717.57183224","338","242191.661576","NA","NA","NA","NA","NA","NA","NA","242958.3221","NA","NA","NA","NA","NA","NA","NA","242206.099481"
"Blocked","Female","cave","10","F_cave.wav","None","721.711920574","338","242191.661576","NA","NA","NA","NA","NA","NA","NA","242958.3221","243724.830823","NA","NA","NA","NA","NA","NA","242968.39175"
"Blocked","Female","cave","10","F_jaw.wav","space","457.502491772","338","242191.661576","NA","NA","NA","NA","NA","NA","NA","242958.3221","243724.830823","244491.688288","NA","NA","NA","NA","NA","243734.937263"
"Blocked","Female","cave","10","F_cave.wav","None","720.459784381","338","242191.661576","NA","NA","NA","NA","NA","NA","NA","242958.3221","243724.830823","244491.688288","245258.124664","NA","NA","NA","NA","244501.483704"
"Blocked","Female","cave","10","F_priest.wav","space","452.194670215","338","242191.661576","NA","NA","NA","NA","NA","NA","NA","242958.3221","243724.830823","244491.688288","245258.124664","246024.749944","NA","NA","NA","245268.182875"
"Blocked","Female","cave","10","F_cad.wav","None","719.819803722","338","242191.661576","NA","NA","NA","NA","NA","NA","NA","242958.3221","243724.830823","244491.688288","245258.124664","246024.749944","246791.586695","NA","NA","246034.551543"
"Blocked","Female","cave","10","F_cave.wav","None","719.30472739","338","242191.661576","NA","NA","NA","NA","NA","NA","NA","242958.3221","243724.830823","244491.688288","245258.124664","246024.749944","246791.586695","247541.596279","NA","246801.285341"
"Blocked","Female","cave","10","F_bluff.wav","space","393.058279529","338","242191.661576","NA","NA","NA","NA","NA","NA","NA","242958.3221","243724.830823","244491.688288","245258.124664","246024.749944","246791.586695","247541.596279","248307.644957","247551.274211"
"Blocked","Female","cave","10","F_romp.wav","None","735.539834481","338","242191.661576","249074.46625","NA","NA","NA","NA","NA","NA","242958.3221","243724.830823","244491.688288","245258.124664","246024.749944","246791.586695","247541.596279","248307.644957","248316.966108"
"Blocked","Female","cave","10","F_gnash.wav","None","734.248433728","338","242191.661576","249074.46625","249841.392351","NA","NA","NA","NA","NA","242958.3221","243724.830823","244491.688288","245258.124664","246024.749944","246791.586695","247541.596279","248307.644957","249084.470974"
"Blocked","Female","cave","10","F_park.wav","None","733.728719875","338","242191.661576","249074.46625","249841.392351","250608.031233","NA","NA","NA","NA","242958.3221","243724.830823","244491.688288","245258.124664","246024.749944","246791.586695","247541.596279","248307.644957","249850.804088"
"Blocked","Female","cave","10","F_knife.wav","None","733.199730515","338","242191.661576","249074.46625","249841.392351","250608.031233","251374.712163","NA","NA","NA","242958.3221","243724.830823","244491.688288","245258.124664","246024.749944","246791.586695","247541.596279","248307.644957","250617.497385"
"Blocked","Female","cave","10","F_cave.wav","None","732.188128401","338","242191.661576","249074.46625","249841.392351","250608.031233","251374.712163","252141.758222","NA","NA","242958.3221","243724.830823","244491.688288","245258.124664","246024.749944","246791.586695","247541.596279","248307.644957","251384.31744"
"Blocked","Female","cave","10","F_bluff.wav","space","336.877239868","338","242191.661576","249074.46625","249841.392351","250608.031233","251374.712163","252141.758222","252908.272819","NA","242958.3221","243724.830823","244491.688288","245258.124664","246024.749944","246791.586695","247541.596279","248307.644957","252151.310322"
"Blocked","Female","cave","10","F_greet.wav","None","730.432973243","338","242191.661576","249074.46625","249841.392351","250608.031233","251374.712163","252141.758222","252908.272819","253674.263991","242958.3221","243724.830823","244491.688288","245258.124664","246024.749944","246791.586695","247541.596279","248307.644957","252917.812243"
"Blocked","Female","tile","17","F_cad.wav","None","731.006482616","338","256841.626392","249074.46625","249841.392351","250608.031233","251374.712163","252141.758222","252908.272819","253674.263991","242958.3221","243724.830823","244491.688288","245258.124664","246024.749944","246791.586695","247541.596279","248307.644957","253683.2769"
"Blocked","Female","tile","17","F_romp.wav","None","719.97253364","338","256841.626392","249074.46625","249841.392351","250608.031233","251374.712163","252141.758222","252908.272819","253674.263991","257607.942193","243724.830823","244491.688288","245258.124664","246024.749944","246791.586695","247541.596279","248307.644957","256853.254874"
"Blocked","Female","tile","17","F_dime.wav","None","720.131446607","338","256841.626392","249074.46625","249841.392351","250608.031233","251374.712163","252141.758222","252908.272819","253674.263991","257607.942193","258374.901684","244491.688288","245258.124664","246024.749944","246791.586695","247541.596279","248307.644957","257619.044777"
"Blocked","Female","tile","17","F_greet.wav","None","720.623953734","338","256841.626392","249074.46625","249841.392351","250608.031233","251374.712163","252141.758222","252908.272819","253674.263991","257607.942193","258374.901684","259141.544277","245258.124664","246024.749944","246791.586695","247541.596279","248307.644957","258384.474807"
"Blocked","Female","tile","17","F_cling.wav","None","719.529184513","338","256841.626392","249074.46625","249841.392351","250608.031233","251374.712163","252141.758222","252908.272819","253674.263991","257607.942193","258374.901684","259141.544277","259907.394777","246024.749944","246791.586695","247541.596279","248307.644957","259151.976273"
"Blocked","Female","tile","17","F_tile.wav","None","722.005940974","338","256841.626392","249074.46625","249841.392351","250608.031233","251374.712163","252141.758222","252908.272819","253674.263991","257607.942193","258374.901684","259141.544277","259907.394777","260674.810603","246791.586695","247541.596279","248307.644957","259919.381587"
"Blocked","Female","tile","17","F_depth.wav","space","435.557642952","338","256841.626392","249074.46625","249841.392351","250608.031233","251374.712163","252141.758222","252908.272819","253674.263991","257607.942193","258374.901684","259141.544277","259907.394777","260674.810603","261441.283461","247541.596279","248307.644957","260684.372596"
"Blocked","Female","tile","17","F_jaw.wav","None","722.670346033","338","256841.626392","249074.46625","249841.392351","250608.031233","251374.712163","252141.758222","252908.272819","253674.263991","257607.942193","258374.901684","259141.544277","259907.394777","260674.810603","261441.283461","262208.105991","248307.644957","261451.385265"
"Blocked","Female","tile","17","F_tile.wav","None","722.344481386","338","256841.626392","249074.46625","249841.392351","250608.031233","251374.712163","252141.758222","252908.272819","253674.263991","257607.942193","258374.901684","259141.544277","259907.394777","260674.810603","261441.283461","262208.105991","262974.69015","262217.763208"
"Blocked","Female","tile","17","F_dime.wav","space","415.400102269","338","256841.626392","263741.569258","249841.392351","250608.031233","251374.712163","252141.758222","252908.272819","253674.263991","257607.942193","258374.901684","259141.544277","259907.394777","260674.810603","261441.283461","262208.105991","262974.69015","262984.429607"
"Blocked","Female","tile","17","F_tile.wav","None","720.613751095","338","256841.626392","263741.569258","264508.231019","250608.031233","251374.712163","252141.758222","252908.272819","253674.263991","257607.942193","258374.901684","259141.544277","259907.394777","260674.810603","261441.283461","262208.105991","262974.69015","263751.338704"
"Blocked","Female","tile","17","F_jolt.wav","space","553.824241273","338","256841.626392","263741.569258","264508.231019","265274.690583","251374.712163","252141.758222","252908.272819","253674.263991","257607.942193","258374.901684","259141.544277","259907.394777","260674.810603","261441.283461","262208.105991","262974.69015","264517.98377"
"Blocked","Female","tile","17","F_priest.wav","None","720.326532144","338","256841.626392","263741.569258","264508.231019","265274.690583","266040.962791","252141.758222","252908.272819","253674.263991","257607.942193","258374.901684","259141.544277","259907.394777","260674.810603","261441.283461","262208.105991","262974.69015","265284.093045"
"Blocked","Female","tile","17","F_lash.wav","None","720.556245185","338","256841.626392","263741.569258","264508.231019","265274.690583","266040.962791","266807.907751","252908.272819","253674.263991","257607.942193","258374.901684","259141.544277","259907.394777","260674.810603","261441.283461","262208.105991","262974.69015","266050.244368"
"Blocked","Female","tile","17","F_tile.wav","None","719.194044359","338","256841.626392","263741.569258","264508.231019","265274.690583","266040.962791","266807.907751","267574.602594","253674.263991","257607.942193","258374.901684","259141.544277","259907.394777","260674.810603","261441.283461","262208.105991","262974.69015","266817.876612"
"Blocked","Female","tile","17","F_dime.wav","space","495.470667258","338","256841.626392","263741.569258","264508.231019","265274.690583","266040.962791","266807.907751","267574.602594","268341.18428","257607.942193","258374.901684","259141.544277","259907.394777","260674.810603","261441.283461","262208.105991","262974.69015","267584.231677"
"Blocked","Female","cave","11","F_bluff.wav","None","719.386966433","338","271457.982013","263741.569258","264508.231019","265274.690583","266040.962791","266807.907751","267574.602594","268341.18428","257607.942193","258374.901684","259141.544277","259907.394777","260674.810603","261441.283461","262208.105991","262974.69015","268351.021125"
"Blocked","Female","cave","11","F_dime.wav","None","722.727233544","338","271457.982013","263741.569258","264508.231019","265274.690583","266040.962791","266807.907751","267574.602594","268341.18428","272224.048624","258374.901684","259141.544277","259907.394777","260674.810603","261441.283461","262208.105991","262974.69015","271467.56132"
"Blocked","Female","cave","11","F_cave.wav","None","722.732488997","338","271457.982013","263741.569258","264508.231019","265274.690583","266040.962791","266807.907751","267574.602594","268341.18428","272224.048624","272991.402925","259141.544277","259907.394777","260674.810603","261441.283461","262208.105991","262974.69015","272233.636278"
"Blocked","Female","cave","11","F_depth.wav","space","366.462285165","338","271457.982013","263741.569258","264508.231019","265274.690583","266040.962791","266807.907751","267574.602594","268341.18428","272224.048624","272991.402925","273757.480665","259907.394777","260674.810603","261441.283461","262208.105991","262974.69015","273001.086112"
"Blocked","Female","cave","11","F_park.wav","None","720.643430948","338","271457.982013","263741.569258","264508.231019","265274.690583","266040.962791","266807.907751","267574.602594","268341.18428","272224.048624","272991.402925","273757.480665","274524.348333","260674.810603","261441.283461","262208.105991","262974.69015","273767.666871"
"Blocked","Female","cave","11","F_jaw.wav","None","720.84222734","338","271457.982013","263741.569258","264508.231019","265274.690583","266040.962791","266807.907751","267574.602594","268341.18428","272224.048624","272991.402925","273757.480665","274524.348333","275290.915179","261441.283461","262208.105991","262974.69015","274534.130764"
"Blocked","Female","cave","11","F_bluff.wav","None","720.092182048","338","271457.982013","263741.569258","264508.231019","265274.690583","266040.962791","266807.907751","267574.602594","268341.18428","272224.048624","272991.402925","273757.480665","274524.348333","275290.915179","276057.726269","262208.105991","262974.69015","275300.961331"
"Blocked","Female","cave","11","F_romp.wav","None","719.811765011","338","271457.982013","263741.569258","264508.231019","265274.690583","266040.962791","266807.907751","267574.602594","268341.18428","272224.048624","272991.402925","273757.480665","274524.348333","275290.915179","276057.726269","276824.282294","262974.69015","276067.585065"
"Blocked","Female","cave","11","F_cave.wav","None","719.724270515","338","271457.982013","263741.569258","264508.231019","265274.690583","266040.962791","266807.907751","267574.602594","268341.18428","272224.048624","272991.402925","273757.480665","274524.348333","275290.915179","276057.726269","276824.282294","277590.936944","276834.480867"
"Blocked","Female","cave","11","F_cling.wav","space","310.885362327","338","271457.982013","278357.443502","264508.231019","265274.690583","266040.962791","266807.907751","267574.602594","268341.18428","272224.048624","272991.402925","273757.480665","274524.348333","275290.915179","276057.726269","276824.282294","277590.936944","277600.553042"
"Blocked","Female","cave","11","F_cave.wav","None","719.929249957","338","271457.982013","278357.443502","279124.245317","265274.690583","266040.962791","266807.907751","267574.602594","268341.18428","272224.048624","272991.402925","273757.480665","274524.348333","275290.915179","276057.726269","276824.282294","277590.936944","278367.61054"
"Blocked","Female","cave","11","F_depth.wav","space","656.368953176","338","271457.982013","278357.443502","279124.245317","279890.874925","266040.962791","266807.907751","267574.602594","268341.18428","272224.048624","272991.402925","273757.480665","274524.348333","275290.915179","276057.726269","276824.282294","277590.936944","279134.046608"
"Blocked","Female","cave","11","F_jaw.wav","None","719.461785629","338","271457.982013","278357.443502","279124.245317","279890.874925","280640.800724","266807.907751","267574.602594","268341.18428","272224.048624","272991.402925","273757.480665","274524.348333","275290.915179","276057.726269","276824.282294","277590.936944","279900.533379"
"Blocked","Female","cave","11","F_cave.wav","None","735.578790307","338","271457.982013","278357.443502","279124.245317","279890.874925","280640.800724","281406.824978","267574.602594","268341.18428","272224.048624","272991.402925","273757.480665","274524.348333","275290.915179","276057.726269","276824.282294","277590.936944","280650.361481"
"Blocked","Female","cave","11","F_depth.wav","space","399.311232381","338","271457.982013","278357.443502","279124.245317","279890.874925","280640.800724","281406.824978","282173.43789","268341.18428","272224.048624","272991.402925","273757.480665","274524.348333","275290.915179","276057.726269","276824.282294","277590.936944","281415.997418"
"Blocked","Female","cave","11","F_cad.wav","None","734.8222523","338","271457.982013","278357.443502","279124.245317","279890.874925","280640.800724","281406.824978","282173.43789","282940.412531","272224.048624","272991.402925","273757.480665","274524.348333","275290.915179","276057.726269","276824.282294","277590.936944","282183.053061"
"Blocked","Female","tile","18","F_romp.wav","None","734.347986523","338","286073.899233","278357.443502","279124.245317","279890.874925","280640.800724","281406.824978","282173.43789","282940.412531","272224.048624","272991.402925","273757.480665","274524.348333","275290.915179","276057.726269","276824.282294","277590.936944","282949.817775"
"Blocked","Female","tile","18","F_jolt.wav","None","723.264260683","338","286073.899233","278357.443502","279124.245317","279890.874925","280640.800724","281406.824978","282173.43789","282940.412531","286840.77092","272991.402925","273757.480665","274524.348333","275290.915179","276057.726269","276824.282294","277590.936944","286083.712272"
"Blocked","Female","tile","18","F_jolt.wav","None","723.617641255","338","286073.899233","278357.443502","279124.245317","279890.874925","280640.800724","281406.824978","282173.43789","282940.412531","286840.77092","287606.828255","273757.480665","274524.348333","275290.915179","276057.726269","276824.282294","277590.936944","286850.078467"
"Blocked","Female","tile","18","F_depth.wav","None","723.65845181","338","286073.899233","278357.443502","279124.245317","279890.874925","280640.800724","281406.824978","282173.43789","282940.412531","286840.77092","287606.828255","288374.112065","274524.348333","275290.915179","276057.726269","276824.282294","277590.936944","287616.341399"
"Blocked","Female","tile","18","F_bluff.wav","None","722.667254508","338","286073.899233","278357.443502","279124.245317","279890.874925","280640.800724","281406.824978","282173.43789","282940.412531","286840.77092","287606.828255","288374.112065","289140.530819","275290.915179","276057.726269","276824.282294","277590.936944","288383.685189"
"Blocked","Female","tile","18","F_gnash.wav","None","723.105347715","338","286073.899233","278357.443502","279124.245317","279890.874925","280640.800724","281406.824978","282173.43789","282940.412531","286840.77092","287606.828255","288374.112065","289140.530819","289907.467432","276057.726269","276824.282294","277590.936944","289150.177216"
"Blocked","Female","tile","18","F_greet.wav","None","722.743000835","338","286073.899233","278357.443502","279124.245317","279890.874925","280640.800724","281406.824978","282173.43789","282940.412531","286840.77092","287606.828255","288374.112065","289140.530819","289907.467432","290673.902263","276824.282294","277590.936944","289917.170407"
"Blocked","Female","tile","18","F_tile.wav","None","722.301506903","338","286073.899233","278357.443502","279124.245317","279890.874925","280640.800724","281406.824978","282173.43789","282940.412531","286840.77092","287606.828255","288374.112065","289140.530819","289907.467432","290673.902263","291440.405729","277590.936944","290683.832168"
"Blocked","Female","tile","18","F_jolt.wav","space","396.462544333","338","286073.899233","278357.443502","279124.245317","279890.874925","280640.800724","281406.824978","282173.43789","282940.412531","286840.77092","287606.828255","288374.112065","289140.530819","289907.467432","290673.902263","291440.405729","292206.147402","291450.535976"
"Blocked","Female","tile","18","F_tile.wav","None","726.97460372","338","286073.899233","292973.503558","279124.245317","279890.874925","280640.800724","281406.824978","282173.43789","282940.412531","286840.77092","287606.828255","288374.112065","289140.530819","289907.467432","290673.902263","291440.405729","292206.147402","292215.006035"
"Blocked","Female","tile","18","F_gnash.wav","space","576.298388187","338","286073.899233","292973.503558","293740.076897","279890.874925","280640.800724","281406.824978","282173.43789","282940.412531","286840.77092","287606.828255","288374.112065","289140.530819","289907.467432","290673.902263","291440.405729","292206.147402","292982.654974"
"Blocked","Female","tile","18","F_tile.wav","None","724.902240559","338","286073.899233","292973.503558","293740.076897","294506.738967","280640.800724","281406.824978","282173.43789","282940.412531","286840.77092","287606.828255","288374.112065","289140.530819","289907.467432","290673.902263","291440.405729","292206.147402","293749.739988"
"Blocked","Female","tile","18","F_knife.wav","space","490.896814037","338","286073.899233","292973.503558","293740.076897","294506.738967","295273.911785","281406.824978","282173.43789","282940.412531","286840.77092","287606.828255","288374.112065","289140.530819","289907.467432","290673.902263","291440.405729","292206.147402","294516.011268"
"Blocked","Female","tile","18","F_tile.wav","None","724.214338697","338","286073.899233","292973.503558","293740.076897","294506.738967","295273.911785","296039.974994","282173.43789","282940.412531","286840.77092","287606.828255","288374.112065","289140.530819","289907.467432","290673.902263","291440.405729","292206.147402","295283.371753"
"Blocked","Female","tile","18","F_reek.wav","space","485.098340549","338","286073.899233","292973.503558","293740.076897","294506.738967","295273.911785","296039.974994","296806.55699","282940.412531","286840.77092","287606.828255","288374.112065","289140.530819","289907.467432","290673.902263","291440.405729","292206.147402","296049.752788"
"Blocked","Female","tile","18","F_bluff.wav","None","724.837315269","338","286073.899233","292973.503558","293740.076897","294506.738967","295273.911785","296039.974994","296806.55699","297573.34922","286840.77092","287606.828255","288374.112065","289140.530819","289907.467432","290673.902263","291440.405729","292206.147402","296816.021285"
"Blocked","Female","done","24","F_reek.wav","None","724.695406388","338","300706.668353","292973.503558","293740.076897","294506.738967","295273.911785","296039.974994","296806.55699","297573.34922","286840.77092","287606.828255","288374.112065","289140.530819","289907.467432","290673.902263","291440.405729","292206.147402","297582.913687"
"Blocked","Female","done","24","F_lash.wav","None","722.036548425","338","300706.668353","292973.503558","293740.076897","294506.738967","295273.911785","296039.974994","296806.55699","297573.34922","301473.664326","287606.828255","288374.112065","289140.530819","289907.467432","290673.902263","291440.405729","292206.147402","300716.802619"
"Blocked","Female","done","24","F_cling.wav","None","722.136410419","338","300706.668353","292973.503558","293740.076897","294506.738967","295273.911785","296039.974994","296806.55699","297573.34922","301473.664326","302240.173976","288374.112065","289140.530819","289907.467432","290673.902263","291440.405729","292206.147402","301483.175307"
"Blocked","Female","done","24","F_depth.wav","None","722.170728259","338","300706.668353","292973.503558","293740.076897","294506.738967","295273.911785","296039.974994","296806.55699","297573.34922","301473.664326","302240.173976","303006.802037","289140.530819","289907.467432","290673.902263","291440.405729","292206.147402","302249.922089"
"Blocked","Female","done","24","F_lash.wav","None","727.219774853","338","300706.668353","292973.503558","293740.076897","294506.738967","295273.911785","296039.974994","296806.55699","297573.34922","301473.664326","302240.173976","303006.802037","303773.38125","289907.467432","290673.902263","291440.405729","292206.147402","303011.075996"
"Blocked","Female","done","24","F_done.wav","None","720.970532391","338","300706.668353","292973.503558","293740.076897","294506.738967","295273.911785","296039.974994","296806.55699","297573.34922","301473.664326","302240.173976","303006.802037","303773.38125","304539.790729","290673.902263","291440.405729","292206.147402","303783.413182"
"Blocked","Female","done","24","F_gnash.wav","space","433.777444996","338","300706.668353","292973.503558","293740.076897","294506.738967","295273.911785","296039.974994","296806.55699","297573.34922","301473.664326","302240.173976","303006.802037","303773.38125","304539.790729","305306.770626","291440.405729","292206.147402","304548.841047"
"Blocked","Female","done","24","F_done.wav","None","720.049516298","338","300706.668353","292973.503558","293740.076897","294506.738967","295273.911785","296039.974994","296806.55699","297573.34922","301473.664326","302240.173976","303006.802037","303773.38125","304539.790729","305306.770626","306073.415692","292206.147402","305316.029015"
"Blocked","Female","done","24","F_gnash.wav","space","499.287673738","338","300706.668353","292973.503558","293740.076897","294506.738967","295273.911785","296039.974994","296806.55699","297573.34922","301473.664326","302240.173976","303006.802037","303773.38125","304539.790729","305306.770626","306073.415692","306839.573507","306083.265522"
"Blocked","Female","done","24","F_bluff.wav","None","719.827532768","338","300706.668353","307589.887005","293740.076897","294506.738967","295273.911785","296039.974994","296806.55699","297573.34922","301473.664326","302240.173976","303006.802037","303773.38125","304539.790729","305306.770626","306073.415692","306839.573507","306848.708537"
"Blocked","Female","done","24","F_done.wav","None","735.797681846","338","300706.668353","307589.887005","308356.612145","294506.738967","295273.911785","296039.974994","296806.55699","297573.34922","301473.664326","302240.173976","303006.802037","303773.38125","304539.790729","305306.770626","306073.415692","306839.573507","307599.165181"
"Blocked","Female","done","24","F_jaw.wav","space","423.862070777","338","300706.668353","307589.887005","308356.612145","309122.649075","295273.911785","296039.974994","296806.55699","297573.34922","301473.664326","302240.173976","303006.802037","303773.38125","304539.790729","305306.770626","306073.415692","306839.573507","308366.603266"
"Blocked","Female","done","24","F_jaw.wav","None","735.256325919","338","300706.668353","307589.887005","308356.612145","309122.649075","309889.645976","296039.974994","296806.55699","297573.34922","301473.664326","302240.173976","303006.802037","303773.38125","304539.790729","305306.770626","306073.415692","306839.573507","309132.071943"
"Blocked","Female","done","24","F_done.wav","None","734.570278786","338","300706.668353","307589.887005","308356.612145","309122.649075","309889.645976","310656.055764","296806.55699","297573.34922","301473.664326","302240.173976","303006.802037","303773.38125","304539.790729","305306.770626","306073.415692","306839.573507","309899.378631"
"Blocked","Female","done","24","F_jolt.wav","space","364.626746159","338","300706.668353","307589.887005","308356.612145","309122.649075","309889.645976","310656.055764","311422.773176","297573.34922","301473.664326","302240.173976","303006.802037","303773.38125","304539.790729","305306.770626","306073.415692","306839.573507","310673.801164"
"Blocked","Female","done","24","F_romp.wav","None","733.155519702","338","300706.668353","307589.887005","308356.612145","309122.649075","309889.645976","310656.055764","311422.773176","312189.574372","301473.664326","302240.173976","303006.802037","303773.38125","304539.790729","305306.770626","306073.415692","306839.573507","311433.055843"
"Blocked","Female","tile","13","F_knife.wav","None","733.298355713","338","315323.194326","307589.887005","308356.612145","309122.649075","309889.645976","310656.055764","311422.773176","312189.574372","301473.664326","302240.173976","303006.802037","303773.38125","304539.790729","305306.770626","306073.415692","306839.573507","312199.276111"
"Blocked","Female","tile","13","F_depth.wav","None","722.514525056","338","315323.194326","307589.887005","308356.612145","309122.649075","309889.645976","310656.055764","311422.773176","312189.574372","316089.829499","302240.173976","303006.802037","303773.38125","304539.790729","305306.770626","306073.415692","306839.573507","315332.952642"
"Blocked","Female","tile","13","F_gnash.wav","None","721.652251203","338","315323.194326","307589.887005","308356.612145","309122.649075","309889.645976","310656.055764","311422.773176","312189.574372","316089.829499","316855.88838","303006.802037","303773.38125","304539.790729","305306.770626","306073.415692","306839.573507","316099.964384"
"Blocked","Female","tile","13","F_tile.wav","None","722.539876588","338","315323.194326","307589.887005","308356.612145","309122.649075","309889.645976","310656.055764","311422.773176","312189.574372","316089.829499","316855.88838","317622.698851","303773.38125","304539.790729","305306.770626","306073.415692","306839.573507","316865.34742"
"Blocked","Female","tile","13","F_lash.wav","space","556.807108223","338","315323.194326","307589.887005","308356.612145","309122.649075","309889.645976","310656.055764","311422.773176","312189.574372","316089.829499","316855.88838","317622.698851","318389.68926","304539.790729","305306.770626","306073.415692","306839.573507","317633.410337"
"Blocked","Female","tile","13","F_jolt.wav","None","721.182313282","338","315323.194326","307589.887005","308356.612145","309122.649075","309889.645976","310656.055764","311422.773176","312189.574372","316089.829499","316855.88838","317622.698851","318389.68926","319156.365861","305306.770626","306073.415692","306839.573507","318399.564133"
"Blocked","Female","tile","13","F_cling.wav","None","720.957856625","338","315323.194326","307589.887005","308356.612145","309122.649075","309889.645976","310656.055764","311422.773176","312189.574372","316089.829499","316855.88838","317622.698851","318389.68926","319156.365861","319923.000106","306073.415692","306839.573507","319166.411396"
"Blocked","Female","tile","13","F_jolt.wav","None","720.508014783","338","315323.194326","307589.887005","308356.612145","309122.649075","309889.645976","310656.055764","311422.773176","312189.574372","316089.829499","316855.88838","317622.698851","318389.68926","319156.365861","319923.000106","320689.468946","306839.573507","319933.253094"
"Blocked","Female","tile","13","F_tile.wav","None","721.531675197","338","315323.194326","307589.887005","308356.612145","309122.649075","309889.645976","310656.055764","311422.773176","312189.574372","316089.829499","316855.88838","317622.698851","318389.68926","319156.365861","319923.000106","320689.468946","321456.07722","320698.648497"
"Blocked","Female","tile","13","F_lash.wav","space","363.914110232","338","315323.194326","322222.875325","308356.612145","309122.649075","309889.645976","310656.055764","311422.773176","312189.574372","316089.829499","316855.88838","317622.698851","318389.68926","319156.365861","319923.000106","320689.468946","321456.07722","321466.205612"
"Blocked","Female","tile","13","F_cad.wav","None","719.846082851","338","315323.194326","322222.875325","322989.233791","309122.649075","309889.645976","310656.055764","311422.773176","312189.574372","316089.829499","316855.88838","317622.698851","318389.68926","319156.365861","319923.000106","320689.468946","321456.07722","322232.816052"
"Blocked","Female","tile","13","F_tile.wav","None","720.158962533","338","315323.194326","322222.875325","322989.233791","323755.448494","309889.645976","310656.055764","311422.773176","312189.574372","316089.829499","316855.88838","317622.698851","318389.68926","319156.365861","319923.000106","320689.468946","321456.07722","322999.466683"
"Blocked","Female","tile","13","F_greet.wav","space","369.641783647","338","315323.194326","322222.875325","322989.233791","323755.448494","324522.816398","310656.055764","311422.773176","312189.574372","316089.829499","316855.88838","317622.698851","318389.68926","319156.365861","319923.000106","320689.468946","321456.07722","323764.332169"
"Blocked","Female","tile","13","F_tile.wav","None","725.648266729","338","315323.194326","322222.875325","322989.233791","323755.448494","324522.816398","325289.109629","311422.773176","312189.574372","316089.829499","316855.88838","317622.698851","318389.68926","319156.365861","319923.000106","320689.468946","321456.07722","324532.46465"
"Blocked","Female","tile","13","F_dime.wav","space","442.78880721","338","315323.194326","322222.875325","322989.233791","323755.448494","324522.816398","325289.109629","326055.578468","312189.574372","316089.829499","316855.88838","317622.698851","318389.68926","319156.365861","319923.000106","320689.468946","321456.07722","325299.204322"
"Blocked","Female","tile","13","F_cling.wav","None","725.510995369","338","315323.194326","322222.875325","322989.233791","323755.448494","324522.816398","325289.109629","326055.578468","326822.475817","316089.829499","316855.88838","317622.698851","318389.68926","319156.365861","319923.000106","320689.468946","321456.07722","326065.162413"
"Blocked","Female","tile","14","F_cling.wav","None","725.165653042","338","329956.24479","322222.875325","322989.233791","323755.448494","324522.816398","325289.109629","326055.578468","326822.475817","316089.829499","316855.88838","317622.698851","318389.68926","319156.365861","319923.000106","320689.468946","321456.07722","326831.772233"
"Blocked","Female","tile","14","F_greet.wav","None","722.199480981","338","329956.24479","322222.875325","322989.233791","323755.448494","324522.816398","325289.109629","326055.578468","326822.475817","330722.70621","316855.88838","317622.698851","318389.68926","319156.365861","319923.000106","320689.468946","321456.07722","329965.856869"
"Blocked","Female","tile","14","F_park.wav","None","722.376326099","338","329956.24479","322222.875325","322989.233791","323755.448494","324522.816398","325289.109629","326055.578468","326822.475817","330722.70621","331489.426404","317622.698851","318389.68926","319156.365861","319923.000106","320689.468946","321456.07722","330732.761638"
"Blocked","Female","tile","14","F_tile.wav","None","722.541113384","338","329956.24479","322222.875325","322989.233791","323755.448494","324522.816398","325289.109629","326055.578468","326822.475817","330722.70621","331489.426404","332256.203485","318389.68926","319156.365861","319923.000106","320689.468946","321456.07722","331499.465446"
"Blocked","Female","tile","14","F_gnash.wav","space","395.507211331","338","329956.24479","322222.875325","322989.233791","323755.448494","324522.816398","325289.109629","326055.578468","326822.475817","330722.70621","331489.426404","332256.203485","333022.631514","319156.365861","319923.000106","320689.468946","321456.07722","332266.264787"
"Blocked","Female","tile","14","F_cad.wav","None","721.561664715","338","329956.24479","322222.875325","322989.233791","323755.448494","324522.816398","325289.109629","326055.578468","326822.475817","330722.70621","331489.426404","332256.203485","333022.631514","333789.037901","319923.000106","320689.468946","321456.07722","333033.074641"
"Blocked","Female","tile","14","F_tile.wav","None","722.122188658","338","329956.24479","322222.875325","322989.233791","323755.448494","324522.816398","325289.109629","326055.578468","326822.475817","330722.70621","331489.426404","332256.203485","333022.631514","333789.037901","334555.729343","320689.468946","321456.07722","333798.894224"
"Blocked","Female","tile","14","F_cad.wav","space","415.896937717","338","329956.24479","322222.875325","322989.233791","323755.448494","324522.816398","325289.109629","326055.578468","326822.475817","330722.70621","331489.426404","332256.203485","333022.631514","333789.037901","334555.729343","335322.520955","321456.07722","334565.819089"
"Blocked","Female","tile","14","F_jaw.wav","None","721.055245027","338","329956.24479","322222.875325","322989.233791","323755.448494","324522.816398","325289.109629","326055.578468","326822.475817","330722.70621","331489.426404","332256.203485","333022.631514","333789.037901","334555.729343","335322.520955","336088.993814","335332.627087"
"Blocked","Female","tile","14","F_lash.wav","None","720.785030629","338","329956.24479","336855.671343","322989.233791","323755.448494","324522.816398","325289.109629","326055.578468","326822.475817","330722.70621","331489.426404","332256.203485","333022.631514","333789.037901","334555.729343","335322.520955","336088.993814","336099.250202"
"Blocked","Female","tile","14","F_tile.wav","None","720.666309819","338","329956.24479","336855.671343","337622.461719","323755.448494","324522.816398","325289.109629","326055.578468","326822.475817","330722.70621","331489.426404","332256.203485","333022.631514","333789.037901","334555.729343","335322.520955","336088.993814","336865.705129"
"Blocked","Female","tile","14","F_lash.wav","space","365.41945627","338","329956.24479","336855.671343","337622.461719","338389.084524","324522.816398","325289.109629","326055.578468","326822.475817","330722.70621","331489.426404","332256.203485","333022.631514","333789.037901","334555.729343","335322.520955","336088.993814","337632.187881"
"Blocked","Female","tile","14","F_tile.wav","None","719.705102034","338","329956.24479","336855.671343","337622.461719","338389.084524","339156.43697","325289.109629","326055.578468","326822.475817","330722.70621","331489.426404","332256.203485","333022.631514","333789.037901","334555.729343","335322.520955","336088.993814","338399.190038"
"Blocked","Female","tile","14","F_romp.wav","space","575.058927294","338","329956.24479","336855.671343","337622.461719","338389.084524","339156.43697","339922.467407","326055.578468","326822.475817","330722.70621","331489.426404","332256.203485","333022.631514","333789.037901","334555.729343","335322.520955","336088.993814","339166.481887"
"Blocked","Female","tile","14","F_romp.wav","None","719.240729231","338","329956.24479","336855.671343","337622.461719","338389.084524","339156.43697","339922.467407","340688.998699","326822.475817","330722.70621","331489.426404","332256.203485","333022.631514","333789.037901","334555.729343","335322.520955","336088.993814","339932.686386"
"Blocked","Female","tile","14","F_cling.wav","None","719.36346963","338","329956.24479","336855.671343","337622.461719","338389.084524","339156.43697","339922.467407","340688.998699","341455.559671","330722.70621","331489.426404","332256.203485","333022.631514","333789.037901","334555.729343","335322.520955","336088.993814","340699.088444"
"Blocked","Female","done","22","F_lash.wav","None","720.109804533","338","344588.810786","336855.671343","337622.461719","338389.084524","339156.43697","339922.467407","340688.998699","341455.559671","330722.70621","331489.426404","332256.203485","333022.631514","333789.037901","334555.729343","335322.520955","336088.993814","341465.516474"
"Blocked","Female","done","22","F_gnash.wav","None","721.607421525","338","344588.810786","336855.671343","337622.461719","338389.084524","339156.43697","339922.467407","340688.998699","341455.559671","345356.011429","331489.426404","332256.203485","333022.631514","333789.037901","334555.729343","335322.520955","336088.993814","344598.966694"
"Blocked","Female","done","22","F_done.wav","None","721.422538161","338","344588.810786","336855.671343","337622.461719","338389.084524","339156.43697","339922.467407","340688.998699","341455.559671","345356.011429","346122.236952","332256.203485","333022.631514","333789.037901","334555.729343","335322.520955","336088.993814","345365.714713"
"Blocked","Female","done","22","F_jolt.wav","space","393.30777945","338","344588.810786","336855.671343","337622.461719","338389.084524","339156.43697","339922.467407","340688.998699","341455.559671","345356.011429","346122.236952","346888.884183","333022.631514","333789.037901","334555.729343","335322.520955","336088.993814","346132.044735"
"Blocked","Female","done","22","F_priest.wav","None","720.531202853","338","344588.810786","336855.671343","337622.461719","338389.084524","339156.43697","339922.467407","340688.998699","341455.559671","345356.011429","346122.236952","346888.884183","347655.816467","333789.037901","334555.729343","335322.520955","336088.993814","346899.536307"
"Blocked","Female","done","22","F_done.wav","None","720.649923664","338","344588.810786","336855.671343","337622.461719","338389.084524","339156.43697","339922.467407","340688.998699","341455.559671","345356.011429","346122.236952","346888.884183","347655.816467","348422.425978","334555.729343","335322.520955","336088.993814","347665.820264"
"Blocked","Female","done","22","F_lash.wav","space","404.639767949","338","344588.810786","336855.671343","337622.461719","338389.084524","339156.43697","339922.467407","340688.998699","341455.559671","345356.011429","346122.236952","346888.884183","347655.816467","348422.425978","349188.912131","335322.520955","336088.993814","348432.670309"
"Blocked","Female","done","22","F_dime.wav","None","719.766935799","338","344588.810786","336855.671343","337622.461719","338389.084524","339156.43697","339922.467407","340688.998699","341455.559671","345356.011429","346122.236952","346888.884183","347655.816467","348422.425978","349188.912131","349955.50031","336088.993814","349199.536122"
"Blocked","Female","done","22","F_done.wav","space","495.988216717","338","344588.810786","336855.671343","337622.461719","338389.084524","339156.43697","339922.467407","340688.998699","341455.559671","345356.011429","346122.236952","346888.884183","347655.816467","348422.425978","349188.912131","349955.50031","350722.082924","349965.2611"
"Blocked","Female","done","22","F_jaw.wav","space","640.99735627","338","344588.810786","351488.907618","337622.461719","338389.084524","339156.43697","339922.467407","340688.998699","341455.559671","345356.011429","346122.236952","346888.884183","347655.816467","348422.425978","349188.912131","349955.50031","350722.082924","350732.112072"
"Blocked","Female","done","22","F_done.wav","None","602.197514847","338","344588.810786","351488.907618","352255.336265","338389.084524","339156.43697","339922.467407","340688.998699","341455.559671","345356.011429","346122.236952","346888.884183","347655.816467","348422.425978","349188.912131","349955.50031","350722.082924","351615.436152"
"Blocked","Female","done","22","F_depth.wav","space","563.760329504","338","344588.810786","351488.907618","352255.336265","353005.245369","339156.43697","339922.467407","340688.998699","341455.559671","345356.011429","346122.236952","346888.884183","347655.816467","348422.425978","349188.912131","349955.50031","350722.082924","352265.405606"
"Blocked","Female","done","22","F_lash.wav","None","734.827817418","338","344588.810786","351488.907618","352255.336265","353005.245369","353771.237469","339922.467407","340688.998699","341455.559671","345356.011429","346122.236952","346888.884183","347655.816467","348422.425978","349188.912131","349955.50031","350722.082924","353015.319038"
"Blocked","Female","done","22","F_priest.wav","None","736.014409922","338","344588.810786","351488.907618","352255.336265","353005.245369","353771.237469","354538.277963","340688.998699","341455.559671","345356.011429","346122.236952","346888.884183","347655.816467","348422.425978","349188.912131","349955.50031","350722.082924","353780.689089"
"Blocked","Female","done","22","F_lash.wav","None","733.420168515","338","344588.810786","351488.907618","352255.336265","353005.245369","353771.237469","354538.277963","355305.098947","341455.559671","345356.011429","346122.236952","346888.884183","347655.816467","348422.425978","349188.912131","349955.50031","350722.082924","354549.966115"
"Blocked","Female","done","22","F_knife.wav","None","735.414002556","338","344588.810786","351488.907618","352255.336265","353005.245369","353771.237469","354538.277963","355305.098947","356071.41351","345356.011429","346122.236952","346888.884183","347655.816467","348422.425978","349188.912131","349955.50031","350722.082924","355314.843041"
"Blocked","Female","ball","1","F_lash.wav","None","735.489130951","338","359205.1392","351488.907618","352255.336265","353005.245369","353771.237469","354538.277963","355305.098947","356071.41351","345356.011429","346122.236952","346888.884183","347655.816467","348422.425978","349188.912131","349955.50031","350722.082924","356081.424418"
"Blocked","Female","ball","1","F_knife.wav","None","722.688587382","338","359205.1392","351488.907618","352255.336265","353005.245369","353771.237469","354538.277963","355305.098947","356071.41351","359971.840226","346122.236952","346888.884183","347655.816467","348422.425978","349188.912131","349955.50031","350722.082924","359215.133104"
"Blocked","Female","ball","1","F_park.wav","None","722.807617392","338","359205.1392","351488.907618","352255.336265","353005.245369","353771.237469","354538.277963","355305.098947","356071.41351","359971.840226","360738.022465","346888.884183","347655.816467","348422.425978","349188.912131","349955.50031","350722.082924","359982.049311"
"Blocked","Female","ball","1","F_park.wav","None","724.132408854","338","359205.1392","351488.907618","352255.336265","353005.245369","353771.237469","354538.277963","355305.098947","356071.41351","359971.840226","360738.022465","361504.262829","347655.816467","348422.425978","349188.912131","349955.50031","350722.082924","360747.927018"
"Blocked","Female","ball","1","F_ball.wav","None","725.609929767","338","359205.1392","351488.907618","352255.336265","353005.245369","353771.237469","354538.277963","355305.098947","356071.41351","359971.840226","360738.022465","361504.262829","362270.973438","348422.425978","349188.912131","349955.50031","350722.082924","361513.276355"
"Blocked","Female","ball","1","F_reek.wav","space","500.610300805","338","359205.1392","351488.907618","352255.336265","353005.245369","353771.237469","354538.277963","355305.098947","356071.41351","359971.840226","360738.022465","361504.262829","362270.973438","363038.236225","349188.912131","349955.50031","350722.082924","362280.250687"
"Blocked","Female","ball","1","F_greet.wav","None","722.799269948","338","359205.1392","351488.907618","352255.336265","353005.245369","353771.237469","354538.277963","355305.098947","356071.41351","359971.840226","360738.022465","361504.262829","362270.973438","363038.236225","363804.585107","349955.50031","350722.082924","363049.062413"
"Blocked","Female","ball","1","F_ball.wav","None","724.715502467","338","359205.1392","351488.907618","352255.336265","353005.245369","353771.237469","354538.277963","355305.098947","356071.41351","359971.840226","360738.022465","361504.262829","362270.973438","363038.236225","363804.585107","364571.328489","350722.082924","363814.865301"
"Blocked","Female","ball","1","F_knife.wav","space","391.840151977","338","359205.1392","351488.907618","352255.336265","353005.245369","353771.237469","354538.277963","355305.098947","356071.41351","359971.840226","360738.022465","361504.262829","362270.973438","363038.236225","363804.585107","364571.328489","365337.859162","364580.973958"
"Blocked","Female","ball","1","F_cad.wav","None","724.894511048","338","359205.1392","366104.513503","352255.336265","353005.245369","353771.237469","354538.277963","355305.098947","356071.41351","359971.840226","360738.022465","361504.262829","362270.973438","363038.236225","363804.585107","364571.328489","365337.859162","365347.366123"
"Blocked","Female","ball","1","F_cad.wav","None","725.001793355","338","359205.1392","366104.513503","366870.847854","353005.245369","353771.237469","354538.277963","355305.098947","356071.41351","359971.840226","360738.022465","361504.262829","362270.973438","363038.236225","363804.585107","364571.328489","365337.859162","366114.226989"
"Blocked","Female","ball","1","F_ball.wav","None","725.52552633","338","359205.1392","366104.513503","366870.847854","367637.890821","353771.237469","354538.277963","355305.098947","356071.41351","359971.840226","360738.022465","361504.262829","362270.973438","363038.236225","363804.585107","364571.328489","365337.859162","366880.193429"
"Blocked","Female","ball","1","F_bluff.wav","space","380.975318141","338","359205.1392","366104.513503","366870.847854","367637.890821","368405.192254","354538.277963","355305.098947","356071.41351","359971.840226","360738.022465","361504.262829","362270.973438","363038.236225","363804.585107","364571.328489","365337.859162","367647.768477"
"Blocked","Female","ball","1","F_jolt.wav","None","723.008886445","338","359205.1392","366104.513503","366870.847854","367637.890821","368405.192254","369171.679025","355305.098947","356071.41351","359971.840226","360738.022465","361504.262829","362270.973438","363038.236225","363804.585107","364571.328489","365337.859162","368414.813917"
"Blocked","Female","ball","1","F_ball.wav","None","723.013523966","338","359205.1392","366104.513503","366870.847854","367637.890821","368405.192254","369171.679025","369938.16827","356071.41351","359971.840226","360738.022465","361504.262829","362270.973438","363038.236225","363804.585107","364571.328489","365337.859162","369181.721777"
"Blocked","Female","ball","1","F_cling.wav","space","584.459534846","338","359205.1392","366104.513503","366870.847854","367637.890821","368405.192254","369171.679025","369938.16827","370705.125288","359971.840226","360738.022465","361504.262829","362270.973438","363038.236225","363804.585107","364571.328489","365337.859162","369948.214113"
"Blocked","Female","tile","15","F_knife.wav","None","721.931430977","338","373838.027041","366104.513503","366870.847854","367637.890821","368405.192254","369171.679025","369938.16827","370705.125288","359971.840226","360738.022465","361504.262829","362270.973438","363038.236225","363804.585107","364571.328489","365337.859162","370715.235129"
"Blocked","Female","tile","15","F_romp.wav","None","720.902205911","338","373838.027041","366104.513503","366870.847854","367637.890821","368405.192254","369171.679025","369938.16827","370705.125288","374604.001518","360738.022465","361504.262829","362270.973438","363038.236225","363804.585107","364571.328489","365337.859162","373848.827258"
"Blocked","Female","tile","15","F_tile.wav","None","723.380508833","338","373838.027041","366104.513503","366870.847854","367637.890821","368405.192254","369171.679025","369938.16827","370705.125288","374604.001518","375371.355201","361504.262829","362270.973438","363038.236225","363804.585107","364571.328489","365337.859162","374613.4114"
"Blocked","Female","tile","15","F_greet.wav","space","407.171247527","338","373838.027041","366104.513503","366870.847854","367637.890821","368405.192254","369171.679025","369938.16827","370705.125288","374604.001518","375371.355201","376137.887729","362270.973438","363038.236225","363804.585107","364571.328489","365337.859162","375381.249242"
"Blocked","Female","tile","15","F_tile.wav","None","721.324222628","338","373838.027041","366104.513503","366870.847854","367637.890821","368405.192254","369171.679025","369938.16827","370705.125288","374604.001518","375371.355201","376137.887729","376904.457977","363038.236225","363804.585107","364571.328489","365337.859162","376148.101452"
"Blocked","Female","tile","15","F_bluff.wav","space","482.388470322","338","373838.027041","366104.513503","366870.847854","367637.890821","368405.192254","369171.679025","369938.16827","370705.125288","374604.001518","375371.355201","376137.887729","376904.457977","377671.2601","363804.585107","364571.328489","365337.859162","376914.063253"
"Blocked","Female","tile","15","F_knife.wav","None","720.719177742","338","373838.027041","366104.513503","366870.847854","367637.890821","368405.192254","369171.679025","369938.16827","370705.125288","374604.001518","375371.355201","376137.887729","376904.457977","377671.2601","378437.939793","364571.328489","365337.859162","377681.062628"
"Blocked","Female","tile","15","F_lash.wav","None","720.428867266","338","373838.027041","366104.513503","366870.847854","367637.890821","368405.192254","369171.679025","369938.16827","370705.125288","374604.001518","375371.355201","376137.887729","376904.457977","377671.2601","378437.939793","379204.54745","365337.859162","378448.086117"
"Blocked","Female","tile","15","F_reek.wav","None","720.463185571","338","373838.027041","366104.513503","366870.847854","367637.890821","368405.192254","369171.679025","369938.16827","370705.125288","374604.001518","375371.355201","376137.887729","376904.457977","377671.2601","378437.939793","379204.54745","379971.204883","379214.807239"
"Blocked","Female","tile","15","F_cad.wav","None","719.942852855","338","373838.027041","380737.548818","366870.847854","367637.890821","368405.192254","369171.679025","369938.16827","370705.125288","374604.001518","375371.355201","376137.887729","376904.457977","377671.2601","378437.939793","379204.54745","379971.204883","379982.033235"
"Blocked","Female","tile","15","F_lash.wav","None","721.709447447","338","373838.027041","380737.548818","381504.836647","367637.890821","368405.192254","369171.679025","369938.16827","370705.125288","374604.001518","375371.355201","376137.887729","376904.457977","377671.2601","378437.939793","379204.54745","379971.204883","380747.195214"
"Blocked","Female","tile","15","F_tile.wav","None","721.236108802","338","373838.027041","380737.548818","381504.836647","382271.147501","368405.192254","369171.679025","369938.16827","370705.125288","374604.001518","375371.355201","376137.887729","376904.457977","377671.2601","378437.939793","379204.54745","379971.204883","381514.765006"
"Blocked","Female","tile","15","F_park.wav","space","338.932289276","338","373838.027041","380737.548818","381504.836647","382271.147501","383038.132344","369171.679025","369938.16827","370705.125288","374604.001518","375371.355201","376137.887729","376904.457977","377671.2601","378437.939793","379204.54745","379971.204883","382281.347002"
"Blocked","Female","tile","15","F_reek.wav","None","721.226833761","338","373838.027041","380737.548818","381504.836647","382271.147501","383038.132344","383804.39775","369938.16827","370705.125288","374604.001518","375371.355201","376137.887729","376904.457977","377671.2601","378437.939793","379204.54745","379971.204883","383048.248988"
"Blocked","Female","tile","15","F_tile.wav","None","721.918755211","338","373838.027041","380737.548818","381504.836647","382271.147501","383038.132344","383804.39775","384571.158445","370705.125288","374604.001518","375371.355201","376137.887729","376904.457977","377671.2601","378437.939793","379204.54745","379971.204883","383814.270768"
"Blocked","Female","tile","15","F_lash.wav","space","382.869908586","338","373838.027041","380737.548818","381504.836647","382271.147501","383038.132344","383804.39775","384571.158445","385337.67366","374604.001518","375371.355201","376137.887729","376904.457977","377671.2601","378437.939793","379204.54745","379971.204883","384581.343106"
"Blocked","Female","ball","2","F_cad.wav","None","720.57757806","338","388470.954146","380737.548818","381504.836647","382271.147501","383038.132344","383804.39775","384571.158445","385337.67366","374604.001518","375371.355201","376137.887729","376904.457977","377671.2601","378437.939793","379204.54745","379971.204883","385348.485626"
"Blocked","Female","ball","2","F_ball.wav","None","722.949526273","338","388470.954146","380737.548818","381504.836647","382271.147501","383038.132344","383804.39775","384571.158445","385337.67366","389237.511717","375371.355201","376137.887729","376904.457977","377671.2601","378437.939793","379204.54745","379971.204883","388481.04822"
"Blocked","Female","ball","2","F_depth.wav","space","356.171269901","338","388470.954146","380737.548818","381504.836647","382271.147501","383038.132344","383804.39775","384571.158445","385337.67366","389237.511717","390003.74497","376137.887729","376904.457977","377671.2601","378437.939793","379204.54745","379971.204883","389247.901049"
"Blocked","Female","ball","2","F_bluff.wav","None","723.152959719","338","388470.954146","380737.548818","381504.836647","382271.147501","383038.132344","383804.39775","384571.158445","385337.67366","389237.511717","390003.74497","390770.910368","376904.457977","377671.2601","378437.939793","379204.54745","379971.204883","390013.549661"
"Blocked","Female","ball","2","F_ball.wav","None","722.736508586","338","388470.954146","380737.548818","381504.836647","382271.147501","383038.132344","383804.39775","384571.158445","385337.67366","389237.511717","390003.74497","390770.910368","391536.897831","377671.2601","378437.939793","379204.54745","379971.204883","390781.453665"
"Blocked","Female","ball","2","F_priest.wav","space","369.808426127","338","388470.954146","380737.548818","381504.836647","382271.147501","383038.132344","383804.39775","384571.158445","385337.67366","389237.511717","390003.74497","390770.910368","391536.897831","392303.932141","378437.939793","379204.54745","379971.204883","391546.217435"
"Blocked","Female","ball","2","F_dime.wav","None","722.324694507","338","388470.954146","380737.548818","381504.836647","382271.147501","383038.132344","383804.39775","384571.158445","385337.67366","389237.511717","390003.74497","390770.910368","391536.897831","392303.932141","393070.897197","379204.54745","379971.204883","392314.178017"
"Blocked","Female","ball","2","F_lash.wav","None","721.687186975","338","388470.954146","380737.548818","381504.836647","382271.147501","383038.132344","383804.39775","384571.158445","385337.67366","389237.511717","390003.74497","390770.910368","391536.897831","392303.932141","393070.897197","393837.342849","379971.204883","393081.556743"
"Blocked","Female","ball","2","F_lash.wav","None","721.734799445","338","388470.954146","380737.548818","381504.836647","382271.147501","383038.132344","383804.39775","384571.158445","385337.67366","389237.511717","390003.74497","390770.910368","391536.897831","392303.932141","393070.897197","393837.342849","394603.960399","393848.20861"
"Blocked","Female","ball","2","F_ball.wav","None","723.200880922","338","388470.954146","395370.028555","381504.836647","382271.147501","383038.132344","383804.39775","384571.158445","385337.67366","389237.511717","390003.74497","390770.910368","391536.897831","392303.932141","393070.897197","393837.342849","394603.960399","394613.987693"
"Blocked","Female","ball","2","F_gnash.wav","space","376.248735469","338","388470.954146","395370.028555","396137.377909","382271.147501","383038.132344","383804.39775","384571.158445","385337.67366","389237.511717","390003.74497","390770.910368","391536.897831","392303.932141","393070.897197","393837.342849","394603.960399","395379.612499"
"Blocked","Female","ball","2","F_romp.wav","None","723.065773956","338","388470.954146","395370.028555","396137.377909","396904.287006","383038.132344","383804.39775","384571.158445","385337.67366","389237.511717","390003.74497","390770.910368","391536.897831","392303.932141","393070.897197","393837.342849","394603.960399","396147.290191"
"Blocked","Female","ball","2","F_park.wav","None","722.941796761","338","388470.954146","395370.028555","396137.377909","396904.287006","397670.425652","383804.39775","384571.158445","385337.67366","389237.511717","390003.74497","390770.910368","391536.897831","392303.932141","393070.897197","393837.342849","394603.960399","396914.390664"
"Blocked","Female","ball","2","F_ball.wav","None","724.149103742","338","388470.954146","395370.028555","396137.377909","396904.287006","397670.425652","398436.710845","384571.158445","385337.67366","389237.511717","390003.74497","390770.910368","391536.897831","392303.932141","393070.897197","393837.342849","394603.960399","397680.397604"
"Blocked","Female","ball","2","F_greet.wav","space","421.922032256","338","388470.954146","395370.028555","396137.377909","396904.287006","397670.425652","398436.710845","399203.965902","385337.67366","389237.511717","390003.74497","390770.910368","391536.897831","392303.932141","393070.897197","393837.342849","394603.960399","398445.878338"
"Blocked","Female","ball","2","F_reek.wav","None","723.611149006","338","388470.954146","395370.028555","396137.377909","396904.287006","397670.425652","398436.710845","399203.965902","399970.646832","389237.511717","390003.74497","390770.910368","391536.897831","392303.932141","393070.897197","393837.342849","394603.960399","399213.480593"
"Blocked","Female","ball","3","F_jaw.wav","None","723.496138118","338","403103.791283","395370.028555","396137.377909","396904.287006","397670.425652","398436.710845","399203.965902","399970.646832","389237.511717","390003.74497","390770.910368","391536.897831","392303.932141","393070.897197","393837.342849","394603.960399","399980.658976"
"Blocked","Female","ball","3","F_jolt.wav","None","727.684456855","338","403103.791283","395370.028555","396137.377909","396904.287006","397670.425652","398436.710845","399203.965902","399970.646832","403870.514879","390003.74497","390770.910368","391536.897831","392303.932141","393070.897197","393837.342849","394603.960399","403108.139134"
"Blocked","Female","ball","3","F_park.wav","None","721.824149136","338","403103.791283","395370.028555","396137.377909","396904.287006","397670.425652","398436.710845","399203.965902","399970.646832","403870.514879","404636.994539","390770.910368","391536.897831","392303.932141","393070.897197","393837.342849","394603.960399","403880.826917"
"Blocked","Female","ball","3","F_priest.wav","None","722.290067933","338","403103.791283","395370.028555","396137.377909","396904.287006","397670.425652","398436.710845","399203.965902","399970.646832","403870.514879","404636.994539","405403.685671","391536.897831","392303.932141","393070.897197","393837.342849","394603.960399","404647.222174"
"Blocked","Female","ball","3","F_dime.wav","None","723.108130507","338","403103.791283","395370.028555","396137.377909","396904.287006","397670.425652","398436.710845","399203.965902","399970.646832","403870.514879","404636.994539","405403.685671","406169.975192","392303.932141","393070.897197","393837.342849","394603.960399","405413.274871"
"Blocked","Female","ball","3","F_ball.wav","None","723.508195486","338","403103.791283","395370.028555","396137.377909","396904.287006","397670.425652","398436.710845","399203.965902","399970.646832","403870.514879","404636.994539","405403.685671","406169.975192","406937.053096","393070.897197","393837.342849","394603.960399","406179.719905"
"Blocked","Female","ball","3","F_cling.wav","space","288.510149345","338","403103.791283","395370.028555","396137.377909","396904.287006","397670.425652","398436.710845","399203.965902","399970.646832","403870.514879","404636.994539","405403.685671","406169.975192","406937.053096","407703.30768","393837.342849","394603.960399","406947.051018"
"Blocked","Female","ball","3","F_park.wav","None","723.138737958","338","403103.791283","395370.028555","396137.377909","396904.287006","397670.425652","398436.710845","399203.965902","399970.646832","403870.514879","404636.994539","405403.685671","406169.975192","406937.053096","407703.30768","408470.373835","394603.960399","407712.981903"
"Blocked","Female","ball","3","F_ball.wav","None","722.815037239","338","403103.791283","395370.028555","396137.377909","396904.287006","397670.425652","398436.710845","399203.965902","399970.646832","403870.514879","404636.994539","405403.685671","406169.975192","406937.053096","407703.30768","408470.373835","409236.977782","408480.434519"
"Blocked","Female","ball","3","F_greet.wav","space","484.393743332","338","403103.791283","410003.411994","396137.377909","396904.287006","397670.425652","398436.710845","399203.965902","399970.646832","403870.514879","404636.994539","405403.685671","406169.975192","406937.053096","407703.30768","408470.373835","409236.977782","409247.104319"
"Blocked","Female","ball","3","F_ball.wav","None","722.726924345","338","403103.791283","410003.411994","410769.4279","396904.287006","397670.425652","398436.710845","399203.965902","399970.646832","403870.514879","404636.994539","405403.685671","406169.975192","406937.053096","407703.30768","408470.373835","409236.977782","410013.577796"
"Blocked","Female","ball","3","F_jolt.wav","space","440.562478267","338","403103.791283","410003.411994","410769.4279","411536.681721","397670.425652","398436.710845","399203.965902","399970.646832","403870.514879","404636.994539","405403.685671","406169.975192","406937.053096","407703.30768","408470.373835","409236.977782","410778.857878"
"Blocked","Female","ball","3","F_ball.wav","None","722.702499945","338","403103.791283","410003.411994","410769.4279","411536.681721","412303.000922","398436.710845","399203.965902","399970.646832","403870.514879","404636.994539","405403.685671","406169.975192","406937.053096","407703.30768","408470.373835","409236.977782","411546.93038"
"Blocked","Female","ball","3","F_gnash.wav","space","363.095738459","338","403103.791283","410003.411994","410769.4279","411536.681721","412303.000922","413070.3713","399203.965902","399970.646832","403870.514879","404636.994539","405403.685671","406169.975192","406937.053096","407703.30768","408470.373835","409236.977782","412312.282499"
"Blocked","Female","ball","3","F_reek.wav","None","723.318674602","338","403103.791283","410003.411994","410769.4279","411536.681721","412303.000922","413070.3713","413836.76563","399970.646832","403870.514879","404636.994539","405403.685671","406169.975192","406937.053096","407703.30768","408470.373835","409236.977782","413079.741918"
"Blocked","Female","ball","3","F_park.wav","None","723.122970201","338","403103.791283","410003.411994","410769.4279","411536.681721","412303.000922","413070.3713","413836.76563","414603.480568","403870.514879","404636.994539","405403.685671","406169.975192","406937.053096","407703.30768","408470.373835","409236.977782","413846.771281"
"Blocked","Female","cave","8","F_cad.wav","None","723.105656914","338","417736.52794","410003.411994","410769.4279","411536.681721","412303.000922","413070.3713","413836.76563","414603.480568","403870.514879","404636.994539","405403.685671","406169.975192","406937.053096","407703.30768","408470.373835","409236.977782","414613.782095"
"Blocked","Female","cave","8","F_cave.wav","None","722.210302018","338","417736.52794","410003.411994","410769.4279","411536.681721","412303.000922","413070.3713","413836.76563","414603.480568","418503.787944","404636.994539","405403.685671","406169.975192","406937.053096","407703.30768","408470.373835","409236.977782","417747.407614"
"Blocked","Female","cave","8","F_knife.wav","space","487.097739242","338","417736.52794","410003.411994","410769.4279","411536.681721","412303.000922","413070.3713","413836.76563","414603.480568","418503.787944","419270.178564","405403.685671","406169.975192","406937.053096","407703.30768","408470.373835","409236.977782","418508.087873"
"Blocked","Female","cave","8","F_depth.wav","None","722.810090519","338","417736.52794","410003.411994","410769.4279","411536.681721","412303.000922","413070.3713","413836.76563","414603.480568","418503.787944","419270.178564","420036.327413","406169.975192","406937.053096","407703.30768","408470.373835","409236.977782","419279.948938"
"Blocked","Female","cave","8","F_cave.wav","None","724.020798691","338","417736.52794","410003.411994","410769.4279","411536.681721","412303.000922","413070.3713","413836.76563","414603.480568","418503.787944","419270.178564","420036.327413","420803.034004","406937.053096","407703.30768","408470.373835","409236.977782","420045.615173"
"Blocked","Female","cave","8","F_dime.wav","space","477.934574708","338","417736.52794","410003.411994","410769.4279","411536.681721","412303.000922","413070.3713","413836.76563","414603.480568","418503.787944","419270.178564","420036.327413","420803.034004","421569.985148","407703.30768","408470.373835","409236.977782","420813.208771"
"Blocked","Female","cave","8","F_knife.wav","None","722.781956661","338","417736.52794","410003.411994","410769.4279","411536.681721","412303.000922","413070.3713","413836.76563","414603.480568","418503.787944","419270.178564","420036.327413","420803.034004","421569.985148","422335.980648","408470.373835","409236.977782","421580.625524"
"Blocked","Female","cave","8","F_cave.wav","None","724.771771114","338","417736.52794","410003.411994","410769.4279","411536.681721","412303.000922","413070.3713","413836.76563","414603.480568","418503.787944","419270.178564","420036.327413","420803.034004","421569.985148","422335.980648","423102.51936","409236.977782","422345.70341"
"Blocked","Female","cave","8","F_romp.wav","space","491.420856211","338","417736.52794","410003.411994","410769.4279","411536.681721","412303.000922","413070.3713","413836.76563","414603.480568","418503.787944","419270.178564","420036.327413","420803.034004","421569.985148","422335.980648","423102.51936","423870.043704","423111.629966"
"Blocked","Female","cave","8","F_jolt.wav","None","723.178620916","338","417736.52794","424636.166274","410769.4279","411536.681721","412303.000922","413070.3713","413836.76563","414603.480568","418503.787944","419270.178564","420036.327413","420803.034004","421569.985148","422335.980648","423102.51936","423870.043704","423880.148599"
"Blocked","Female","cave","8","F_knife.wav","None","724.776717834","338","417736.52794","424636.166274","425402.725081","411536.681721","412303.000922","413070.3713","413836.76563","414603.480568","418503.787944","419270.178564","420036.327413","420803.034004","421569.985148","422335.980648","423102.51936","423870.043704","424645.977767"
"Blocked","Female","cave","8","F_bluff.wav","None","725.271079689","338","417736.52794","424636.166274","425402.725081","426169.533389","412303.000922","413070.3713","413836.76563","414603.480568","418503.787944","419270.178564","420036.327413","420803.034004","421569.985148","422335.980648","423102.51936","423870.043704","425412.435476"
"Blocked","Female","cave","8","F_cave.wav","None","725.149266887","338","417736.52794","424636.166274","425402.725081","426169.533389","426936.072101","413070.3713","413836.76563","414603.480568","418503.787944","419270.178564","420036.327413","420803.034004","421569.985148","422335.980648","423102.51936","423870.043704","426179.355703"
"Blocked","Female","cave","8","F_lash.wav","space","369.135055225","338","417736.52794","424636.166274","425402.725081","426169.533389","426936.072101","427702.520535","413836.76563","414603.480568","418503.787944","419270.178564","420036.327413","420803.034004","421569.985148","422335.980648","423102.51936","423870.043704","426945.793316"
"Blocked","Female","cave","8","F_bluff.wav","None","725.012613926","338","417736.52794","424636.166274","425402.725081","426169.533389","426936.072101","427702.520535","428469.014108","414603.480568","418503.787944","419270.178564","420036.327413","420803.034004","421569.985148","422335.980648","423102.51936","423870.043704","427712.139725"
"Blocked","Female","cave","8","F_lash.wav","None","726.029472426","338","417736.52794","424636.166274","425402.725081","426169.533389","426936.072101","427702.520535","428469.014108","429236.048109","418503.787944","419270.178564","420036.327413","420803.034004","421569.985148","422335.980648","423102.51936","423870.043704","428478.113584"
"Blocked","Female","done","21","F_reek.wav","None","725.401549134","338","432369.62076","424636.166274","425402.725081","426169.533389","426936.072101","427702.520535","428469.014108","429236.048109","418503.787944","419270.178564","420036.327413","420803.034004","421569.985148","422335.980648","423102.51936","423870.043704","429245.777982"
"Blocked","Female","done","21","F_lash.wav","None","722.571102902","338","432369.62076","424636.166274","425402.725081","426169.533389","426936.072101","427702.520535","428469.014108","429236.048109","433136.219142","419270.178564","420036.327413","420803.034004","421569.985148","422335.980648","423102.51936","423870.043704","432379.470591"
"Blocked","Female","done","21","F_greet.wav","None","722.693224903","338","432369.62076","424636.166274","425402.725081","426169.533389","426936.072101","427702.520535","428469.014108","429236.048109","433136.219142","433902.729101","420036.327413","420803.034004","421569.985148","422335.980648","423102.51936","423870.043704","433146.323418"
"Blocked","Female","done","21","F_cling.wav","None","724.604201503","338","432369.62076","424636.166274","425402.725081","426169.533389","426936.072101","427702.520535","428469.014108","429236.048109","433136.219142","433902.729101","434669.166405","420803.034004","421569.985148","422335.980648","423102.51936","423870.043704","433912.279036"
"Blocked","Female","done","21","F_done.wav","None","724.939031992","338","432369.62076","424636.166274","425402.725081","426169.533389","426936.072101","427702.520535","428469.014108","429236.048109","433136.219142","433902.729101","434669.166405","435435.823529","421569.985148","422335.980648","423102.51936","423870.043704","434678.847428"
"Blocked","Female","done","21","F_lash.wav","space","581.91414224","338","432369.62076","424636.166274","425402.725081","426169.533389","426936.072101","427702.520535","428469.014108","429236.048109","433136.219142","433902.729101","434669.166405","435435.823529","436202.389138","422335.980648","423102.51936","423870.043704","435444.776767"
"Blocked","Female","done","21","F_cad.wav","None","724.935631268","338","432369.62076","424636.166274","425402.725081","426169.533389","426936.072101","427702.520535","428469.014108","429236.048109","433136.219142","433902.729101","434669.166405","435435.823529","436202.389138","436969.147051","423102.51936","423870.043704","436211.953295"
"Blocked","Female","done","21","F_cad.wav","None","725.606837776","338","432369.62076","424636.166274","425402.725081","426169.533389","426936.072101","427702.520535","428469.014108","429236.048109","433136.219142","433902.729101","434669.166405","435435.823529","436202.389138","436969.147051","437735.728119","423870.043704","436978.326601"
"Blocked","Female","done","21","F_done.wav","None","725.793885067","338","432369.62076","424636.166274","425402.725081","426169.533389","426936.072101","427702.520535","428469.014108","429236.048109","433136.219142","433902.729101","434669.166405","435435.823529","436202.389138","436969.147051","437735.728119","438502.709561","437745.48087"
"Blocked","Female","done","21","F_romp.wav","space","298.12346492","338","432369.62076","439268.735979","425402.725081","426169.533389","426936.072101","427702.520535","428469.014108","429236.048109","433136.219142","433902.729101","434669.166405","435435.823529","436202.389138","436969.147051","437735.728119","438502.709561","438512.478389"
"Blocked","Female","done","21","F_priest.wav","None","726.345752832","338","432369.62076","439268.735979","440035.679703","426169.533389","426936.072101","427702.520535","428469.014108","429236.048109","433136.219142","433902.729101","434669.166405","435435.823529","436202.389138","436969.147051","437735.728119","438502.709561","439278.156373"
"Blocked","Female","done","21","F_done.wav","None","726.094706915","338","432369.62076","439268.735979","440035.679703","440801.954075","426936.072101","427702.520535","428469.014108","429236.048109","433136.219142","433902.729101","434669.166405","435435.823529","436202.389138","436969.147051","437735.728119","438502.709561","440045.476665"
"Blocked","Female","done","21","F_jolt.wav","space","367.239846382","338","432369.62076","439268.735979","440035.679703","440801.954075","441568.991477","427702.520535","428469.014108","429236.048109","433136.219142","433902.729101","434669.166405","435435.823529","436202.389138","436969.147051","437735.728119","438502.709561","440811.297485"
"Blocked","Female","done","21","F_done.wav","None","727.178964764","338","432369.62076","439268.735979","440035.679703","440801.954075","441568.991477","442335.627268","428469.014108","429236.048109","433136.219142","433902.729101","434669.166405","435435.823529","436202.389138","436969.147051","437735.728119","438502.709561","441577.991091"
"Blocked","Female","done","21","F_knife.wav","space","409.252885729","338","432369.62076","439268.735979","440035.679703","440801.954075","441568.991477","442335.627268","443102.518742","429236.048109","433136.219142","433902.729101","434669.166405","435435.823529","436202.389138","436969.147051","437735.728119","438502.709561","442345.230381"
"Blocked","Female","done","21","F_priest.wav","None","725.214192644","338","432369.62076","439268.735979","440035.679703","440801.954075","441568.991477","442335.627268","443102.518742","443868.991291","433136.219142","433902.729101","434669.166405","435435.823529","436202.389138","436969.147051","437735.728119","438502.709561","443112.664138"
"Blocked","Female","done","23","F_gnash.wav","None","726.703461725","338","447002.316297","439268.735979","440035.679703","440801.954075","441568.991477","442335.627268","443102.518742","443868.991291","433136.219142","433902.729101","434669.166405","435435.823529","436202.389138","436969.147051","437735.728119","438502.709561","443878.597496"
"Blocked","Female","done","23","F_done.wav","None","722.349737771","338","447002.316297","439268.735979","440035.679703","440801.954075","441568.991477","442335.627268","443102.518742","443868.991291","447769.253529","433902.729101","434669.166405","435435.823529","436202.389138","436969.147051","437735.728119","438502.709561","447012.235382"
"Blocked","Female","done","23","F_jolt.wav","space","415.001273621","338","447002.316297","439268.735979","440035.679703","440801.954075","441568.991477","442335.627268","443102.518742","443868.991291","447769.253529","448535.834288","434669.166405","435435.823529","436202.389138","436969.147051","437735.728119","438502.709561","447779.326889"
"Blocked","Female","done","23","F_cad.wav","None","722.799269948","338","447002.316297","439268.735979","440035.679703","440801.954075","441568.991477","442335.627268","443102.518742","443868.991291","447769.253529","448535.834288","449301.892859","435435.823529","436202.389138","436969.147051","437735.728119","438502.709561","448545.561996"
"Blocked","Female","done","23","F_dime.wav","None","724.545459263","338","447002.316297","439268.735979","440035.679703","440801.954075","441568.991477","442335.627268","443102.518742","443868.991291","447769.253529","448535.834288","449301.892859","450068.993023","436202.389138","436969.147051","437735.728119","438502.709561","449311.495663"
"Blocked","Female","done","23","F_done.wav","space","379.724109545","338","447002.316297","439268.735979","440035.679703","440801.954075","441568.991477","442335.627268","443102.518742","443868.991291","447769.253529","448535.834288","449301.892859","450068.993023","450835.848324","436969.147051","437735.728119","438502.709561","450078.521316"
"Blocked","Female","done","23","F_park.wav","space","476.546713151","338","447002.316297","439268.735979","440035.679703","440801.954075","441568.991477","442335.627268","443102.518742","443868.991291","447769.253529","448535.834288","449301.892859","450068.993023","450835.848324","451601.39893","437735.728119","438502.709561","450845.633228"
"Blocked","Female","done","23","F_reek.wav","None","729.400656652","338","447002.316297","439268.735979","440035.679703","440801.954075","441568.991477","442335.627268","443102.518742","443868.991291","447769.253529","448535.834288","449301.892859","450068.993023","450835.848324","451601.39893","452368.639765","438502.709561","451610.310431"
"Blocked","Female","done","23","F_park.wav","None","728.902893607","338","447002.316297","439268.735979","440035.679703","440801.954075","441568.991477","442335.627268","443102.518742","443868.991291","447769.253529","448535.834288","449301.892859","450068.993023","450835.848324","451601.39893","452368.639765","453135.049244","452378.229893"
"Blocked","Female","done","23","F_priest.wav","None","729.676435702","338","447002.316297","453901.854151","440035.679703","440801.954075","441568.991477","442335.627268","443102.518742","443868.991291","447769.253529","448535.834288","449301.892859","450068.993023","450835.848324","451601.39893","452368.639765","453135.049244","453145.235451"
"Blocked","Female","done","23","F_knife.wav","None","731.162304524","338","447002.316297","453901.854151","454668.246935","440801.954075","441568.991477","442335.627268","443102.518742","443868.991291","447769.253529","448535.834288","449301.892859","450068.993023","450835.848324","451601.39893","452368.639765","453135.049244","453911.359566"
"Blocked","Female","done","23","F_done.wav","None","731.864736881","338","447002.316297","453901.854151","454668.246935","455434.894783","441568.991477","442335.627268","443102.518742","443868.991291","447769.253529","448535.834288","449301.892859","450068.993023","450835.848324","451601.39893","452368.639765","453135.049244","454677.761625"
"Blocked","Female","done","23","F_depth.wav","space","333.845524117","338","447002.316297","453901.854151","454668.246935","455434.894783","456201.868496","442335.627268","443102.518742","443868.991291","447769.253529","448535.834288","449301.892859","450068.993023","450835.848324","451601.39893","452368.639765","453135.049244","455444.200166"
"Blocked","Female","done","23","F_reek.wav","None","730.759147089","338","447002.316297","453901.854151","454668.246935","455434.894783","456201.868496","456968.564885","443102.518742","443868.991291","447769.253529","448535.834288","449301.892859","450068.993023","450835.848324","451601.39893","452368.639765","453135.049244","456211.595587"
"Blocked","Female","done","23","F_done.wav","None","731.523414142","338","447002.316297","453901.854151","454668.246935","455434.894783","456201.868496","456968.564885","457734.887796","443868.991291","447769.253529","448535.834288","449301.892859","450068.993023","450835.848324","451601.39893","452368.639765","453135.049244","456977.942304"
"Blocked","Female","done","23","F_romp.wav","space","377.458515577","338","447002.316297","453901.854151","454668.246935","455434.894783","456201.868496","456968.564885","457734.887796","458501.734131","447769.253529","448535.834288","449301.892859","450068.993023","450835.848324","451601.39893","452368.639765","453135.049244","457744.561709"
"Blocked","Female","ball","6","F_cad.wav","None","731.871229596","338","461635.274629","453901.854151","454668.246935","455434.894783","456201.868496","456968.564885","457734.887796","458501.734131","447769.253529","448535.834288","449301.892859","450068.993023","450835.848324","451601.39893","452368.639765","453135.049244","458511.294579"
"Blocked","Female","ball","6","F_reek.wav","None","721.675438806","338","461635.274629","453901.854151","454668.246935","455434.894783","456201.868496","456968.564885","457734.887796","458501.734131","462402.242777","448535.834288","449301.892859","450068.993023","450835.848324","451601.39893","452368.639765","453135.049244","461645.424353"
"Blocked","Female","ball","6","F_knife.wav","None","721.971004736","338","461635.274629","453901.854151","454668.246935","455434.894783","456201.868496","456968.564885","457734.887796","458501.734131","462402.242777","463168.764485","449301.892859","450068.993023","450835.848324","451601.39893","452368.639765","453135.049244","462412.636437"
"Blocked","Female","ball","6","F_priest.wav","None","723.421936855","338","461635.274629","453901.854151","454668.246935","455434.894783","456201.868496","456968.564885","457734.887796","458501.734131","462402.242777","463168.764485","463935.001138","450068.993023","450835.848324","451601.39893","452368.639765","453135.049244","463178.607204"
"Blocked","Female","ball","6","F_dime.wav","None","724.70962815","338","461635.274629","453901.854151","454668.246935","455434.894783","456201.868496","456968.564885","457734.887796","458501.734131","462402.242777","463168.764485","463935.001138","464701.853038","450835.848324","451601.39893","452368.639765","453135.049244","463944.943719"
"Blocked","Female","ball","6","F_priest.wav","None","725.344043691","338","461635.274629","453901.854151","454668.246935","455434.894783","456201.868496","456968.564885","457734.887796","458501.734131","462402.242777","463168.764485","463935.001138","464701.853038","465468.308893","451601.39893","452368.639765","453135.049244","464711.327536"
"Blocked","Female","ball","6","F_ball.wav","None","725.951870903","338","461635.274629","453901.854151","454668.246935","455434.894783","456201.868496","456968.564885","457734.887796","458501.734131","462402.242777","463168.764485","463935.001138","464701.853038","465468.308893","466234.932316","452368.639765","453135.049244","465478.323201"
"Blocked","Female","ball","6","F_greet.wav","space","381.168240216","338","461635.274629","453901.854151","454668.246935","455434.894783","456201.868496","456968.564885","457734.887796","458501.734131","462402.242777","463168.764485","463935.001138","464701.853038","465468.308893","466234.932316","467001.484013","453135.049244","466244.611794"
"Blocked","Female","ball","6","F_ball.wav","None","726.2350698","338","461635.274629","453901.854151","454668.246935","455434.894783","456201.868496","456968.564885","457734.887796","458501.734131","462402.242777","463168.764485","463935.001138","464701.853038","465468.308893","466234.932316","467001.484013","467768.230796","467011.349302"
"Blocked","Female","ball","6","F_bluff.wav","space","447.770146187","338","461635.274629","468534.873698","454668.246935","455434.894783","456201.868496","456968.564885","457734.887796","458501.734131","462402.242777","463168.764485","463935.001138","464701.853038","465468.308893","466234.932316","467001.484013","467768.230796","467777.939645"
"Blocked","Female","ball","6","F_gnash.wav","None","726.51270451","338","461635.274629","468534.873698","469301.4121","455434.894783","456201.868496","456968.564885","457734.887796","458501.734131","462402.242777","463168.764485","463935.001138","464701.853038","465468.308893","466234.932316","467001.484013","467768.230796","468544.735586"
"Blocked","Female","ball","6","F_ball.wav","None","727.225030772","338","461635.274629","468534.873698","469301.4121","470068.190419","456201.868496","456968.564885","457734.887796","458501.734131","462402.242777","463168.764485","463935.001138","464701.853038","465468.308893","466234.932316","467001.484013","467768.230796","469311.098998"
"Blocked","Female","ball","6","F_jaw.wav","space","428.27175511","338","461635.274629","468534.873698","469301.4121","470068.190419","470834.390899","456968.564885","457734.887796","458501.734131","462402.242777","463168.764485","463935.001138","464701.853038","465468.308893","466234.932316","467001.484013","467768.230796","470077.388519"
"Blocked","Female","ball","6","F_ball.wav","None","728.339277674","338","461635.274629","468534.873698","469301.4121","470068.190419","470834.390899","471601.264441","457734.887796","458501.734131","462402.242777","463168.764485","463935.001138","464701.853038","465468.308893","466234.932316","467001.484013","467768.230796","470843.376291"
"Blocked","Female","ball","6","F_priest.wav","space","422.771939542","338","461635.274629","468534.873698","469301.4121","470068.190419","470834.390899","471601.264441","472367.995456","458501.734131","462402.242777","463168.764485","463935.001138","464701.853038","465468.308893","466234.932316","467001.484013","467768.230796","471610.821179"
"Blocked","Female","ball","6","F_priest.wav","None","727.573464625","338","461635.274629","468534.873698","469301.4121","470068.190419","470834.390899","471601.264441","472367.995456","473134.736365","462402.242777","463168.764485","463935.001138","464701.853038","465468.308893","466234.932316","467001.484013","467768.230796","472377.793655"
"Blocked","Female","tile","16","F_jaw.wav","None","728.23261423","338","476268.228632","468534.873698","469301.4121","470068.190419","470834.390899","471601.264441","472367.995456","473134.736365","462402.242777","463168.764485","463935.001138","464701.853038","465468.308893","466234.932316","467001.484013","467768.230796","473144.780972"
"Blocked","Female","tile","16","F_lash.wav","None","721.676675603","338","476268.228632","468534.873698","469301.4121","470068.190419","470834.390899","471601.264441","472367.995456","473134.736365","477034.94388","463168.764485","463935.001138","464701.853038","465468.308893","466234.932316","467001.484013","467768.230796","476278.171522"
"Blocked","Female","tile","16","F_tile.wav","None","722.181240097","338","476268.228632","468534.873698","469301.4121","470068.190419","470834.390899","471601.264441","472367.995456","473134.736365","477034.94388","477801.226599","463935.001138","464701.853038","465468.308893","466234.932316","467001.484013","467768.230796","477045.09886"
"Blocked","Female","tile","16","F_gnash.wav","space","582.38438936","338","476268.228632","468534.873698","469301.4121","470068.190419","470834.390899","471601.264441","472367.995456","473134.736365","477034.94388","477801.226599","478567.872592","464701.853038","465468.308893","466234.932316","467001.484013","467768.230796","477810.985224"
"Blocked","Female","tile","16","F_greet.wav","None","724.844116718","338","476268.228632","468534.873698","469301.4121","470068.190419","470834.390899","471601.264441","472367.995456","473134.736365","477034.94388","477801.226599","478567.872592","479334.653384","465468.308893","466234.932316","467001.484013","467768.230796","478577.619778"
"Blocked","Female","tile","16","F_jaw.wav","None","725.229342002","338","476268.228632","468534.873698","469301.4121","470068.190419","470834.390899","471601.264441","472367.995456","473134.736365","477034.94388","477801.226599","478567.872592","479334.653384","480101.091615","466234.932316","467001.484013","467768.230796","479344.46364"
"Blocked","Female","tile","16","F_dime.wav","None","726.474058349","338","476268.228632","468534.873698","469301.4121","470068.190419","470834.390899","471601.264441","472367.995456","473134.736365","477034.94388","477801.226599","478567.872592","479334.653384","480101.091615","480867.485945","467001.484013","467768.230796","480110.893524"
"Blocked","Female","tile","16","F_tile.wav","None","728.512412403","338","476268.228632","468534.873698","469301.4121","470068.190419","470834.390899","471601.264441","472367.995456","473134.736365","477034.94388","477801.226599","478567.872592","479334.653384","480101.091615","480867.485945","481634.430596","467768.230796","480877.031862"
"Blocked","Female","tile","16","F_priest.wav","space","404.838255141","338","476268.228632","468534.873698","469301.4121","470068.190419","470834.390899","471601.264441","472367.995456","473134.736365","477034.94388","477801.226599","478567.872592","479334.653384","480101.091615","480867.485945","481634.430596","482401.068551","481644.476131"
"Blocked","Female","tile","16","F_tile.wav","None","727.569445968","338","476268.228632","483167.677445","469301.4121","470068.190419","470834.390899","471601.264441","472367.995456","473134.736365","477034.94388","477801.226599","478567.872592","479334.653384","480101.091615","480867.485945","481634.430596","482401.068551","482411.185504"
"Blocked","Female","tile","16","F_jolt.wav","space","568.364481442","338","476268.228632","483167.677445","483934.010559","470068.190419","470834.390899","471601.264441","472367.995456","473134.736365","477034.94388","477801.226599","478567.872592","479334.653384","480101.091615","480867.485945","481634.430596","482401.068551","483176.878946"
"Blocked","Female","tile","16","F_depth.wav","None","728.847552091","338","476268.228632","483167.677445","483934.010559","484700.836798","470834.390899","471601.264441","472367.995456","473134.736365","477034.94388","477801.226599","478567.872592","479334.653384","480101.091615","480867.485945","481634.430596","482401.068551","483943.311922"
"Blocked","Female","tile","16","F_gnash.wav","None","729.73579634","338","476268.228632","483167.677445","483934.010559","484700.836798","485467.240402","471601.264441","472367.995456","473134.736365","477034.94388","477801.226599","478567.872592","479334.653384","480101.091615","480867.485945","481634.430596","482401.068551","484710.379623"
"Blocked","Female","tile","16","F_tile.wav","None","731.807850301","338","476268.228632","483167.677445","483934.010559","484700.836798","485467.240402","486233.95936","472367.995456","473134.736365","477034.94388","477801.226599","478567.872592","479334.653384","480101.091615","480867.485945","481634.430596","482401.068551","485476.537438"
"Blocked","Female","tile","16","F_jaw.wav","space","557.433794253","338","476268.228632","483167.677445","483934.010559","484700.836798","485467.240402","486233.95936","487000.871858","473134.736365","477034.94388","477801.226599","478567.872592","479334.653384","480101.091615","480867.485945","481634.430596","482401.068551","486243.721386"
"Blocked","Female","tile","16","F_jaw.wav","None","737.447100691","338","476268.228632","483167.677445","483934.010559","484700.836798","485467.240402","486233.95936","487000.871858","487767.2093","477034.94388","477801.226599","478567.872592","479334.653384","480101.091615","480867.485945","481634.430596","482401.068551","487005.245369"
"Blocked","Female","cave","9","F_greet.wav","None","733.527760021","338","490901.082464","483167.677445","483934.010559","484700.836798","485467.240402","486233.95936","487000.871858","487767.2093","477034.94388","477801.226599","478567.872592","479334.653384","480101.091615","480867.485945","481634.430596","482401.068551","487776.606506"
"Blocked","Female","cave","9","F_depth.wav","None","722.553480417","338","490901.082464","483167.677445","483934.010559","484700.836798","485467.240402","486233.95936","487000.871858","487767.2093","491667.665696","477801.226599","478567.872592","479334.653384","480101.091615","480867.485945","481634.430596","482401.068551","490910.85562"
"Blocked","Female","cave","9","F_dime.wav","None","722.467840184","338","490901.082464","483167.677445","483934.010559","484700.836798","485467.240402","486233.95936","487000.871858","487767.2093","491667.665696","492433.898949","478567.872592","479334.653384","480101.091615","480867.485945","481634.430596","482401.068551","491678.195699"
"Blocked","Female","cave","9","F_cave.wav","None","725.590451621","338","490901.082464","483167.677445","483934.010559","484700.836798","485467.240402","486233.95936","487000.871858","487767.2093","491667.665696","492433.898949","493200.542778","479334.653384","480101.091615","480867.485945","481634.430596","482401.068551","492443.07077"
"Blocked","Female","cave","9","F_priest.wav","space","382.293308154","338","490901.082464","483167.677445","483934.010559","484700.836798","485467.240402","486233.95936","487000.871858","487767.2093","491667.665696","492433.898949","493200.542778","493967.425595","480101.091615","480867.485945","481634.430596","482401.068551","493210.680445"
"Blocked","Female","cave","9","F_bluff.wav","None","725.054042879","338","490901.082464","483167.677445","483934.010559","484700.836798","485467.240402","486233.95936","487000.871858","487767.2093","491667.665696","492433.898949","493200.542778","493967.425595","494733.798901","480867.485945","481634.430596","482401.068551","493977.462782"
"Blocked","Female","cave","9","F_park.wav","None","726.604836993","338","490901.082464","483167.677445","483934.010559","484700.836798","485467.240402","486233.95936","487000.871858","487767.2093","491667.665696","492433.898949","493200.542778","493967.425595","494733.798901","495500.55465","481634.430596","482401.068551","494743.359967"
"Blocked","Female","cave","9","F_park.wav","None","727.358282544","338","490901.082464","483167.677445","483934.010559","484700.836798","485467.240402","486233.95936","487000.871858","487767.2093","491667.665696","492433.898949","493200.542778","493967.425595","494733.798901","495500.55465","496267.424173","482401.068551","495510.109533"
"Blocked","Female","cave","9","F_cave.wav","None","728.032581508","338","490901.082464","483167.677445","483934.010559","484700.836798","485467.240402","486233.95936","487000.871858","487767.2093","491667.665696","492433.898949","493200.542778","493967.425595","494733.798901","495500.55465","496267.424173","497033.921147","496277.003171"
"Blocked","Female","cave","9","F_greet.wav","space","573.059219867","338","490901.082464","497800.454293","483934.010559","484700.836798","485467.240402","486233.95936","487000.871858","487767.2093","491667.665696","492433.898949","493200.542778","493967.425595","494733.798901","495500.55465","496267.424173","497033.921147","497043.766339"
"Blocked","Female","cave","9","F_cave.wav","None","729.341914412","338","490901.082464","497800.454293","498567.275586","484700.836798","485467.240402","486233.95936","487000.871858","487767.2093","491667.665696","492433.898949","493200.542778","493967.425595","494733.798901","495500.55465","496267.424173","497033.921147","497810.10842"
"Blocked","Female","cave","9","F_priest.wav","space","728.50344656","338","490901.082464","497800.454293","498567.275586","499333.92498","485467.240402","486233.95936","487000.871858","487767.2093","491667.665696","492433.898949","493200.542778","493967.425595","494733.798901","495500.55465","496267.424173","497033.921147","498576.278911"
"Blocked","Female","cave","9","F_jolt.wav","None","728.68956672","338","490901.082464","497800.454293","498567.275586","499333.92498","500100.467712","486233.95936","487000.871858","487767.2093","491667.665696","492433.898949","493200.542778","493967.425595","494733.798901","495500.55465","496267.424173","497033.921147","499343.989993"
"Blocked","Female","cave","9","F_jolt.wav","None","730.436992832","338","490901.082464","497800.454293","498567.275586","499333.92498","500100.467712","500866.85864","487000.871858","487767.2093","491667.665696","492433.898949","493200.542778","493967.425595","494733.798901","495500.55465","496267.424173","497033.921147","500110.290644"
"Blocked","Female","cave","9","F_cave.wav","None","731.700877193","338","490901.082464","497800.454293","498567.275586","499333.92498","500100.467712","500866.85864","501633.835136","487767.2093","491667.665696","492433.898949","493200.542778","493967.425595","494733.798901","495500.55465","496267.424173","497033.921147","500876.213181"
"Blocked","Female","cave","9","F_romp.wav","space","461.065670475","338","490901.082464","497800.454293","498567.275586","499333.92498","500100.467712","500866.85864","501633.835136","502400.408475","491667.665696","492433.898949","493200.542778","493967.425595","494733.798901","495500.55465","496267.424173","497033.921147","501643.63519"
"Blocked","Female","done","19","F_romp.wav","None","731.690056156","338","505533.951755","497800.454293","498567.275586","499333.92498","500100.467712","500866.85864","501633.835136","502400.408475","491667.665696","492433.898949","493200.542778","493967.425595","494733.798901","495500.55465","496267.424173","497033.921147","502410.599937"
"Blocked","Female","done","19","F_done.wav","None","722.661689389","338","505533.951755","497800.454293","498567.275586","499333.92498","500100.467712","500866.85864","501633.835136","502400.408475","506300.6231","492433.898949","493200.542778","493967.425595","494733.798901","495500.55465","496267.424173","497033.921147","505544.141362"
"Blocked","Female","done","19","F_knife.wav","space","513.725269586","338","505533.951755","497800.454293","498567.275586","499333.92498","500100.467712","500866.85864","501633.835136","502400.408475","506300.6231","507067.395544","493200.542778","493967.425595","494733.798901","495500.55465","496267.424173","497033.921147","506310.841769"
"Blocked","Female","done","19","F_done.wav","None","723.726469092","338","505533.951755","497800.454293","498567.275586","499333.92498","500100.467712","500866.85864","501633.835136","502400.408475","506300.6231","507067.395544","507833.557687","493967.425595","494733.798901","495500.55465","496267.424173","497033.921147","507077.249084"
"Blocked","Female","done","19","F_cad.wav","space","429.563155863","338","505533.951755","497800.454293","498567.275586","499333.92498","500100.467712","500866.85864","501633.835136","502400.408475","506300.6231","507067.395544","507833.557687","508599.967476","494733.798901","495500.55465","496267.424173","497033.921147","507842.970661"
