"Condition","Talker","Target","Trial","current_stimulus","response_response","response_time_response","subject_nr","time_Audio1","time_Audio10","time_Audio11","time_Audio12","time_Audio13","time_Audio14","time_Audio15","time_Audio16","time_Audio2","time_Audio3","time_Audio4","time_Audio5","time_Audio6","time_Audio7","time_Audio8","time_Audio9","time_response","title"
"Mixed","Female","done","44","M_depth.wav","NA","NA","436","42734.8135074","NA","NA","NA","NA","NA","NA","NA","NA","NA","NA","NA","NA","NA","NA","NA","NA","Mapping"
"Mixed","Female","done","44","F_park.wav","space","331.337012285","436","42734.8135074","NA","NA","NA","NA","NA","NA","NA","43501.9960206","NA","NA","NA","NA","NA","NA","NA","42746.7018937","Mapping"
"Mixed","Female","done","44","F_done.wav","None","735.610653697","436","42734.8135074","NA","NA","NA","NA","NA","NA","NA","43501.9960206","44269.2148906","NA","NA","NA","NA","NA","NA","43505.4754603","Mapping"
"Mixed","Female","done","44","M_cling.wav","None","737.582035752","436","42734.8135074","NA","NA","NA","NA","NA","NA","NA","43501.9960206","44269.2148906","45036.4358638","NA","NA","NA","NA","NA","44272.8085088","Mapping"
"Mixed","Female","done","44","F_done.wav","space","0.0345540211129","436","42734.8135074","NA","NA","NA","NA","NA","NA","NA","43501.9960206","44269.2148906","45036.4358638","45820.8304864","NA","NA","NA","NA","45039.841388","Mapping"
"Mixed","Female","done","44","F_dime.wav","space","669.482368736","436","42734.8135074","NA","NA","NA","NA","NA","NA","NA","43501.9960206","44269.2148906","45036.4358638","45820.8304864","46587.4117595","NA","NA","NA","45824.5503019","Mapping"
"Mixed","Female","done","44","F_done.wav","None","728.779173358","436","42734.8135074","NA","NA","NA","NA","NA","NA","NA","43501.9960206","44269.2148906","45036.4358638","45820.8304864","46587.4117595","47354.8106109","NA","NA","46590.734955","Mapping"
"Mixed","Female","done","44","M_romp.wav","space","520.293126272","436","42734.8135074","NA","NA","NA","NA","NA","NA","NA","43501.9960206","44269.2148906","45036.4358638","45820.8304864","46587.4117595","47354.8106109","48121.9759973","NA","47357.7215619","Mapping"
"Mixed","Female","done","44","F_done.wav","None","733.78109336","436","42734.8135074","NA","NA","NA","NA","NA","NA","NA","43501.9960206","44269.2148906","45036.4358638","45820.8304864","46587.4117595","47354.8106109","48121.9759973","48888.9313553","48125.0194554","Mapping"
"Mixed","Female","done","44","M_reek.wav","space","547.133188025","436","42734.8135074","49656.0669951","NA","NA","NA","NA","NA","NA","43501.9960206","44269.2148906","45036.4358638","45820.8304864","46587.4117595","47354.8106109","48121.9759973","48888.9313553","48891.8897805","Mapping"
"Mixed","Female","done","44","F_priest.wav","None","739.416403605","436","42734.8135074","49656.0669951","50423.3246257","NA","NA","NA","NA","NA","43501.9960206","44269.2148906","45036.4358638","45820.8304864","46587.4117595","47354.8106109","48121.9759973","48888.9313553","49658.8721808","Mapping"
"Mixed","Female","done","44","M_romp.wav","None","742.13625582","436","42734.8135074","49656.0669951","50423.3246257","51207.6107787","NA","NA","NA","NA","43501.9960206","44269.2148906","45036.4358638","45820.8304864","46587.4117595","47354.8106109","48121.9759973","48888.9313553","50426.4882718","Mapping"
"Mixed","Female","done","44","F_priest.wav","None","727.564975085","436","42734.8135074","49656.0669951","50423.3246257","51207.6107787","51974.5739489","NA","NA","NA","43501.9960206","44269.2148906","45036.4358638","45820.8304864","46587.4117595","47354.8106109","48121.9759973","48888.9313553","51210.3579737","Mapping"
"Mixed","Female","done","44","M_jolt.wav","None","730.282724009","436","42734.8135074","49656.0669951","50423.3246257","51207.6107787","51974.5739489","52741.7309221","NA","NA","43501.9960206","44269.2148906","45036.4358638","45820.8304864","46587.4117595","47354.8106109","48121.9759973","48888.9313553","51977.4251064","Mapping"
"Mixed","Female","done","44","M_park.wav","None","733.237543576","436","42734.8135074","49656.0669951","50423.3246257","51207.6107787","51974.5739489","52741.7309221","53508.9026184","NA","43501.9960206","44269.2148906","45036.4358638","45820.8304864","46587.4117595","47354.8106109","48121.9759973","48888.9313553","52744.3356944","Mapping"
"Mixed","Female","done","44","M_jolt.wav","None","736.032513232","436","42734.8135074","49656.0669951","50423.3246257","51207.6107787","51974.5739489","52741.7309221","53508.9026184","54276.1314038","43501.9960206","44269.2148906","45036.4358638","45820.8304864","46587.4117595","47354.8106109","48121.9759973","48888.9313553","53511.7955411","Mapping"
"Mixed","Female","ball","7","M_park.wav","None","738.262299277","436","57445.5623922","49656.0669951","50423.3246257","51207.6107787","51974.5739489","52741.7309221","53508.9026184","54276.1314038","43501.9960206","44269.2148906","45036.4358638","45820.8304864","46587.4117595","47354.8106109","48121.9759973","48888.9313553","54278.7629179","Mapping"
"Mixed","Female","ball","7","F_park.wav","None","732.893505705","436","57445.5623922","49656.0669951","50423.3246257","51207.6107787","51974.5739489","52741.7309221","53508.9026184","54276.1314038","58212.3044167","44269.2148906","45036.4358638","45820.8304864","46587.4117595","47354.8106109","48121.9759973","48888.9313553","57448.7320477","Mapping"
"Mixed","Female","ball","7","F_ball.wav","None","736.605208585","436","57445.5623922","49656.0669951","50423.3246257","51207.6107787","51974.5739489","52741.7309221","53508.9026184","54276.1314038","58212.3044167","58979.5833807","45036.4358638","45820.8304864","46587.4117595","47354.8106109","48121.9759973","48888.9313553","58214.8364753","Mapping"
"Mixed","Female","ball","7","M_depth.wav","space","515.711262989","436","57445.5623922","49656.0669951","50423.3246257","51207.6107787","51974.5739489","52741.7309221","53508.9026184","54276.1314038","58212.3044167","58979.5833807","59746.8172741","45820.8304864","46587.4117595","47354.8106109","48121.9759973","48888.9313553","58982.3747447","Mapping"
"Mixed","Female","ball","7","F_ball.wav","None","740.84093071","436","57445.5623922","49656.0669951","50423.3246257","51207.6107787","51974.5739489","52741.7309221","53508.9026184","54276.1314038","58212.3044167","58979.5833807","59746.8172741","60531.0310139","46587.4117595","47354.8106109","48121.9759973","48888.9313553","59749.5007695","Mapping"
"Mixed","Female","ball","7","M_dime.wav","space","519.054890414","436","57445.5623922","49656.0669951","50423.3246257","51207.6107787","51974.5739489","52741.7309221","53508.9026184","54276.1314038","58212.3044167","58979.5833807","59746.8172741","60531.0310139","61298.148926","47354.8106109","48121.9759973","48888.9313553","60533.9807255","Mapping"
"Mixed","Female","ball","7","M_cad.wav","None","728.148186878","436","57445.5623922","49656.0669951","50423.3246257","51207.6107787","51974.5739489","52741.7309221","53508.9026184","54276.1314038","58212.3044167","58979.5833807","59746.8172741","60531.0310139","61298.148926","62065.0841526","48121.9759973","48888.9313553","61301.40722","Mapping"
"Mixed","Female","ball","7","F_ball.wav","None","731.792884995","436","57445.5623922","49656.0669951","50423.3246257","51207.6107787","51974.5739489","52741.7309221","53508.9026184","54276.1314038","58212.3044167","58979.5833807","59746.8172741","60531.0310139","61298.148926","62065.0841526","62832.2925061","48888.9313553","62068.2198549","Mapping"
"Mixed","Female","ball","7","F_priest.wav","space","450.922772663","436","57445.5623922","49656.0669951","50423.3246257","51207.6107787","51974.5739489","52741.7309221","53508.9026184","54276.1314038","58212.3044167","58979.5833807","59746.8172741","60531.0310139","61298.148926","62065.0841526","62832.2925061","63599.5678644","62835.1514758","Mapping"
"Mixed","Female","ball","7","M_reek.wav","None","736.384363314","436","57445.5623922","64366.7293447","50423.3246257","51207.6107787","51974.5739489","52741.7309221","53508.9026184","54276.1314038","58212.3044167","58979.5833807","59746.8172741","60531.0310139","61298.148926","62065.0841526","62832.2925061","63599.5678644","63602.2991345","Mapping"
"Mixed","Female","ball","7","M_depth.wav","None","737.322730358","436","57445.5623922","64366.7293447","65134.0281396","51207.6107787","51974.5739489","52741.7309221","53508.9026184","54276.1314038","58212.3044167","58979.5833807","59746.8172741","60531.0310139","61298.148926","62065.0841526","62832.2925061","63599.5678644","64370.7015548","Mapping"
"Mixed","Female","ball","7","M_knife.wav","None","740.949400293","436","57445.5623922","64366.7293447","65134.0281396","65918.2508934","51974.5739489","52741.7309221","53508.9026184","54276.1314038","58212.3044167","58979.5833807","59746.8172741","60531.0310139","61298.148926","62065.0841526","62832.2925061","63599.5678644","65136.6584518","Mapping"
"Mixed","Female","ball","7","F_jaw.wav","None","726.993782078","436","57445.5623922","64366.7293447","65134.0281396","65918.2508934","66685.4622517","52741.7309221","53508.9026184","54276.1314038","58212.3044167","58979.5833807","59746.8172741","60531.0310139","61298.148926","62065.0841526","62832.2925061","63599.5678644","65920.9193653","Mapping"
"Mixed","Female","ball","7","M_reek.wav","None","729.497897013","436","57445.5623922","64366.7293447","65134.0281396","65918.2508934","66685.4622517","67452.3722388","53508.9026184","54276.1314038","58212.3044167","58979.5833807","59746.8172741","60531.0310139","61298.148926","62065.0841526","62832.2925061","63599.5678644","66688.2548176","Mapping"
"Mixed","Female","ball","7","F_ball.wav","None","732.610763669","436","57445.5623922","64366.7293447","65134.0281396","65918.2508934","66685.4622517","67452.3722388","68219.5745829","54276.1314038","58212.3044167","58979.5833807","59746.8172741","60531.0310139","61298.148926","62065.0841526","62832.2925061","63599.5678644","67455.2618564","Mapping"
"Mixed","Female","ball","7","F_jaw.wav","space","396.598141535","436","57445.5623922","64366.7293447","65134.0281396","65918.2508934","66685.4622517","67452.3722388","68219.5745829","68987.1810589","58212.3044167","58979.5833807","59746.8172741","60531.0310139","61298.148926","62065.0841526","62832.2925061","63599.5678644","68222.4287451","Mapping"
"Mixed","Male","tile","29","M_bluff.wav","None","736.698955145","436","72122.7202609","64366.7293447","65134.0281396","65918.2508934","66685.4622517","67452.3722388","68219.5745829","68987.1810589","58212.3044167","58979.5833807","59746.8172741","60531.0310139","61298.148926","62065.0841526","62832.2925061","63599.5678644","68990.7404236","Mapping"
"Mixed","Male","tile","29","M_tile.wav","None","733.568060306","436","72122.7202609","64366.7293447","65134.0281396","65918.2508934","66685.4622517","67452.3722388","68219.5745829","68987.1810589","72889.8790369","58979.5833807","59746.8172741","60531.0310139","61298.148926","62065.0841526","62832.2925061","63599.5678644","72126.0040948","Mapping"
"Mixed","Male","tile","29","F_gnash.wav","space","573.876498518","436","72122.7202609","64366.7293447","65134.0281396","65918.2508934","66685.4622517","67452.3722388","68219.5745829","68987.1810589","72889.8790369","73657.2024703","59746.8172741","60531.0310139","61298.148926","62065.0841526","62832.2925061","63599.5678644","72893.1679788","Mapping"
"Mixed","Male","tile","29","M_tile.wav","None","738.621360633","436","72122.7202609","64366.7293447","65134.0281396","65918.2508934","66685.4622517","67452.3722388","68219.5745829","68987.1810589","72889.8790369","73657.2024703","74424.0902227","60531.0310139","61298.148926","62065.0841526","62832.2925061","63599.5678644","73660.5061353","Mapping"
"Mixed","Male","tile","29","M_priest.wav","space","423.024456435","436","72122.7202609","64366.7293447","65134.0281396","65918.2508934","66685.4622517","67452.3722388","68219.5745829","68987.1810589","72889.8790369","73657.2024703","74424.0902227","75208.3733709","61298.148926","62065.0841526","62832.2925061","63599.5678644","74427.0747887","Mapping"
"Mixed","Male","tile","29","F_dime.wav","None","727.376580544","436","72122.7202609","64366.7293447","65134.0281396","65918.2508934","66685.4622517","67452.3722388","68219.5745829","68987.1810589","72889.8790369","73657.2024703","74424.0902227","75208.3733709","75976.1910771","62065.0841526","62832.2925061","63599.5678644","75211.3594393","Mapping"
"Mixed","Male","tile","29","M_priest.wav","None","729.240394434","436","72122.7202609","64366.7293447","65134.0281396","65918.2508934","66685.4622517","67452.3722388","68219.5745829","68987.1810589","72889.8790369","73657.2024703","74424.0902227","75208.3733709","75976.1910771","76742.7426038","62832.2925061","63599.5678644","75979.5121693","Mapping"
"Mixed","Male","tile","29","F_bluff.wav","None","732.97373113","436","72122.7202609","64366.7293447","65134.0281396","65918.2508934","66685.4622517","67452.3722388","68219.5745829","68987.1810589","72889.8790369","73657.2024703","74424.0902227","75208.3733709","75976.1910771","76742.7426038","77509.6667129","63599.5678644","76745.5997707","Mapping"
"Mixed","Male","tile","29","F_gnash.wav","None","735.705301671","436","72122.7202609","64366.7293447","65134.0281396","65918.2508934","66685.4622517","67452.3722388","68219.5745829","68987.1810589","72889.8790369","73657.2024703","74424.0902227","75208.3733709","75976.1910771","76742.7426038","77509.6667129","78276.8666533","77512.7921993","Mapping"
"Mixed","Male","tile","29","M_tile.wav","None","738.619257347","436","72122.7202609","79044.0446594","65134.0281396","65918.2508934","66685.4622517","67452.3722388","68219.5745829","68987.1810589","72889.8790369","73657.2024703","74424.0902227","75208.3733709","75976.1910771","76742.7426038","77509.6667129","78276.8666533","78279.6670314","Mapping"
"Mixed","Male","tile","29","M_priest.wav","space","476.176654582","436","72122.7202609","79044.0446594","79828.244878","65918.2508934","66685.4622517","67452.3722388","68219.5745829","68987.1810589","72889.8790369","73657.2024703","74424.0902227","75208.3733709","75976.1910771","76742.7426038","77509.6667129","78276.8666533","79046.9024273","Mapping"
"Mixed","Male","tile","29","F_depth.wav","None","726.841744381","436","72122.7202609","79044.0446594","79828.244878","80595.6536449","66685.4622517","67452.3722388","68219.5745829","68987.1810589","72889.8790369","73657.2024703","74424.0902227","75208.3733709","75976.1910771","76742.7426038","77509.6667129","78276.8666533","79831.577989","Mapping"
"Mixed","Male","tile","29","M_tile.wav","None","729.036075001","436","72122.7202609","79044.0446594","79828.244878","80595.6536449","81362.414599","67452.3722388","68219.5745829","68987.1810589","72889.8790369","73657.2024703","74424.0902227","75208.3733709","75976.1910771","76742.7426038","77509.6667129","78276.8666533","80598.841629","Mapping"
"Mixed","Male","tile","29","F_jaw.wav","space","608.932905703","436","72122.7202609","79044.0446594","79828.244878","80595.6536449","81362.414599","82129.7410371","68219.5745829","68987.1810589","72889.8790369","73657.2024703","74424.0902227","75208.3733709","75976.1910771","76742.7426038","77509.6667129","78276.8666533","81365.1167235","Mapping"
"Mixed","Male","tile","29","F_lash.wav","None","734.484793527","436","72122.7202609","79044.0446594","79828.244878","80595.6536449","81362.414599","82129.7410371","82896.8442263","68987.1810589","72889.8790369","73657.2024703","74424.0902227","75208.3733709","75976.1910771","76742.7426038","77509.6667129","78276.8666533","82132.5327016","Mapping"
"Mixed","Male","tile","29","F_knife.wav","None","737.806486664","436","72122.7202609","79044.0446594","79828.244878","80595.6536449","81362.414599","82129.7410371","82896.8442263","83664.0606925","72889.8790369","73657.2024703","74424.0902227","75208.3733709","75976.1910771","76742.7426038","77509.6667129","78276.8666533","82899.3771863","Mapping"
"Mixed","Male","ball","5","F_reek.wav","None","740.651634766","436","86816.5686234","79044.0446594","79828.244878","80595.6536449","81362.414599","82129.7410371","82896.8442263","83664.0606925","72889.8790369","73657.2024703","74424.0902227","75208.3733709","75976.1910771","76742.7426038","77509.6667129","78276.8666533","83666.9238688","Mapping"
"Mixed","Male","ball","5","F_bluff.wav","None","732.093054281","436","86816.5686234","79044.0446594","79828.244878","80595.6536449","81362.414599","82129.7410371","82896.8442263","83664.0606925","87583.6225355","73657.2024703","74424.0902227","75208.3733709","75976.1910771","76742.7426038","77509.6667129","78276.8666533","86820.019819","Mapping"
"Mixed","Male","ball","5","F_park.wav","None","734.876305614","436","86816.5686234","79044.0446594","79828.244878","80595.6536449","81362.414599","82129.7410371","82896.8442263","83664.0606925","87583.6225355","88350.8092552","74424.0902227","75208.3733709","75976.1910771","76742.7426038","77509.6667129","78276.8666533","87586.7600406","Mapping"
"Mixed","Male","ball","5","F_greet.wav","None","737.390336053","436","86816.5686234","79044.0446594","79828.244878","80595.6536449","81362.414599","82129.7410371","82896.8442263","83664.0606925","87583.6225355","88350.8092552","89118.1320877","75208.3733709","75976.1910771","76742.7426038","77509.6667129","78276.8666533","88353.7175019","Mapping"
"Mixed","Male","ball","5","M_depth.wav","None","740.039277407","436","86816.5686234","79044.0446594","79828.244878","80595.6536449","81362.414599","82129.7410371","82896.8442263","83664.0606925","87583.6225355","88350.8092552","89118.1320877","89885.2418872","75976.1910771","76742.7426038","77509.6667129","78276.8666533","89121.0472453","Mapping"
"Mixed","Male","ball","5","M_ball.wav","None","742.498922817","436","86816.5686234","79044.0446594","79828.244878","80595.6536449","81362.414599","82129.7410371","82896.8442263","83664.0606925","87583.6225355","88350.8092552","89118.1320877","89885.2418872","90669.4427067","76742.7426038","77509.6667129","78276.8666533","89888.4989793","Mapping"
"Mixed","Male","ball","5","M_dime.wav","space","572.456478458","436","86816.5686234","79044.0446594","79828.244878","80595.6536449","81362.414599","82129.7410371","82896.8442263","83664.0606925","87583.6225355","88350.8092552","89118.1320877","89885.2418872","90669.4427067","91436.4290131","77509.6667129","78276.8666533","90672.6604373","Mapping"
"Mixed","Male","ball","5","M_ball.wav","None","732.443402016","436","86816.5686234","79044.0446594","79828.244878","80595.6536449","81362.414599","82129.7410371","82896.8442263","83664.0606925","87583.6225355","88350.8092552","89118.1320877","89885.2418872","90669.4427067","91436.4290131","92203.7112822","78276.8666533","91438.8850529","Mapping"
"Mixed","Male","ball","5","F_cad.wav","space","718.710732359","436","86816.5686234","79044.0446594","79828.244878","80595.6536449","81362.414599","82129.7410371","82896.8442263","83664.0606925","87583.6225355","88350.8092552","89118.1320877","89885.2418872","90669.4427067","91436.4290131","92203.7112822","92970.8655512","92206.386064","Mapping"
"Mixed","Male","ball","5","M_greet.wav","None","737.249115267","436","86816.5686234","93738.4326656","79828.244878","80595.6536449","81362.414599","82129.7410371","82896.8442263","83664.0606925","87583.6225355","88350.8092552","89118.1320877","89885.2418872","90669.4427067","91436.4290131","92203.7112822","92970.8655512","92973.5018728","Mapping"
"Mixed","Male","ball","5","M_priest.wav","None","726.120016032","436","86816.5686234","93738.4326656","94505.6130755","80595.6536449","81362.414599","82129.7410371","82896.8442263","83664.0606925","87583.6225355","88350.8092552","89118.1320877","89885.2418872","90669.4427067","91436.4290131","92203.7112822","92970.8655512","93754.2400789","Mapping"
"Mixed","Male","ball","5","M_ball.wav","None","739.697943765","436","86816.5686234","93738.4326656","94505.6130755","95289.5630028","81362.414599","82129.7410371","82896.8442263","83664.0606925","87583.6225355","88350.8092552","89118.1320877","89885.2418872","90669.4427067","91436.4290131","92203.7112822","92970.8655512","94510.1555772","Mapping"
"Mixed","Male","ball","5","F_cad.wav","space","461.219270208","436","86816.5686234","93738.4326656","94505.6130755","95289.5630028","96057.1304177","82129.7410371","82896.8442263","83664.0606925","87583.6225355","88350.8092552","89118.1320877","89885.2418872","90669.4427067","91436.4290131","92203.7112822","92970.8655512","95292.8615598","Mapping"
"Mixed","Male","ball","5","F_priest.wav","None","728.721182695","436","86816.5686234","93738.4326656","94505.6130755","95289.5630028","96057.1304177","96823.675334","82896.8442263","83664.0606925","87583.6225355","88350.8092552","89118.1320877","89885.2418872","90669.4427067","91436.4290131","92203.7112822","92970.8655512","96060.8349093","Mapping"
"Mixed","Male","ball","5","M_ball.wav","None","732.803064311","436","86816.5686234","93738.4326656","94505.6130755","95289.5630028","96057.1304177","96823.675334","97590.7989551","83664.0606925","87583.6225355","88350.8092552","89118.1320877","89885.2418872","90669.4427067","91436.4290131","92203.7112822","92970.8655512","96826.3774585","Mapping"
"Mixed","Male","ball","5","F_priest.wav","space","305.657064255","436","86816.5686234","93738.4326656","94505.6130755","95289.5630028","96057.1304177","96823.675334","97590.7989551","98358.5277222","87583.6225355","88350.8092552","89118.1320877","89885.2418872","90669.4427067","91436.4290131","92203.7112822","92970.8655512","97593.4346758","Mapping"
"Mixed","Male","ball","2","F_park.wav","None","735.151235443","436","101494.013441","93738.4326656","94505.6130755","95289.5630028","96057.1304177","96823.675334","97590.7989551","98358.5277222","87583.6225355","88350.8092552","89118.1320877","89885.2418872","90669.4427067","91436.4290131","92203.7112822","92970.8655512","98363.755896","Mapping"
"Mixed","Male","ball","2","M_ball.wav","None","732.096058979","436","101494.013441","93738.4326656","94505.6130755","95289.5630028","96057.1304177","96823.675334","97590.7989551","98358.5277222","102260.890676","88350.8092552","89118.1320877","89885.2418872","90669.4427067","91436.4290131","92203.7112822","92970.8655512","101497.439998","Mapping"
"Mixed","Male","ball","2","M_depth.wav","space","415.416862721","436","101494.013441","93738.4326656","94505.6130755","95289.5630028","96057.1304177","96823.675334","97590.7989551","98358.5277222","102260.890676","103028.607124","89118.1320877","89885.2418872","90669.4427067","91436.4290131","92203.7112822","92970.8655512","102263.659505","Mapping"
"Mixed","Male","ball","2","F_priest.wav","None","736.757246275","436","101494.013441","93738.4326656","94505.6130755","95289.5630028","96057.1304177","96823.675334","97590.7989551","98358.5277222","102260.890676","103028.607124","103795.75929","89885.2418872","90669.4427067","91436.4290131","92203.7112822","92970.8655512","103031.733212","Mapping"
"Mixed","Male","ball","2","M_romp.wav","None","739.63244136","436","101494.013441","93738.4326656","94505.6130755","95289.5630028","96057.1304177","96823.675334","97590.7989551","98358.5277222","102260.890676","103028.607124","103795.75929","104579.577311","90669.4427067","91436.4290131","92203.7112822","92970.8655512","103798.981227","Mapping"
"Mixed","Male","ball","2","M_cling.wav","None","725.911490026","436","101494.013441","93738.4326656","94505.6130755","95289.5630028","96057.1304177","96823.675334","97590.7989551","98358.5277222","102260.890676","103028.607124","103795.75929","104579.577311","105346.703937","91436.4290131","92203.7112822","92970.8655512","104582.606948","Mapping"
"Mixed","Male","ball","2","M_depth.wav","None","729.201333364","436","101494.013441","93738.4326656","94505.6130755","95289.5630028","96057.1304177","96823.675334","97590.7989551","98358.5277222","102260.890676","103028.607124","103795.75929","104579.577311","105346.703937","106113.817042","92203.7112822","92970.8655512","105349.426193","Mapping"
"Mixed","Male","ball","2","F_depth.wav","None","731.744509369","436","101494.013441","93738.4326656","94505.6130755","95289.5630028","96057.1304177","96823.675334","97590.7989551","98358.5277222","102260.890676","103028.607124","103795.75929","104579.577311","105346.703937","106113.817042","106880.961696","92970.8655512","106116.601795","Mapping"
"Mixed","Male","ball","2","M_ball.wav","None","733.856811741","436","101494.013441","93738.4326656","94505.6130755","95289.5630028","96057.1304177","96823.675334","97590.7989551","98358.5277222","102260.890676","103028.607124","103795.75929","104579.577311","105346.703937","106113.817042","106880.961696","107648.173054","106884.113623","Mapping"
"Mixed","Male","ball","2","F_depth.wav","space","425.277078186","436","101494.013441","108415.387417","94505.6130755","95289.5630028","96057.1304177","96823.675334","97590.7989551","98358.5277222","102260.890676","103028.607124","103795.75929","104579.577311","105346.703937","106113.817042","106880.961696","107648.173054","107650.80577","Mapping"
"Mixed","Male","ball","2","F_depth.wav","None","740.347258907","436","101494.013441","108415.387417","109199.464743","95289.5630028","96057.1304177","96823.675334","97590.7989551","98358.5277222","102260.890676","103028.607124","103795.75929","104579.577311","105346.703937","106113.817042","106880.961696","107648.173054","108417.893334","Mapping"
"Mixed","Male","ball","2","F_gnash.wav","None","726.38142472","436","101494.013441","108415.387417","109199.464743","109966.91167","96057.1304177","96823.675334","97590.7989551","98358.5277222","102260.890676","103028.607124","103795.75929","104579.577311","105346.703937","106113.817042","106880.961696","107648.173054","109202.717929","Mapping"
"Mixed","Male","ball","2","M_ball.wav","None","729.123511697","436","101494.013441","108415.387417","109199.464743","109966.91167","110733.784098","96823.675334","97590.7989551","98358.5277222","102260.890676","103028.607124","103795.75929","104579.577311","105346.703937","106113.817042","106880.961696","107648.173054","109970.059691","Mapping"
"Mixed","Male","ball","2","F_lash.wav","space","486.473753062","436","101494.013441","108415.387417","109199.464743","109966.91167","110733.784098","111501.365034","97590.7989551","98358.5277222","102260.890676","103028.607124","103795.75929","104579.577311","105346.703937","106113.817042","106880.961696","107648.173054","110736.636758","Mapping"
"Mixed","Male","ball","2","M_ball.wav","None","734.125732171","436","101494.013441","108415.387417","109199.464743","109966.91167","110733.784098","111501.365034","112268.564974","98358.5277222","102260.890676","103028.607124","103795.75929","104579.577311","105346.703937","106113.817042","106880.961696","107648.173054","111504.582164","Mapping"
"Mixed","Male","ball","2","F_dime.wav","space","444.525471121","436","101494.013441","108415.387417","109199.464743","109966.91167","110733.784098","111501.365034","112268.564974","113035.370098","102260.890676","103028.607124","103795.75929","104579.577311","105346.703937","106113.817042","106880.961696","107648.173054","112271.597015","Mapping"
"Mixed","Male","ball","6","F_bluff.wav","None","740.142038063","436","116187.996714","108415.387417","109199.464743","109966.91167","110733.784098","111501.365034","112268.564974","113035.370098","102260.890676","103028.607124","103795.75929","104579.577311","105346.703937","106113.817042","106880.961696","107648.173054","113038.247696","Mapping"
"Mixed","Male","ball","6","M_romp.wav","None","733.313862893","436","116187.996714","108415.387417","109199.464743","109966.91167","110733.784098","111501.365034","112268.564974","113035.370098","116955.318645","103028.607124","103795.75929","104579.577311","105346.703937","106113.817042","106880.961696","107648.173054","116190.94913","Mapping"
"Mixed","Male","ball","6","F_cad.wav","None","735.864851111","436","116187.996714","108415.387417","109199.464743","109966.91167","110733.784098","111501.365034","112268.564974","113035.370098","116955.318645","117722.216914","103795.75929","104579.577311","105346.703937","106113.817042","106880.961696","107648.173054","116958.573334","Mapping"
"Mixed","Male","ball","6","F_park.wav","None","739.698845176","436","116187.996714","108415.387417","109199.464743","109966.91167","110733.784098","111501.365034","112268.564974","113035.370098","116955.318645","117722.216914","118489.354357","104579.577311","105346.703937","106113.817042","106880.961696","107648.173054","117724.987546","Mapping"
"Mixed","Male","ball","6","M_ball.wav","None","742.351091696","436","116187.996714","108415.387417","109199.464743","109966.91167","110733.784098","111501.365034","112268.564974","113035.370098","116955.318645","117722.216914","118489.354357","119273.477054","105346.703937","106113.817042","106880.961696","107648.173054","118492.454904","Mapping"
"Mixed","Male","ball","6","M_priest.wav","space","353.53872244","436","116187.996714","108415.387417","109199.464743","109966.91167","110733.784098","111501.365034","112268.564974","113035.370098","116955.318645","117722.216914","118489.354357","119273.477054","120040.457651","106113.817042","106880.961696","107648.173054","119276.543047","Mapping"
"Mixed","Male","ball","6","F_park.wav","None","732.007720868","436","116187.996714","108415.387417","109199.464743","109966.91167","110733.784098","111501.365034","112268.564974","113035.370098","116955.318645","117722.216914","118489.354357","119273.477054","120040.457651","120807.593291","106880.961696","107648.173054","120043.11771","Mapping"
"Mixed","Male","ball","6","F_bluff.wav","None","735.402127684","436","116187.996714","108415.387417","109199.464743","109966.91167","110733.784098","111501.365034","112268.564974","113035.370098","116955.318645","117722.216914","118489.354357","119273.477054","120040.457651","120807.593291","121574.909213","107648.173054","120810.279491","Mapping"
"Mixed","Male","ball","6","M_ball.wav","None","738.092533866","436","116187.996714","108415.387417","109199.464743","109966.91167","110733.784098","111501.365034","112268.564974","113035.370098","116955.318645","117722.216914","118489.354357","119273.477054","120040.457651","120807.593291","121574.909213","122342.139801","121577.576183","Mapping"
"Mixed","Male","ball","6","M_bluff.wav","space","505.099272203","436","116187.996714","123126.449091","109199.464743","109966.91167","110733.784098","111501.365034","112268.564974","113035.370098","116955.318645","117722.216914","118489.354357","119273.477054","120040.457651","120807.593291","121574.909213","122342.139801","122345.03633","Mapping"
"Mixed","Male","ball","6","F_jaw.wav","None","725.864015803","436","116187.996714","123126.449091","123893.481669","109966.91167","110733.784098","111501.365034","112268.564974","113035.370098","116955.318645","117722.216914","118489.354357","119273.477054","120040.457651","120807.593291","121574.909213","122342.139801","123129.469112","Mapping"
"Mixed","Male","ball","6","F_reek.wav","None","729.273746576","436","116187.996714","123126.449091","123893.481669","124660.512145","110733.784098","111501.365034","112268.564974","113035.370098","116955.318645","117722.216914","118489.354357","119273.477054","120040.457651","120807.593291","121574.909213","122342.139801","123896.267925","Mapping"
"Mixed","Male","ball","6","M_ball.wav","None","731.718368497","436","116187.996714","123126.449091","123893.481669","124660.512145","125427.753249","111501.365034","112268.564974","113035.370098","116955.318645","117722.216914","118489.354357","119273.477054","120040.457651","120807.593291","121574.909213","122342.139801","124663.727171","Mapping"
"Mixed","Male","ball","6","F_bluff.wav","space","444.711762368","436","116187.996714","123126.449091","123893.481669","124660.512145","125427.753249","126194.981434","112268.564974","113035.370098","116955.318645","117722.216914","118489.354357","119273.477054","120040.457651","120807.593291","121574.909213","122342.139801","125430.391674","Mapping"
"Mixed","Male","ball","6","M_ball.wav","None","737.659556951","436","116187.996714","123126.449091","123893.481669","124660.512145","125427.753249","126194.981434","126962.158839","113035.370098","116955.318645","117722.216914","118489.354357","119273.477054","120040.457651","120807.593291","121574.909213","122342.139801","126197.612948","Mapping"
"Mixed","Male","ball","6","M_priest.wav","space","590.439893731","436","116187.996714","123126.449091","123893.481669","124660.512145","125427.753249","126194.981434","126962.158839","127729.48678","116955.318645","117722.216914","118489.354357","119273.477054","120040.457651","120807.593291","121574.909213","122342.139801","126964.671367","Mapping"
"Mixed","Male","tile","26","F_gnash.wav","None","742.426509605","436","130882.091462","123126.449091","123893.481669","124660.512145","125427.753249","126194.981434","126962.158839","127729.48678","116955.318645","117722.216914","118489.354357","119273.477054","120040.457651","120807.593291","121574.909213","122342.139801","127732.463834","Mapping"
"Mixed","Male","tile","26","M_tile.wav","None","731.902556457","436","130882.091462","123126.449091","123893.481669","124660.512145","125427.753249","126194.981434","126962.158839","127729.48678","131648.850012","117722.216914","118489.354357","119273.477054","120040.457651","120807.593291","121574.909213","122342.139801","130885.086544","Mapping"
"Mixed","Male","tile","26","M_cling.wav","space","433.522869655","436","130882.091462","123126.449091","123893.481669","124660.512145","125427.753249","126194.981434","126962.158839","127729.48678","131648.850012","132416.177352","118489.354357","119273.477054","120040.457651","120807.593291","121574.909213","122342.139801","131651.590296","Mapping"
"Mixed","Male","tile","26","M_tile.wav","None","738.13550104","436","130882.091462","123126.449091","123893.481669","124660.512145","125427.753249","126194.981434","126962.158839","127729.48678","131648.850012","132416.177352","133183.352654","119273.477054","120040.457651","120807.593291","121574.909213","122342.139801","132418.866556","Mapping"
"Mixed","Male","tile","26","M_cling.wav","space","420.678689061","436","130882.091462","123126.449091","123893.481669","124660.512145","125427.753249","126194.981434","126962.158839","127729.48678","131648.850012","132416.177352","133183.352654","133967.663145","120040.457651","120807.593291","121574.909213","122342.139801","133186.48475","Mapping"
"Mixed","Male","tile","26","M_tile.wav","None","726.091771874","436","130882.091462","123126.449091","123893.481669","124660.512145","125427.753249","126194.981434","126962.158839","127729.48678","131648.850012","132416.177352","133183.352654","133967.663145","134735.41655","120807.593291","121574.909213","122342.139801","133970.591222","Mapping"
"Mixed","Male","tile","26","F_dime.wav","space","375.924620552","436","130882.091462","123126.449091","123893.481669","124660.512145","125427.753249","126194.981434","126962.158839","127729.48678","131648.850012","132416.177352","133183.352654","133967.663145","134735.41655","135502.179908","121574.909213","122342.139801","134739.123746","Mapping"
"Mixed","Male","tile","26","M_tile.wav","None","731.083475908","436","130882.091462","123126.449091","123893.481669","124660.512145","125427.753249","126194.981434","126962.158839","127729.48678","131648.850012","132416.177352","133183.352654","133967.663145","134735.41655","135502.179908","136269.405388","122342.139801","135505.00162","Mapping"
"Mixed","Male","tile","26","M_park.wav","space","528.483931779","436","130882.091462","123126.449091","123893.481669","124660.512145","125427.753249","126194.981434","126962.158839","127729.48678","131648.850012","132416.177352","133183.352654","133967.663145","134735.41655","135502.179908","136269.405388","137036.392596","136272.644152","Mapping"
"Mixed","Male","tile","26","M_dime.wav","None","736.857603177","436","130882.091462","137803.746077","123893.481669","124660.512145","125427.753249","126194.981434","126962.158839","127729.48678","131648.850012","132416.177352","133183.352654","133967.663145","134735.41655","135502.179908","136269.405388","137036.392596","137039.451979","Mapping"
"Mixed","Male","tile","26","F_greet.wav","None","739.885737359","436","130882.091462","137803.746077","138587.611872","124660.512145","125427.753249","126194.981434","126962.158839","127729.48678","131648.850012","132416.177352","133183.352654","133967.663145","134735.41655","135502.179908","136269.405388","137036.392596","137806.896502","Mapping"
"Mixed","Male","tile","26","F_cling.wav","None","726.277161713","436","130882.091462","137803.746077","138587.611872","139354.798592","125427.753249","126194.981434","126962.158839","127729.48678","131648.850012","132416.177352","133183.352654","133967.663145","134735.41655","135502.179908","136269.405388","137036.392596","138590.853941","Mapping"
"Mixed","Male","tile","26","F_greet.wav","None","729.377709111","436","130882.091462","137803.746077","138587.611872","139354.798592","140121.791208","126194.981434","126962.158839","127729.48678","131648.850012","132416.177352","133183.352654","133967.663145","134735.41655","135502.179908","136269.405388","137036.392596","139358.078219","Mapping"
"Mixed","Male","tile","26","F_dime.wav","None","733.485431123","436","130882.091462","137803.746077","138587.611872","139354.798592","140121.791208","140888.952689","126962.158839","127729.48678","131648.850012","132416.177352","133183.352654","133967.663145","134735.41655","135502.179908","136269.405388","137036.392596","140124.61953","Mapping"
"Mixed","Male","tile","26","F_gnash.wav","None","736.501246047","436","130882.091462","137803.746077","138587.611872","139354.798592","140121.791208","140888.952689","141656.060685","127729.48678","131648.850012","132416.177352","133183.352654","133967.663145","134735.41655","135502.179908","136269.405388","137036.392596","140891.835395","Mapping"
"Mixed","Male","tile","26","F_greet.wav","None","740.203934834","436","130882.091462","137803.746077","138587.611872","139354.798592","140121.791208","140888.952689","141656.060685","142440.361862","131648.850012","132416.177352","133183.352654","133967.663145","134735.41655","135502.179908","136269.405388","137036.392596","141658.866472","Mapping"
"Mixed","Male","done","39","F_dime.wav","None","726.200541929","436","145576.023956","137803.746077","138587.611872","139354.798592","140121.791208","140888.952689","141656.060685","142440.361862","131648.850012","132416.177352","133183.352654","133967.663145","134735.41655","135502.179908","136269.405388","137036.392596","142443.171855","Mapping"
"Mixed","Male","done","39","M_done.wav","None","733.65008855","436","145576.023956","137803.746077","138587.611872","139354.798592","140121.791208","140888.952689","141656.060685","142440.361862","146342.946563","132416.177352","133183.352654","133967.663145","134735.41655","135502.179908","136269.405388","137036.392596","145579.249799","Mapping"
"Mixed","Male","done","39","F_knife.wav","space","512.257062692","436","145576.023956","137803.746077","138587.611872","139354.798592","140121.791208","140888.952689","141656.060685","142440.361862","146342.946563","147110.041639","133183.352654","133967.663145","134735.41655","135502.179908","136269.405388","137036.392596","146345.856913","Mapping"
"Mixed","Male","done","39","F_priest.wav","None","739.598788747","436","145576.023956","137803.746077","138587.611872","139354.798592","140121.791208","140888.952689","141656.060685","142440.361862","146342.946563","147110.041639","147877.313392","133967.663145","134735.41655","135502.179908","136269.405388","137036.392596","147112.619369","Mapping"
"Mixed","Male","done","39","M_done.wav","None","742.478190405","436","145576.023956","137803.746077","138587.611872","139354.798592","140121.791208","140888.952689","141656.060685","142440.361862","146342.946563","147110.041639","147877.313392","148661.470343","134735.41655","135502.179908","136269.405388","137036.392596","147880.169657","Mapping"
"Mixed","Male","done","39","F_bluff.wav","space","453.699714133","436","145576.023956","137803.746077","138587.611872","139354.798592","140121.791208","140888.952689","141656.060685","142440.361862","146342.946563","147110.041639","147877.313392","148661.470343","149428.794077","135502.179908","136269.405388","137036.392596","148664.409538","Mapping"
"Mixed","Male","done","39","F_reek.wav","None","730.811851248","436","145576.023956","137803.746077","138587.611872","139354.798592","140121.791208","140888.952689","141656.060685","142440.361862","146342.946563","147110.041639","147877.313392","148661.470343","149428.794077","150196.035181","136269.405388","137036.392596","149431.833028","Mapping"
"Mixed","Male","done","39","F_priest.wav","None","733.482726893","436","145576.023956","137803.746077","138587.611872","139354.798592","140121.791208","140888.952689","141656.060685","142440.361862","146342.946563","147110.041639","147877.313392","148661.470343","149428.794077","150196.035181","150962.921431","137036.392596","150199.403447","Mapping"
"Mixed","Male","done","39","M_done.wav","None","737.136138639","436","145576.023956","137803.746077","138587.611872","139354.798592","140121.791208","140888.952689","141656.060685","142440.361862","146342.946563","147110.041639","147877.313392","148661.470343","149428.794077","150196.035181","150962.921431","151730.072696","150966.113021","Mapping"
"Mixed","Male","done","39","M_cad.wav","space","343.186037051","436","145576.023956","152514.914417","138587.611872","139354.798592","140121.791208","140888.952689","141656.060685","142440.361862","146342.946563","147110.041639","147877.313392","148661.470343","149428.794077","150196.035181","150962.921431","151730.072696","151732.963515","Mapping"
"Mixed","Male","done","39","M_romp.wav","None","725.211996436","436","145576.023956","152514.914417","153282.135691","139354.798592","140121.791208","140888.952689","141656.060685","142440.361862","146342.946563","147110.041639","147877.313392","148661.470343","149428.794077","150196.035181","150962.921431","151730.072696","152518.249631","Mapping"
"Mixed","Male","done","39","M_cling.wav","None","728.325464032","436","145576.023956","152514.914417","153282.135691","154048.942016","140121.791208","140888.952689","141656.060685","142440.361862","146342.946563","147110.041639","147877.313392","148661.470343","149428.794077","150196.035181","150962.921431","151730.072696","153285.971788","Mapping"
"Mixed","Male","done","39","F_lash.wav","None","732.277843181","436","145576.023956","152514.914417","153282.135691","154048.942016","154816.251327","140888.952689","141656.060685","142440.361862","146342.946563","147110.041639","147877.313392","148661.470343","149428.794077","150196.035181","150962.921431","151730.072696","154052.206319","Mapping"
"Mixed","Male","done","39","M_done.wav","None","735.317996157","436","145576.023956","152514.914417","153282.135691","154048.942016","154816.251327","155582.94768","141656.060685","142440.361862","146342.946563","147110.041639","147877.313392","148661.470343","149428.794077","150196.035181","150962.921431","151730.072696","154819.376213","Mapping"
"Mixed","Male","done","39","F_cad.wav","space","600.112315591","436","145576.023956","152514.914417","153282.135691","154048.942016","154816.251327","155582.94768","156350.512692","142440.361862","146342.946563","147110.041639","147877.313392","148661.470343","149428.794077","150196.035181","150962.921431","151730.072696","155585.949073","Mapping"
"Mixed","Male","done","39","M_reek.wav","None","741.032630416","436","145576.023956","152514.914417","153282.135691","154048.942016","154816.251327","155582.94768","156350.512692","157134.557868","146342.946563","147110.041639","147877.313392","148661.470343","149428.794077","150196.035181","150962.921431","151730.072696","156353.719906","Mapping"
"Mixed","Female","ball","8","M_cad.wav","None","727.375979604","436","160270.006628","152514.914417","153282.135691","154048.942016","154816.251327","155582.94768","156350.512692","157134.557868","146342.946563","147110.041639","147877.313392","148661.470343","149428.794077","150196.035181","150962.921431","151730.072696","157137.568274","Mapping"
"Mixed","Female","ball","8","F_ball.wav","None","732.910632483","436","160270.006628","152514.914417","153282.135691","154048.942016","154816.251327","155582.94768","156350.512692","157134.557868","161036.823169","147110.041639","147877.313392","148661.470343","149428.794077","150196.035181","150962.921431","151730.072696","160273.166368","Mapping"
"Mixed","Female","ball","8","F_depth.wav","space","413.401612081","436","160270.006628","152514.914417","153282.135691","154048.942016","154816.251327","155582.94768","156350.512692","157134.557868","161036.823169","161804.475317","147877.313392","148661.470343","149428.794077","150196.035181","150962.921431","151730.072696","161039.73412","Mapping"
"Mixed","Female","ball","8","F_cad.wav","None","736.664100656","436","160270.006628","152514.914417","153282.135691","154048.942016","154816.251327","155582.94768","156350.512692","157134.557868","161036.823169","161804.475317","162571.76029","148661.470343","149428.794077","150196.035181","150962.921431","151730.072696","161809.119678","Mapping"
"Mixed","Female","ball","8","F_ball.wav","None","740.371897424","436","160270.006628","152514.914417","153282.135691","154048.942016","154816.251327","155582.94768","156350.512692","157134.557868","161036.823169","161804.475317","162571.76029","163355.504696","149428.794077","150196.035181","150962.921431","151730.072696","162575.281195","Mapping"
"Mixed","Female","ball","8","F_greet.wav","space","294.576641121","436","160270.006628","152514.914417","153282.135691","154048.942016","154816.251327","155582.94768","156350.512692","157134.557868","161036.823169","161804.475317","162571.76029","163355.504696","164122.761425","150196.035181","150962.921431","151730.072696","163358.553863","Mapping"
"Mixed","Female","ball","8","M_romp.wav","None","729.431493197","436","160270.006628","152514.914417","153282.135691","154048.942016","154816.251327","155582.94768","156350.512692","157134.557868","161036.823169","161804.475317","162571.76029","163355.504696","164122.761425","164889.632051","150962.921431","151730.072696","164125.913353","Mapping"
"Mixed","Female","ball","8","F_ball.wav","None","733.942145151","436","160270.006628","152514.914417","153282.135691","154048.942016","154816.251327","155582.94768","156350.512692","157134.557868","161036.823169","161804.475317","162571.76029","163355.504696","164122.761425","164889.632051","165657.009268","151730.072696","164892.367227","Mapping"
"Mixed","Female","ball","8","M_greet.wav","space","629.335402969","436","160270.006628","152514.914417","153282.135691","154048.942016","154816.251327","155582.94768","156350.512692","157134.557868","161036.823169","161804.475317","162571.76029","163355.504696","164122.761425","164889.632051","165657.009268","166424.131087","165659.831581","Mapping"
"Mixed","Female","ball","8","M_jolt.wav","None","739.372234551","436","160270.006628","167191.337036","153282.135691","154048.942016","154816.251327","155582.94768","156350.512692","157134.557868","161036.823169","161804.475317","162571.76029","163355.504696","164122.761425","164889.632051","165657.009268","166424.131087","166427.004479","Mapping"
"Mixed","Female","ball","8","M_romp.wav","None","742.565627101","436","160270.006628","167191.337036","167975.648429","154048.942016","154816.251327","155582.94768","156350.512692","157134.557868","161036.823169","161804.475317","162571.76029","163355.504696","164122.761425","164889.632051","165657.009268","166424.131087","167194.239274","Mapping"
"Mixed","Female","ball","8","M_cling.wav","None","728.628638011","436","160270.006628","167191.337036","167975.648429","168742.458059","154816.251327","155582.94768","156350.512692","157134.557868","161036.823169","161804.475317","162571.76029","163355.504696","164122.761425","164889.632051","165657.009268","166424.131087","167978.590929","Mapping"
"Mixed","Female","ball","8","F_knife.wav","None","732.416059265","436","160270.006628","167191.337036","167975.648429","168742.458059","169509.743934","155582.94768","156350.512692","157134.557868","161036.823169","161804.475317","162571.76029","163355.504696","164122.761425","164889.632051","165657.009268","166424.131087","168745.306512","Mapping"
"Mixed","Female","ball","8","M_knife.wav","None","735.449601907","436","160270.006628","167191.337036","167975.648429","168742.458059","169509.743934","170276.904513","156350.512692","157134.557868","161036.823169","161804.475317","162571.76029","163355.504696","164122.761425","164889.632051","165657.009268","166424.131087","169512.775073","Mapping"
"Mixed","Female","ball","8","F_ball.wav","None","738.746055584","436","160270.006628","167191.337036","167975.648429","168742.458059","169509.743934","170276.904513","171044.175664","157134.557868","161036.823169","161804.475317","162571.76029","163355.504696","164122.761425","164889.632051","165657.009268","166424.131087","170279.900496","Mapping"
"Mixed","Female","ball","8","M_reek.wav","space","444.072963674","436","160270.006628","167191.337036","167975.648429","168742.458059","169509.743934","170276.904513","171044.175664","171828.359958","161036.823169","161804.475317","162571.76029","163355.504696","164122.761425","164889.632051","165657.009268","166424.131087","171047.052963","Mapping"
"Mixed","Female","done","48","M_jaw.wav","None","727.318890353","436","174963.991104","167191.337036","167975.648429","168742.458059","169509.743934","170276.904513","171044.175664","171828.359958","161036.823169","161804.475317","162571.76029","163355.504696","164122.761425","164889.632051","165657.009268","166424.131087","171831.619454","Mapping"
"Mixed","Female","done","48","F_cling.wav","None","733.3406047","436","174963.991104","167191.337036","167975.648429","168742.458059","169509.743934","170276.904513","171044.175664","171828.359958","175730.828678","161804.475317","162571.76029","163355.504696","164122.761425","164889.632051","165657.009268","166424.131087","174966.966355","Mapping"
"Mixed","Female","done","48","F_done.wav","None","737.18601662","436","174963.991104","167191.337036","167975.648429","168742.458059","169509.743934","170276.904513","171044.175664","171828.359958","175730.828678","176498.130778","162571.76029","163355.504696","164122.761425","164889.632051","165657.009268","166424.131087","175733.549732","Mapping"
"Mixed","Female","done","48","F_bluff.wav","None","740.529644045","436","174963.991104","167191.337036","167975.648429","168742.458059","169509.743934","170276.904513","171044.175664","171828.359958","175730.828678","176498.130778","177282.369757","163355.504696","164122.761425","164889.632051","165657.009268","166424.131087","176500.779419","Mapping"
"Mixed","Female","done","48","M_knife.wav","space","542.810029201","436","174963.991104","167191.337036","167975.648429","168742.458059","169509.743934","170276.904513","171044.175664","171828.359958","175730.828678","176498.130778","177282.369757","178049.700402","164122.761425","164889.632051","165657.009268","166424.131087","177285.319769","Mapping"
"Mixed","Female","done","48","F_cad.wav","None","728.332975774","436","174963.991104","167191.337036","167975.648429","168742.458059","169509.743934","170276.904513","171044.175664","171828.359958","175730.828678","176498.130778","177282.369757","178049.700402","178816.472774","164889.632051","165657.009268","166424.131087","178053.003165","Mapping"
"Mixed","Female","done","48","M_romp.wav","None","732.401035777","436","174963.991104","167191.337036","167975.648429","168742.458059","169509.743934","170276.904513","171044.175664","171828.359958","175730.828678","176498.130778","177282.369757","178049.700402","178816.472774","179583.652282","165657.009268","166424.131087","178819.277358","Mapping"
"Mixed","Female","done","48","M_priest.wav","None","735.636193625","436","174963.991104","167191.337036","167975.648429","168742.458059","169509.743934","170276.904513","171044.175664","171828.359958","175730.828678","176498.130778","177282.369757","178049.700402","178816.472774","179583.652282","180350.898795","166424.131087","179586.365223","Mapping"
"Mixed","Female","done","48","M_gnash.wav","None","739.036910305","436","174963.991104","167191.337036","167975.648429","168742.458059","169509.743934","170276.904513","171044.175664","171828.359958","175730.828678","176498.130778","177282.369757","178049.700402","178816.472774","179583.652282","180350.898795","181118.132388","180353.745746","Mapping"
"Mixed","Female","done","48","F_done.wav","None","742.746509895","436","174963.991104","181902.297151","167975.648429","168742.458059","169509.743934","170276.904513","171044.175664","171828.359958","175730.828678","176498.130778","177282.369757","178049.700402","178816.472774","179583.652282","180350.898795","181118.132388","181120.668353","Mapping"
"Mixed","Female","done","48","M_park.wav","space","304.727110364","436","174963.991104","181902.297151","182669.189711","168742.458059","169509.743934","170276.904513","171044.175664","171828.359958","175730.828678","176498.130778","177282.369757","178049.700402","178816.472774","179583.652282","180350.898795","181118.132388","181905.477323","Mapping"
"Mixed","Female","done","48","F_depth.wav","None","731.287795337","436","174963.991104","181902.297151","182669.189711","183436.385445","169509.743934","170276.904513","171044.175664","171828.359958","175730.828678","176498.130778","177282.369757","178049.700402","178816.472774","179583.652282","180350.898795","181118.132388","182671.917676","Mapping"
"Mixed","Female","done","48","F_done.wav","None","734.882615481","436","174963.991104","181902.297151","182669.189711","183436.385445","184203.656597","170276.904513","171044.175664","171828.359958","175730.828678","176498.130778","177282.369757","178049.700402","178816.472774","179583.652282","180350.898795","181118.132388","183439.290687","Mapping"
"Mixed","Female","done","48","M_lash.wav","space","462.803046285","436","174963.991104","181902.297151","182669.189711","183436.385445","184203.656597","184970.902509","171044.175664","171828.359958","175730.828678","176498.130778","177282.369757","178049.700402","178816.472774","179583.652282","180350.898795","181118.132388","184206.342796","Mapping"
"Mixed","Female","done","48","F_done.wav","None","740.084347872","436","174963.991104","181902.297151","182669.189711","183436.385445","184203.656597","184970.902509","185755.071779","171828.359958","175730.828678","176498.130778","177282.369757","178049.700402","178816.472774","179583.652282","180350.898795","181118.132388","184974.05684","Mapping"
"Mixed","Female","done","48","M_depth.wav","space","399.326406907","436","174963.991104","181902.297151","182669.189711","183436.385445","184203.656597","184970.902509","185755.071779","186522.954687","175730.828678","176498.130778","177282.369757","178049.700402","178816.472774","179583.652282","180350.898795","181118.132388","185757.81657","Mapping"
"Mixed","Male","cave","16","M_gnash.wav","None","727.884975367","436","189658.026058","181902.297151","182669.189711","183436.385445","184203.656597","184970.902509","185755.071779","186522.954687","175730.828678","176498.130778","177282.369757","178049.700402","178816.472774","179583.652282","180350.898795","181118.132388","186526.578954","Mapping"
"Mixed","Male","cave","16","F_knife.wav","None","731.789279358","436","189658.026058","181902.297151","182669.189711","183436.385445","184203.656597","184970.902509","185755.071779","186522.954687","190424.920721","176498.130778","177282.369757","178049.700402","178816.472774","179583.652282","180350.898795","181118.132388","189661.319507","Mapping"
"Mixed","Male","cave","16","F_cad.wav","None","735.880475535","436","189658.026058","181902.297151","182669.189711","183436.385445","184203.656597","184970.902509","185755.071779","186522.954687","190424.920721","191192.170239","177282.369757","178049.700402","178816.472774","179583.652282","180350.898795","181118.132388","190427.807334","Mapping"
"Mixed","Male","cave","16","F_bluff.wav","space","668.115832294","436","189658.026058","181902.297151","182669.189711","183436.385445","184203.656597","184970.902509","185755.071779","186522.954687","190424.920721","191192.170239","191959.622273","178049.700402","178816.472774","179583.652282","180350.898795","181118.132388","191195.020495","Mapping"
"Mixed","Male","cave","16","M_cave.wav","None","740.646827249","436","189658.026058","181902.297151","182669.189711","183436.385445","184203.656597","184970.902509","185755.071779","186522.954687","190424.920721","191192.170239","191959.622273","192743.430379","178816.472774","179583.652282","180350.898795","181118.132388","191962.9653","Mapping"
"Mixed","Male","cave","16","M_jolt.wav","space","434.505405752","436","189658.026058","181902.297151","182669.189711","183436.385445","184203.656597","184970.902509","185755.071779","186522.954687","190424.920721","191192.170239","191959.622273","192743.430379","193511.528724","179583.652282","180350.898795","181118.132388","192746.706401","Mapping"
"Mixed","Male","cave","16","F_priest.wav","None","728.629539422","436","189658.026058","181902.297151","182669.189711","183436.385445","184203.656597","184970.902509","185755.071779","186522.954687","190424.920721","191192.170239","191959.622273","192743.430379","193511.528724","194278.083856","180350.898795","181118.132388","193515.06976","Mapping"
"Mixed","Male","cave","16","M_cad.wav","None","732.579214342","436","189658.026058","181902.297151","182669.189711","183436.385445","184203.656597","184970.902509","185755.071779","186522.954687","190424.920721","191192.170239","191959.622273","192743.430379","193511.528724","194278.083856","195045.207778","181118.132388","194281.729756","Mapping"
"Mixed","Male","cave","16","F_jaw.wav","None","737.05080523","436","189658.026058","181902.297151","182669.189711","183436.385445","184203.656597","184970.902509","185755.071779","186522.954687","190424.920721","191192.170239","191959.622273","192743.430379","193511.528724","194278.083856","195045.207778","195812.140601","195048.388851","Mapping"
"Mixed","Male","cave","16","F_cad.wav","None","741.315071984","436","189658.026058","196596.306265","182669.189711","183436.385445","184203.656597","184970.902509","185755.071779","186522.954687","190424.920721","191192.170239","191959.622273","192743.430379","193511.528724","194278.083856","195045.207778","195812.140601","195814.792547","Mapping"
"Mixed","Male","cave","16","M_cave.wav","space","544.289842743","436","189658.026058","196596.306265","197363.634807","183436.385445","184203.656597","184970.902509","185755.071779","186522.954687","190424.920721","191192.170239","191959.622273","192743.430379","193511.528724","194278.083856","195045.207778","195812.140601","196598.858155","Mapping"
"Mixed","Male","cave","16","F_jolt.wav","space","556.751825807","436","189658.026058","196596.306265","197363.634807","198130.457958","184203.656597","184970.902509","185755.071779","186522.954687","190424.920721","191192.170239","191959.622273","192743.430379","193511.528724","194278.083856","195045.207778","195812.140601","197366.427072","Mapping"
"Mixed","Male","cave","16","M_cave.wav","None","732.999271058","436","189658.026058","196596.306265","197363.634807","198130.457958","198897.672621","184970.902509","185755.071779","186522.954687","190424.920721","191192.170239","191959.622273","192743.430379","193511.528724","194278.083856","195045.207778","195812.140601","198133.149867","Mapping"
"Mixed","Male","cave","16","M_romp.wav","space","583.542910987","436","189658.026058","196596.306265","197363.634807","198130.457958","198897.672621","199665.329576","185755.071779","186522.954687","190424.920721","191192.170239","191959.622273","192743.430379","193511.528724","194278.083856","195045.207778","195812.140601","198900.622934","Mapping"
"Mixed","Male","cave","16","M_cave.wav","None","738.464515423","436","189658.026058","196596.306265","197363.634807","198130.457958","198897.672621","199665.329576","200449.78249","186522.954687","190424.920721","191192.170239","191959.622273","192743.430379","193511.528724","194278.083856","195045.207778","195812.140601","199669.01604","Mapping"
"Mixed","Male","cave","16","F_dime.wav","space","564.944434129","436","189658.026058","196596.306265","197363.634807","198130.457958","198897.672621","199665.329576","200449.78249","201216.93075","190424.920721","191192.170239","191959.622273","192743.430379","193511.528724","194278.083856","195045.207778","195812.140601","200453.253216","Mapping"
"Mixed","Male","cave","15","F_cad.wav","None","717.236627745","436","204352.043585","196596.306265","197363.634807","198130.457958","198897.672621","199665.329576","200449.78249","201216.93075","190424.920721","191192.170239","191959.622273","192743.430379","193511.528724","194278.083856","195045.207778","195812.140601","201231.611401","Mapping"
"Mixed","Male","cave","15","M_jaw.wav","None","732.139627093","436","204352.043585","196596.306265","197363.634807","198130.457958","198897.672621","199665.329576","200449.78249","201216.93075","205118.853516","191192.170239","191959.622273","192743.430379","193511.528724","194278.083856","195045.207778","195812.140601","204355.294968","Mapping"
"Mixed","Male","cave","15","M_cave.wav","None","736.961565712","436","204352.043585","196596.306265","197363.634807","198130.457958","198897.672621","199665.329576","200449.78249","201216.93075","205118.853516","205886.16463","191959.622273","192743.430379","193511.528724","194278.083856","195045.207778","195812.140601","205121.674025","Mapping"
"Mixed","Male","cave","15","F_jaw.wav","space","431.094172633","436","204352.043585","196596.306265","197363.634807","198130.457958","198897.672621","199665.329576","200449.78249","201216.93075","205118.853516","205886.16463","206653.397922","192743.430379","193511.528724","194278.083856","195045.207778","195812.140601","205889.145891","Mapping"
"Mixed","Male","cave","15","F_jaw.wav","None","742.436124638","436","204352.043585","196596.306265","197363.634807","198130.457958","198897.672621","199665.329576","200449.78249","201216.93075","205118.853516","205886.16463","206653.397922","207437.450009","193511.528724","194278.083856","195045.207778","195812.140601","206656.273718","Mapping"
"Mixed","Male","cave","15","M_cave.wav","None","728.928506825","436","204352.043585","196596.306265","197363.634807","198130.457958","198897.672621","199665.329576","200449.78249","201216.93075","205118.853516","205886.16463","206653.397922","207437.450009","208204.41979","194278.083856","195045.207778","195812.140601","207440.374181","Mapping"
"Mixed","Male","cave","15","F_jolt.wav","space","375.155718451","436","204352.043585","196596.306265","197363.634807","198130.457958","198897.672621","199665.329576","200449.78249","201216.93075","205118.853516","205886.16463","206653.397922","207437.450009","208204.41979","208971.695749","195045.207778","195812.140601","208207.040187","Mapping"
"Mixed","Male","cave","15","F_priest.wav","None","735.155141549","436","204352.043585","196596.306265","197363.634807","198130.457958","198897.672621","199665.329576","200449.78249","201216.93075","205118.853516","205886.16463","206653.397922","207437.450009","208204.41979","208971.695749","209738.918225","195812.140601","208974.350399","Mapping"
"Mixed","Male","cave","15","M_reek.wav","None","738.688966328","436","204352.043585","196596.306265","197363.634807","198130.457958","198897.672621","199665.329576","200449.78249","201216.93075","205118.853516","205886.16463","206653.397922","207437.450009","208204.41979","208971.695749","209738.918225","210506.078203","209741.627561","Mapping"
"Mixed","Male","cave","15","M_cave.wav","None","741.802133456","436","204352.043585","211290.326797","197363.634807","198130.457958","198897.672621","199665.329576","200449.78249","201216.93075","205118.853516","205886.16463","206653.397922","207437.450009","208204.41979","208971.695749","209738.918225","210506.078203","210509.234036","Mapping"
"Mixed","Male","cave","15","F_jolt.wav","space","438.264282377","436","204352.043585","211290.326797","212057.225066","198130.457958","198897.672621","199665.329576","200449.78249","201216.93075","205118.853516","205886.16463","206653.397922","207437.450009","208204.41979","208971.695749","209738.918225","210506.078203","211303.899617","Mapping"
"Mixed","Male","cave","15","M_cave.wav","None","731.736396683","436","204352.043585","211290.326797","212057.225066","212824.489908","198897.672621","199665.329576","200449.78249","201216.93075","205118.853516","205886.16463","206653.397922","207437.450009","208204.41979","208971.695749","209738.918225","210506.078203","212059.790777","Mapping"
"Mixed","Male","cave","15","M_cad.wav","space","538.768711001","436","204352.043585","211290.326797","212057.225066","212824.489908","213591.714486","199665.329576","200449.78249","201216.93075","205118.853516","205886.16463","206653.397922","207437.450009","208204.41979","208971.695749","209738.918225","210506.078203","212827.423995","Mapping"
"Mixed","Male","cave","15","F_cad.wav","None","738.2025058","436","204352.043585","211290.326797","212057.225066","212824.489908","213591.714486","214359.272587","200449.78249","201216.93075","205118.853516","205886.16463","206653.397922","207437.450009","208204.41979","208971.695749","209738.918225","210506.078203","213594.641663","Mapping"
"Mixed","Male","cave","15","M_knife.wav","None","740.615277926","436","204352.043585","211290.326797","212057.225066","212824.489908","213591.714486","214359.272587","215143.69335","201216.93075","205118.853516","205886.16463","206653.397922","207437.450009","208204.41979","208971.695749","209738.918225","210506.078203","214362.502036","Mapping"
"Mixed","Male","cave","15","F_gnash.wav","None","726.382326127","436","204352.043585","211290.326797","212057.225066","212824.489908","213591.714486","214359.272587","215143.69335","215910.062191","205118.853516","205886.16463","206653.397922","207437.450009","208204.41979","208971.695749","209738.918225","210506.078203","215147.389128","Mapping"
"Mixed","Female","cave","19","M_cad.wav","None","731.691927162","436","219046.042182","211290.326797","212057.225066","212824.489908","213591.714486","214359.272587","215143.69335","215910.062191","205118.853516","205886.16463","206653.397922","207437.450009","208204.41979","208971.695749","209738.918225","210506.078203","215912.913649","Mapping"
"Mixed","Female","cave","19","F_jaw.wav","None","733.082200713","436","219046.042182","211290.326797","212057.225066","212824.489908","213591.714486","214359.272587","215143.69335","215910.062191","219812.865935","205886.16463","206653.397922","207437.450009","208204.41979","208971.695749","209738.918225","210506.078203","219049.112382","Mapping"
"Mixed","Female","cave","19","F_cave.wav","None","737.285772575","436","219046.042182","211290.326797","212057.225066","212824.489908","213591.714486","214359.272587","215143.69335","215910.062191","219812.865935","220580.100429","206653.397922","207437.450009","208204.41979","208971.695749","209738.918225","210506.078203","219815.673824","Mapping"
"Mixed","Female","cave","19","M_cad.wav","space","484.462709002","436","219046.042182","211290.326797","212057.225066","212824.489908","213591.714486","214359.272587","215143.69335","215910.062191","219812.865935","220580.100429","221364.25738","207437.450009","208204.41979","208971.695749","209738.918225","210506.078203","220582.746666","Mapping"
"Mixed","Female","cave","19","F_park.wav","None","725.964973641","436","219046.042182","211290.326797","212057.225066","212824.489908","213591.714486","214359.272587","215143.69335","215910.062191","219812.865935","220580.100429","221364.25738","222131.513508","208204.41979","208971.695749","209738.918225","210506.078203","221367.364237","Mapping"
"Mixed","Female","cave","19","M_greet.wav","None","730.028526599","436","219046.042182","211290.326797","212057.225066","212824.489908","213591.714486","214359.272587","215143.69335","215910.062191","219812.865935","220580.100429","221364.25738","222131.513508","222898.455345","208971.695749","209738.918225","210506.078203","222134.306976","Mapping"
"Mixed","Female","cave","19","F_cave.wav","None","734.02747856","436","219046.042182","211290.326797","212057.225066","212824.489908","213591.714486","214359.272587","215143.69335","215910.062191","219812.865935","220580.100429","221364.25738","222131.513508","222898.455345","223665.655586","209738.918225","210506.078203","222901.20224","Mapping"
"Mixed","Female","cave","19","M_depth.wav","space","614.509624349","436","219046.042182","211290.326797","212057.225066","212824.489908","213591.714486","214359.272587","215143.69335","215910.062191","219812.865935","220580.100429","221364.25738","222131.513508","222898.455345","223665.655586","224432.927639","210506.078203","223668.666293","Mapping"
"Mixed","Female","cave","19","F_reek.wav","None","740.071127198","436","219046.042182","211290.326797","212057.225066","212824.489908","213591.714486","214359.272587","215143.69335","215910.062191","219812.865935","220580.100429","221364.25738","222131.513508","222898.455345","223665.655586","224432.927639","225217.652478","224435.598515","Mapping"
"Mixed","Female","cave","19","M_knife.wav","None","724.808465555","436","219046.042182","225985.078372","212057.225066","212824.489908","213591.714486","214359.272587","215143.69335","215910.062191","219812.865935","220580.100429","221364.25738","222131.513508","222898.455345","223665.655586","224432.927639","225217.652478","225221.323617","Mapping"
"Mixed","Female","cave","19","F_cave.wav","None","728.836262613","436","219046.042182","225985.078372","226751.218255","212824.489908","213591.714486","214359.272587","215143.69335","215910.062191","219812.865935","220580.100429","221364.25738","222131.513508","222898.455345","223665.655586","224432.927639","225217.652478","225988.489605","Mapping"
"Mixed","Female","cave","19","M_dime.wav","space","627.026593378","436","219046.042182","225985.078372","226751.218255","227518.794083","213591.714486","214359.272587","215143.69335","215910.062191","219812.865935","220580.100429","221364.25738","222131.513508","222898.455345","223665.655586","224432.927639","225217.652478","226754.168267","Mapping"
"Mixed","Female","cave","19","F_greet.wav","None","735.882578825","436","219046.042182","225985.078372","226751.218255","227518.794083","228286.078155","214359.272587","215143.69335","215910.062191","219812.865935","220580.100429","221364.25738","222131.513508","222898.455345","223665.655586","224432.927639","225217.652478","227522.037654","Mapping"
"Mixed","Female","cave","19","F_cave.wav","None","739.801305361","436","219046.042182","225985.078372","226751.218255","227518.794083","228286.078155","229069.946655","215143.69335","215910.062191","219812.865935","220580.100429","221364.25738","222131.513508","222898.455345","223665.655586","224432.927639","225217.652478","228289.236392","Mapping"
"Mixed","Female","cave","19","M_romp.wav","space","402.449790003","436","219046.042182","225985.078372","226751.218255","227518.794083","228286.078155","229069.946655","229837.724398","215910.062191","219812.865935","220580.100429","221364.25738","222131.513508","222898.455345","223665.655586","224432.927639","225217.652478","229072.748535","Mapping"
"Mixed","Female","cave","19","M_gnash.wav","None","728.605201373","436","219046.042182","225985.078372","226751.218255","227518.794083","228286.078155","229069.946655","229837.724398","230604.447794","219812.865935","220580.100429","221364.25738","222131.513508","222898.455345","223665.655586","224432.927639","225217.652478","229841.088758","Mapping"
"Mixed","Male","cave","17","F_jolt.wav","None","733.167233651","436","233740.108986","225985.078372","226751.218255","227518.794083","228286.078155","229069.946655","229837.724398","230604.447794","219812.865935","220580.100429","221364.25738","222131.513508","222898.455345","223665.655586","224432.927639","225217.652478","230607.412529","Mapping"
"Mixed","Male","cave","17","M_cave.wav","None","733.051552797","436","233740.108986","225985.078372","226751.218255","227518.794083","228286.078155","229069.946655","229837.724398","230604.447794","234507.252138","220580.100429","221364.25738","222131.513508","222898.455345","223665.655586","224432.927639","225217.652478","233743.484464","Mapping"
"Mixed","Male","cave","17","F_jaw.wav","space","408.479917503","436","233740.108986","225985.078372","226751.218255","227518.794083","228286.078155","229069.946655","229837.724398","230604.447794","234507.252138","235274.12066","221364.25738","222131.513508","222898.455345","223665.655586","224432.927639","225217.652478","234510.774244","Mapping"
"Mixed","Male","cave","17","M_greet.wav","None","739.562431903","436","233740.108986","225985.078372","226751.218255","227518.794083","228286.078155","229069.946655","229837.724398","230604.447794","234507.252138","235274.12066","236058.298344","222131.513508","222898.455345","223665.655586","224432.927639","225217.652478","235277.143386","Mapping"
"Mixed","Male","cave","17","M_cave.wav","None","726.817706804","436","233740.108986","225985.078372","226751.218255","227518.794083","228286.078155","229069.946655","229837.724398","230604.447794","234507.252138","235274.12066","236058.298344","236825.663242","222898.455345","223665.655586","224432.927639","225217.652478","236061.058158","Mapping"
"Mixed","Male","cave","17","F_park.wav","space","477.654064365","436","233740.108986","225985.078372","226751.218255","227518.794083","228286.078155","229069.946655","229837.724398","230604.447794","234507.252138","235274.12066","236058.298344","236825.663242","237592.508027","223665.655586","224432.927639","225217.652478","236828.575395","Mapping"
"Mixed","Male","cave","17","F_gnash.wav","None","733.257074109","436","233740.108986","225985.078372","226751.218255","227518.794083","228286.078155","229069.946655","229837.724398","230604.447794","234507.252138","235274.12066","236058.298344","236825.663242","237592.508027","238359.637658","224432.927639","225217.652478","237595.310508","Mapping"
"Mixed","Male","cave","17","M_cave.wav","None","737.651444269","436","233740.108986","225985.078372","226751.218255","227518.794083","228286.078155","229069.946655","229837.724398","230604.447794","234507.252138","235274.12066","236058.298344","236825.663242","237592.508027","238359.637658","239126.827382","225217.652478","238362.170918","Mapping"
"Mixed","Male","cave","17","M_lash.wav","space","306.78833288","436","233740.108986","225985.078372","226751.218255","227518.794083","228286.078155","229069.946655","229837.724398","230604.447794","234507.252138","235274.12066","236058.298344","236825.663242","237592.508027","238359.637658","239126.827382","239911.061554","239129.461901","Mapping"
"Mixed","Male","cave","17","F_cad.wav","None","726.932185778","436","233740.108986","240678.434264","226751.218255","227518.794083","228286.078155","229069.946655","229837.724398","230604.447794","234507.252138","235274.12066","236058.298344","236825.663242","237592.508027","238359.637658","239126.827382","239911.061554","239913.952073","Mapping"
"Mixed","Male","cave","17","M_gnash.wav","None","730.324489305","436","233740.108986","240678.434264","241445.238786","227518.794083","228286.078155","229069.946655","229837.724398","230604.447794","234507.252138","235274.12066","236058.298344","236825.663242","237592.508027","238359.637658","239126.827382","239911.061554","240681.435356","Mapping"
"Mixed","Male","cave","17","F_romp.wav","None","734.720361816","436","233740.108986","240678.434264","241445.238786","242212.488304","228286.078155","229069.946655","229837.724398","230604.447794","234507.252138","235274.12066","236058.298344","236825.663242","237592.508027","238359.637658","239126.827382","239911.061554","241448.031953","Mapping"
"Mixed","Male","cave","17","F_greet.wav","None","738.487351122","436","233740.108986","240678.434264","241445.238786","242212.488304","242980.055719","229069.946655","229837.724398","230604.447794","234507.252138","235274.12066","236058.298344","236825.663242","237592.508027","238359.637658","239126.827382","239911.061554","242215.259236","Mapping"
"Mixed","Male","cave","17","M_depth.wav","None","741.266395882","436","233740.108986","240678.434264","241445.238786","242212.488304","242980.055719","243764.761929","229837.724398","230604.447794","234507.252138","235274.12066","236058.298344","236825.663242","237592.508027","238359.637658","239126.827382","239911.061554","242983.215159","Mapping"
"Mixed","Male","cave","17","M_cave.wav","None","727.023528583","436","233740.108986","240678.434264","241445.238786","242212.488304","242980.055719","243764.761929","244530.763596","230604.447794","234507.252138","235274.12066","236058.298344","236825.663242","237592.508027","238359.637658","239126.827382","239911.061554","243768.235059","Mapping"
"Mixed","Male","cave","17","F_jolt.wav","space","391.591113548","436","233740.108986","240678.434264","241445.238786","242212.488304","242980.055719","243764.761929","244530.763596","245298.33041","234507.252138","235274.12066","236058.298344","236825.663242","237592.508027","238359.637658","239126.827382","239911.061554","244533.641495","Mapping"
"Mixed","Male","tile","28","M_cad.wav","None","734.033487955","436","248434.071227","240678.434264","241445.238786","242212.488304","242980.055719","243764.761929","244530.763596","245298.33041","234507.252138","235274.12066","236058.298344","236825.663242","237592.508027","238359.637658","239126.827382","239911.061554","245301.524403","Mapping"
"Mixed","Male","tile","28","M_tile.wav","None","733.068078633","436","248434.071227","240678.434264","241445.238786","242212.488304","242980.055719","243764.761929","244530.763596","245298.33041","249200.932838","235274.12066","236058.298344","236825.663242","237592.508027","238359.637658","239126.827382","239911.061554","248437.767606","Mapping"
"Mixed","Male","tile","28","M_cad.wav","space","509.996027791","436","248434.071227","240678.434264","241445.238786","242212.488304","242980.055719","243764.761929","244530.763596","245298.33041","249200.932838","249968.10183","236058.298344","236825.663242","237592.508027","238359.637658","239126.827382","239911.061554","249204.204954","Mapping"
"Mixed","Male","tile","28","M_tile.wav","None","741.036536521","436","248434.071227","240678.434264","241445.238786","242212.488304","242980.055719","243764.761929","244530.763596","245298.33041","249200.932838","249968.10183","250752.308058","236825.663242","237592.508027","238359.637658","239126.827382","239911.061554","249970.676856","Mapping"
"Mixed","Male","tile","28","F_lash.wav","space","296.287515903","436","248434.071227","240678.434264","241445.238786","242212.488304","242980.055719","243764.761929","244530.763596","245298.33041","249200.932838","249968.10183","250752.308058","251519.481257","237592.508027","238359.637658","239126.827382","239911.061554","250754.929357","Mapping"
"Mixed","Male","tile","28","F_dime.wav","None","729.73466718","436","248434.071227","240678.434264","241445.238786","242212.488304","242980.055719","243764.761929","244530.763596","245298.33041","249200.932838","249968.10183","250752.308058","251519.481257","252286.768334","238359.637658","239126.827382","239911.061554","251522.723025","Mapping"
"Mixed","Male","tile","28","F_romp.wav","None","733.334595305","436","248434.071227","240678.434264","241445.238786","242212.488304","242980.055719","243764.761929","244530.763596","245298.33041","249200.932838","249968.10183","250752.308058","251519.481257","252286.768334","253054.010039","239126.827382","239911.061554","252290.082815","Mapping"
"Mixed","Male","tile","28","F_jaw.wav","None","736.71818521","436","248434.071227","240678.434264","241445.238786","242212.488304","242980.055719","243764.761929","244530.763596","245298.33041","249200.932838","249968.10183","250752.308058","251519.481257","252286.768334","253054.010039","253820.848515","239911.061554","253057.631","Mapping"
"Mixed","Male","tile","28","F_romp.wav","None","741.269100112","436","248434.071227","240678.434264","241445.238786","242212.488304","242980.055719","243764.761929","244530.763596","245298.33041","249200.932838","249968.10183","250752.308058","251519.481257","252286.768334","253054.010039","253820.848515","254605.162311","253823.90279","Mapping"
"Mixed","Male","tile","28","M_knife.wav","None","728.271379474","436","248434.071227","255371.918157","241445.238786","242212.488304","242980.055719","243764.761929","244530.763596","245298.33041","249200.932838","249968.10183","250752.308058","251519.481257","252286.768334","253054.010039","253820.848515","254605.162311","254608.045018","Mapping"
"Mixed","Male","tile","28","F_cad.wav","None","732.87427564","436","248434.071227","255371.918157","256139.156858","242212.488304","242980.055719","243764.761929","244530.763596","245298.33041","249200.932838","249968.10183","250752.308058","251519.481257","252286.768334","253054.010039","253820.848515","254605.162311","255374.552075","Mapping"
"Mixed","Male","tile","28","M_romp.wav","None","736.307743526","436","248434.071227","255371.918157","256139.156858","256906.527766","242980.055719","243764.761929","244530.763596","245298.33041","249200.932838","249968.10183","250752.308058","251519.481257","252286.768334","253054.010039","253820.848515","254605.162311","256141.764034","Mapping"
"Mixed","Male","tile","28","M_tile.wav","None","739.680816987","436","248434.071227","255371.918157","256139.156858","256906.527766","257690.630932","243764.761929","244530.763596","245298.33041","249200.932838","249968.10183","250752.308058","251519.481257","252286.768334","253054.010039","253820.848515","254605.162311","256909.336857","Mapping"
"Mixed","Male","tile","28","F_cling.wav","None","726.889519072","436","248434.071227","255371.918157","256139.156858","256906.527766","257690.630932","258457.546628","244530.763596","245298.33041","249200.932838","249968.10183","250752.308058","251519.481257","252286.768334","253054.010039","253820.848515","254605.162311","257693.635029","Mapping"
"Mixed","Male","tile","28","M_tile.wav","space","39.7365240824","436","248434.071227","255371.918157","256139.156858","256906.527766","257690.630932","258457.546628","259225.166325","245298.33041","249200.932838","249968.10183","250752.308058","251519.481257","252286.768334","253054.010039","253820.848515","254605.162311","258460.468096","Mapping"
"Mixed","Male","tile","28","F_park.wav","space","482.819439912","436","248434.071227","255371.918157","256139.156858","256906.527766","257690.630932","258457.546628","259225.166325","259992.370472","249200.932838","249968.10183","250752.308058","251519.481257","252286.768334","253054.010039","253820.848515","254605.162311","259228.397276","Mapping"
"Mixed","Male","tile","25","M_bluff.wav","None","735.565282765","436","263127.964059","255371.918157","256139.156858","256906.527766","257690.630932","258457.546628","259225.166325","259992.370472","249200.932838","249968.10183","250752.308058","251519.481257","252286.768334","253054.010039","253820.848515","254605.162311","259995.332202","Mapping"
"Mixed","Male","tile","25","F_park.wav","None","731.975871076","436","263127.964059","255371.918157","256139.156858","256906.527766","257690.630932","258457.546628","259225.166325","259992.370472","263894.894778","249968.10183","250752.308058","251519.481257","252286.768334","253054.010039","253820.848515","254605.162311","263130.951329","Mapping"
"Mixed","Male","tile","25","M_tile.wav","None","736.370241233","436","263127.964059","255371.918157","256139.156858","256906.527766","257690.630932","258457.546628","259225.166325","259992.370472","263894.894778","264662.020202","250752.308058","251519.481257","252286.768334","253054.010039","253820.848515","254605.162311","263897.557842","Mapping"
"Mixed","Male","tile","25","F_cad.wav","space","410.661327918","436","263127.964059","255371.918157","256139.156858","256906.527766","257690.630932","258457.546628","259225.166325","259992.370472","263894.894778","264662.020202","265429.294058","251519.481257","252286.768334","253054.010039","253820.848515","254605.162311","264664.606646","Mapping"
"Mixed","Male","tile","25","F_cling.wav","None","742.22579581","436","263127.964059","255371.918157","256139.156858","256906.527766","257690.630932","258457.546628","259225.166325","259992.370472","263894.894778","264662.020202","265429.294058","266213.516512","252286.768334","253054.010039","253820.848515","254605.162311","265431.814098","Mapping"
"Mixed","Male","tile","25","M_tile.wav","None","727.65571695","436","263127.964059","255371.918157","256139.156858","256906.527766","257690.630932","258457.546628","259225.166325","259992.370472","263894.894778","264662.020202","265429.294058","266213.516512","266980.372715","253054.010039","253820.848515","254605.162311","266217.025398","Mapping"
"Mixed","Male","tile","25","M_bluff.wav","space","370.479808131","436","263127.964059","255371.918157","256139.156858","256906.527766","257690.630932","258457.546628","259225.166325","259992.370472","263894.894778","264662.020202","265429.294058","266213.516512","266980.372715","267747.705162","253820.848515","254605.162311","266983.713037","Mapping"
"Mixed","Male","tile","25","F_bluff.wav","None","734.215572626","436","263127.964059","255371.918157","256139.156858","256906.527766","257690.630932","258457.546628","259225.166325","259992.370472","263894.894778","264662.020202","265429.294058","266213.516512","266980.372715","267747.705162","268514.851018","254605.162311","267750.604695","Mapping"
"Mixed","Male","tile","25","M_tile.wav","None","738.355745372","436","263127.964059","255371.918157","256139.156858","256906.527766","257690.630932","258457.546628","259225.166325","259992.370472","263894.894778","264662.020202","265429.294058","266213.516512","266980.372715","267747.705162","268514.851018","269282.164236","268517.666119","Mapping"
"Mixed","Male","tile","25","F_jaw.wav","space","474.913479735","436","263127.964059","270066.95037","256139.156858","256906.527766","257690.630932","258457.546628","259225.166325","259992.370472","263894.894778","264662.020202","265429.294058","266213.516512","266980.372715","267747.705162","268514.851018","269282.164236","269285.303844","Mapping"
"Mixed","Male","tile","25","M_tile.wav","None","725.744128369","436","263127.964059","270066.95037","270833.68278","256906.527766","257690.630932","258457.546628","259225.166325","259992.370472","263894.894778","264662.020202","265429.294058","266213.516512","266980.372715","267747.705162","268514.851018","269282.164236","270070.983576","Mapping"
"Mixed","Male","tile","25","F_park.wav","space","565.307401594","436","263127.964059","270066.95037","270833.68278","271600.42841","257690.630932","258457.546628","259225.166325","259992.370472","263894.894778","264662.020202","265429.294058","266213.516512","266980.372715","267747.705162","268514.851018","269282.164236","270836.91944","Mapping"
"Mixed","Male","tile","25","F_greet.wav","None","733.544323197","436","263127.964059","270066.95037","270833.68278","271600.42841","272367.662904","258457.546628","259225.166325","259992.370472","263894.894778","264662.020202","265429.294058","266213.516512","266980.372715","267747.705162","268514.851018","269282.164236","271603.793671","Mapping"
"Mixed","Male","tile","25","M_greet.wav","None","737.883106449","436","263127.964059","270066.95037","270833.68278","271600.42841","272367.662904","273134.865248","259225.166325","259992.370472","263894.894778","264662.020202","265429.294058","266213.516512","266980.372715","267747.705162","268514.851018","269282.164236","272370.797405","Mapping"
"Mixed","Male","tile","25","F_jaw.wav","None","742.297007142","436","263127.964059","270066.95037","270833.68278","271600.42841","272367.662904","273134.865248","273919.415815","259992.370472","263894.894778","264662.020202","265429.294058","266213.516512","266980.372715","267747.705162","268514.851018","269282.164236","273137.551448","Mapping"
"Mixed","Male","tile","25","M_gnash.wav","None","726.903340681","436","263127.964059","270066.95037","270833.68278","271600.42841","272367.662904","273134.865248","273919.415815","274686.402422","263894.894778","264662.020202","265429.294058","266213.516512","266980.372715","267747.705162","268514.851018","269282.164236","273923.618485","Mapping"
"Mixed","Female","ball","11","F_dime.wav","None","732.59423783","436","277821.80521","270066.95037","270833.68278","271600.42841","272367.662904","273134.865248","273919.415815","274686.402422","263894.894778","264662.020202","265429.294058","266213.516512","266980.372715","267747.705162","268514.851018","269282.164236","274689.41403","Mapping"
"Mixed","Female","ball","11","M_dime.wav","None","732.877280341","436","277821.80521","270066.95037","270833.68278","271600.42841","272367.662904","273134.865248","273919.415815","274686.402422","278588.891273","264662.020202","265429.294058","266213.516512","266980.372715","267747.705162","268514.851018","269282.164236","277824.959842","Mapping"
"Mixed","Female","ball","11","F_ball.wav","None","736.892157201","436","277821.80521","270066.95037","270833.68278","271600.42841","272367.662904","273134.865248","273919.415815","274686.402422","278588.891273","279356.092415","265429.294058","266213.516512","266980.372715","267747.705162","268514.851018","269282.164236","278591.903482","Mapping"
"Mixed","Female","ball","11","M_cling.wav","space","464.402747257","436","277821.80521","270066.95037","270833.68278","271600.42841","272367.662904","273134.865248","273919.415815","274686.402422","278588.891273","279356.092415","280140.925423","266213.516512","266980.372715","267747.705162","268514.851018","269282.164236","279358.859741","Mapping"
"Mixed","Female","ball","11","F_ball.wav","None","725.208090327","436","277821.80521","270066.95037","270833.68278","271600.42841","272367.662904","273134.865248","273919.415815","274686.402422","278588.891273","279356.092415","280140.925423","280907.515109","266980.372715","267747.705162","268514.851018","269282.164236","280144.587548","Mapping"
"Mixed","Female","ball","11","M_romp.wav","space","398.674087068","436","277821.80521","270066.95037","270833.68278","271600.42841","272367.662904","273134.865248","273919.415815","274686.402422","278588.891273","279356.092415","280140.925423","280907.515109","281674.705735","267747.705162","268514.851018","269282.164236","280910.561572","Mapping"
"Mixed","Female","ball","11","F_ball.wav","None","731.777260571","436","277821.80521","270066.95037","270833.68278","271600.42841","272367.662904","273134.865248","273919.415815","274686.402422","278588.891273","279356.092415","280140.925423","280907.515109","281674.705735","282441.617525","268514.851018","269282.164236","281678.381982","Mapping"
"Mixed","Female","ball","11","M_jaw.wav","space","243.136219167","436","277821.80521","270066.95037","270833.68278","271600.42841","272367.662904","273134.865248","273919.415815","274686.402422","278588.891273","279356.092415","280140.925423","280907.515109","281674.705735","282441.617525","283208.86524","269282.164236","282444.091593","Mapping"
"Mixed","Female","ball","11","F_ball.wav","None","739.394469314","436","277821.80521","270066.95037","270833.68278","271600.42841","272367.662904","273134.865248","273919.415815","274686.402422","278588.891273","279356.092415","280140.925423","280907.515109","281674.705735","282441.617525","283208.86524","283976.057669","283211.349223","Mapping"
"Mixed","Female","ball","11","M_knife.wav","space","350.296653789","436","277821.80521","284760.371465","270833.68278","271600.42841","272367.662904","273134.865248","273919.415815","274686.402422","278588.891273","279356.092415","280140.925423","280907.515109","281674.705735","282441.617525","283208.86524","283976.057669","283978.945784","Mapping"
"Mixed","Female","ball","11","F_park.wav","None","727.524712136","436","277821.80521","284760.371465","285527.687987","271600.42841","272367.662904","273134.865248","273919.415815","274686.402422","278588.891273","279356.092415","280140.925423","280907.515109","281674.705735","282441.617525","283208.86524","283976.057669","284763.99543","Mapping"
"Mixed","Female","ball","11","M_cling.wav","space","234.583347607","436","277821.80521","284760.371465","285527.687987","286294.455552","272367.662904","273134.865248","273919.415815","274686.402422","278588.891273","279356.092415","280140.925423","280907.515109","281674.705735","282441.617525","283208.86524","283976.057669","285530.701399","Mapping"
"Mixed","Female","ball","11","M_jaw.wav","None","734.500718423","436","277821.80521","284760.371465","285527.687987","286294.455552","287061.648882","273134.865248","273919.415815","274686.402422","278588.891273","279356.092415","280140.925423","280907.515109","281674.705735","282441.617525","283208.86524","283976.057669","286297.369207","Mapping"
"Mixed","Female","ball","11","M_cad.wav","None","739.174825925","436","277821.80521","284760.371465","285527.687987","286294.455552","287061.648882","287845.872838","273919.415815","274686.402422","278588.891273","279356.092415","280140.925423","280907.515109","281674.705735","282441.617525","283208.86524","283976.057669","287064.371739","Mapping"
"Mixed","Female","ball","11","F_depth.wav","space","0.0309483875753","436","277821.80521","284760.371465","285527.687987","286294.455552","287061.648882","287845.872838","288612.895501","274686.402422","278588.891273","279356.092415","280140.925423","280907.515109","281674.705735","282441.617525","283208.86524","283976.057669","287848.731807","Mapping"
"Mixed","Female","ball","11","F_depth.wav","None","728.737708534","436","277821.80521","284760.371465","285527.687987","286294.455552","287061.648882","287845.872838","288612.895501","289380.049469","278588.891273","279356.092415","280140.925423","280907.515109","281674.705735","282441.617525","283208.86524","283976.057669","288616.055842","Mapping"
"Mixed","Female","done","45","M_cling.wav","None","732.586726088","436","292515.957348","284760.371465","285527.687987","286294.455552","287061.648882","287845.872838","288612.895501","289380.049469","278588.891273","279356.092415","280140.925423","280907.515109","281674.705735","282441.617525","283208.86524","283976.057669","289383.151519","Mapping"
"Mixed","Female","done","45","F_romp.wav","None","732.59964629","436","292515.957348","284760.371465","285527.687987","286294.455552","287061.648882","287845.872838","288612.895501","289380.049469","293283.016368","279356.092415","280140.925423","280907.515109","281674.705735","282441.617525","283208.86524","283976.057669","292519.105069","Mapping"
"Mixed","Female","done","45","M_reek.wav","None","736.45287042","436","292515.957348","284760.371465","285527.687987","286294.455552","287061.648882","287845.872838","288612.895501","289380.049469","293283.016368","294050.355726","280140.925423","280907.515109","281674.705735","282441.617525","283208.86524","283976.057669","293286.371413","Mapping"
"Mixed","Female","done","45","F_park.wav","None","740.224366775","436","292515.957348","284760.371465","285527.687987","286294.455552","287061.648882","287845.872838","288612.895501","289380.049469","293283.016368","294050.355726","294834.291231","280907.515109","281674.705735","282441.617525","283208.86524","283976.057669","294053.730903","Mapping"
"Mixed","Female","done","45","M_gnash.wav","None","727.339622768","436","292515.957348","284760.371465","285527.687987","286294.455552","287061.648882","287845.872838","288612.895501","289380.049469","293283.016368","294050.355726","294834.291231","295601.146532","281674.705735","282441.617525","283208.86524","283976.057669","294837.448267","Mapping"
"Mixed","Female","done","45","F_done.wav","None","732.571402132","436","292515.957348","284760.371465","285527.687987","286294.455552","287061.648882","287845.872838","288612.895501","289380.049469","293283.016368","294050.355726","294834.291231","295601.146532","296368.394248","282441.617525","283208.86524","283976.057669","295603.949615","Mapping"
"Mixed","Female","done","45","M_dime.wav","space","427.105737108","436","292515.957348","284760.371465","285527.687987","286294.455552","287061.648882","287845.872838","288612.895501","289380.049469","293283.016368","294050.355726","294834.291231","295601.146532","296368.394248","297135.996216","283208.86524","283976.057669","296371.143546","Mapping"
"Mixed","Female","done","45","M_gnash.wav","None","738.523407497","436","292515.957348","284760.371465","285527.687987","286294.455552","287061.648882","287845.872838","288612.895501","289380.049469","293283.016368","294050.355726","294834.291231","295601.146532","296368.394248","297135.996216","297920.568717","283976.057669","297138.974172","Mapping"
"Mixed","Female","done","45","F_done.wav","None","724.798850522","436","292515.957348","284760.371465","285527.687987","286294.455552","287061.648882","287845.872838","288612.895501","289380.049469","293283.016368","294050.355726","294834.291231","295601.146532","296368.394248","297135.996216","297920.568717","298687.08569","297923.92196","Mapping"
"Mixed","Female","done","45","M_reek.wav","space","428.151672324","436","292515.957348","299454.423546","285527.687987","286294.455552","287061.648882","287845.872838","288612.895501","289380.049469","293283.016368","294050.355726","294834.291231","295601.146532","296368.394248","297135.996216","297920.568717","298687.08569","298690.107214","Mapping"
"Mixed","Female","done","45","F_done.wav","None","731.803401439","436","292515.957348","299454.423546","300221.503599","286294.455552","287061.648882","287845.872838","288612.895501","289380.049469","293283.016368","294050.355726","294834.291231","295601.146532","296368.394248","297135.996216","297920.568717","298687.08569","299457.620243","Mapping"
"Mixed","Female","done","45","M_gnash.wav","space","423.748288074","436","292515.957348","299454.423546","300221.503599","300988.709549","287061.648882","287845.872838","288612.895501","289380.049469","293283.016368","294050.355726","294834.291231","295601.146532","296368.394248","297135.996216","297920.568717","298687.08569","300224.546155","Mapping"
"Mixed","Female","done","45","F_lash.wav","None","738.124083193","436","292515.957348","299454.423546","300221.503599","300988.709549","301755.836475","287845.872838","288612.895501","289380.049469","293283.016368","294050.355726","294834.291231","295601.146532","296368.394248","297135.996216","297920.568717","298687.08569","300991.878002","Mapping"
"Mixed","Female","done","45","M_jolt.wav","None","741.836987945","436","292515.957348","299454.423546","300221.503599","300988.709549","301755.836475","302540.079661","288612.895501","289380.049469","293283.016368","294050.355726","294834.291231","295601.146532","296368.394248","297135.996216","297920.568717","298687.08569","301758.961661","Mapping"
"Mixed","Female","done","45","F_done.wav","None","728.850985633","436","292515.957348","299454.423546","300221.503599","300988.709549","301755.836475","302540.079661","303306.778718","289380.049469","293283.016368","294050.355726","294834.291231","295601.146532","296368.394248","297135.996216","297920.568717","298687.08569","302542.781485","Mapping"
