Condition,Talker,Target,Trial,current_stimulus,response_response,response_time_response,subject_nr,time_Audio1,time_Audio10,time_Audio11,time_Audio12,time_Audio13,time_Audio14,time_Audio15,time_Audio16,time_Audio2,time_Audio3,time_Audio4,time_Audio5,time_Audio6,time_Audio7,time_Audio8,time_Audio9,time_response
Blocked,Female,cave,9,F_greet.wav,NA,NA,3420,189695.3126,NA,NA,NA,NA,NA,NA,NA,NA,NA,NA,NA,NA,NA,NA,NA,NA
Blocked,Female,cave,9,F_cave.wav,None,719.3180216,3420,189695.3126,NA,NA,NA,NA,NA,NA,NA,190462.3561,NA,NA,NA,NA,NA,NA,NA,189709.3356
Blocked,Female,cave,9,F_priest.wav,None,723.012906,3420,189695.3126,NA,NA,NA,NA,NA,NA,NA,190462.3561,191228.5981,NA,NA,NA,NA,NA,NA,190472.2193
Blocked,Female,cave,9,F_greet.wav,None,723.3359879,3420,189695.3126,NA,NA,NA,NA,NA,NA,NA,190462.3561,191228.5981,191995.057,NA,NA,NA,NA,NA,191238.7447
Blocked,Female,cave,9,F_romp.wav,None,719.9505824,3420,189695.3126,NA,NA,NA,NA,NA,NA,NA,190462.3561,191228.5981,191995.057,192762.0313,NA,NA,NA,NA,192005.6603
Blocked,Female,cave,9,F_bluff.wav,None,719.8024904,3420,189695.3126,NA,NA,NA,NA,NA,NA,NA,190462.3561,191228.5981,191995.057,192762.0313,193528.5796,NA,NA,NA,192772.1517
Blocked,Female,cave,9,F_cave.wav,None,720.2161588,3420,189695.3126,NA,NA,NA,NA,NA,NA,NA,190462.3561,191228.5981,191995.057,192762.0313,193528.5796,194277.8939,NA,NA,193538.5788
Blocked,Female,cave,9,F_romp.wav,space,508.5707959,3420,189695.3126,NA,NA,NA,NA,NA,NA,NA,190462.3561,191228.5981,191995.057,192762.0313,193528.5796,194277.8939,195044.7749,NA,194287.4426
Blocked,Female,cave,9,F_cave.wav,space,541.7755973,3420,189695.3126,NA,NA,NA,NA,NA,NA,NA,190462.3561,191228.5981,191995.057,192762.0313,193528.5796,194277.8939,195044.7749,195811.4746,195054.186
Blocked,Female,cave,9,F_gnash.wav,space,0.03431784,3420,189695.3126,196578.065,NA,NA,NA,NA,NA,NA,190462.3561,191228.5981,191995.057,192762.0313,193528.5796,194277.8939,195044.7749,195811.4746,195821.381
Blocked,Female,cave,9,F_cave.wav,space,152.4765096,3420,189695.3126,196578.065,197344.6754,NA,NA,NA,NA,NA,190462.3561,191228.5981,191995.057,192762.0313,193528.5796,194277.8939,195044.7749,195811.4746,196587.456
Blocked,Female,cave,9,F_park.wav,space,649.3792492,3420,189695.3126,196578.065,197344.6754,198111.4568,NA,NA,NA,NA,190462.3561,191228.5981,191995.057,192762.0313,193528.5796,194277.8939,195044.7749,195811.4746,197354.4835
Blocked,Female,cave,9,F_dime.wav,None,725.5279995,3420,189695.3126,196578.065,197344.6754,198111.4568,198877.9436,NA,NA,NA,190462.3561,191228.5981,191995.057,192762.0313,193528.5796,194277.8939,195044.7749,195811.4746,198120.9925
Blocked,Female,cave,9,F_reek.wav,None,726.0647179,3420,189695.3126,196578.065,197344.6754,198111.4568,198877.9436,199644.1787,NA,NA,190462.3561,191228.5981,191995.057,192762.0313,193528.5796,194277.8939,195044.7749,195811.4746,198887.3671
Blocked,Female,cave,9,F_depth.wav,None,727.3613745,3420,189695.3126,196578.065,197344.6754,198111.4568,198877.9436,199644.1787,200410.8228,NA,190462.3561,191228.5981,191995.057,192762.0313,193528.5796,194277.8939,195044.7749,195811.4746,199653.0346
Blocked,Female,cave,9,F_gnash.wav,None,727.9104595,3420,189695.3126,196578.065,197344.6754,198111.4568,198877.9436,199644.1787,200410.8228,201178.2714,190462.3561,191228.5981,191995.057,192762.0313,193528.5796,194277.8939,195044.7749,195811.4746,200419.6496
Blocked,Female,done,21,F_park.wav,None,723.522108,3420,205695.0414,196578.065,197344.6754,198111.4568,198877.9436,199644.1787,200410.8228,201178.2714,190462.3561,191228.5981,191995.057,192762.0313,193528.5796,194277.8939,195044.7749,195811.4746,201188.2344
Blocked,Female,done,21,F_priest.wav,None,719.5681399,3420,205695.0414,196578.065,197344.6754,198111.4568,198877.9436,199644.1787,200410.8228,201178.2714,206444.1328,191228.5981,191995.057,192762.0313,193528.5796,194277.8939,195044.7749,195811.4746,205705.0189
Blocked,Female,done,21,F_greet.wav,None,736.092011,3420,205695.0414,196578.065,197344.6754,198111.4568,198877.9436,199644.1787,200410.8228,201178.2714,206444.1328,207211.1219,191995.057,192762.0313,193528.5796,194277.8939,195044.7749,195811.4746,206453.1908
Blocked,Female,done,21,F_jaw.wav,None,733.2068416,3420,205695.0414,196578.065,197344.6754,198111.4568,198877.9436,199644.1787,200410.8228,201178.2714,206444.1328,207211.1219,207977.9018,192762.0313,193528.5796,194277.8939,195044.7749,195811.4746,207220.2035
Blocked,Female,done,21,F_dime.wav,None,733.6415341,3420,205695.0414,196578.065,197344.6754,198111.4568,198877.9436,199644.1787,200410.8228,201178.2714,206444.1328,207211.1219,207977.9018,208744.3413,193528.5796,194277.8939,195044.7749,195811.4746,207986.9895
Blocked,Female,done,21,F_gnash.wav,space,538.0034205,3420,205695.0414,196578.065,197344.6754,198111.4568,198877.9436,199644.1787,200410.8228,201178.2714,206444.1328,207211.1219,207977.9018,208744.3413,209511.0522,194277.8939,195044.7749,195811.4746,208753.5292
Blocked,Female,done,21,F_done.wav,None,727.8492437,3420,205695.0414,196578.065,197344.6754,198111.4568,198877.9436,199644.1787,200410.8228,201178.2714,206444.1328,207211.1219,207977.9018,208744.3413,209511.0522,210277.2527,195044.7749,195811.4746,209520.6575
Blocked,Female,done,21,F_lash.wav,space,549.5277126,3420,205695.0414,196578.065,197344.6754,198111.4568,198877.9436,199644.1787,200410.8228,201178.2714,206444.1328,207211.1219,207977.9018,208744.3413,209511.0522,210277.2527,211043.7571,195811.4746,210285.9644
Blocked,Female,done,21,F_done.wav,None,732.0400365,3420,205695.0414,196578.065,197344.6754,198111.4568,198877.9436,199644.1787,200410.8228,201178.2714,206444.1328,207211.1219,207977.9018,208744.3413,209511.0522,210277.2527,211043.7571,211810.4946,211052.5839
Blocked,Female,done,21,F_gnash.wav,space,448.1396037,3420,205695.0414,212577.2145,197344.6754,198111.4568,198877.9436,199644.1787,200410.8228,201178.2714,206444.1328,207211.1219,207977.9018,208744.3413,209511.0522,210277.2527,211043.7571,211810.4946,211819.3238
Blocked,Female,done,21,F_greet.wav,None,725.7342157,3420,205695.0414,212577.2145,213344.5845,198111.4568,198877.9436,199644.1787,200410.8228,201178.2714,206444.1328,207211.1219,207977.9018,208744.3413,209511.0522,210277.2527,211043.7571,211810.4946,212586.2305
Blocked,Female,done,21,F_romp.wav,None,721.0085606,3420,205695.0414,212577.2145,213344.5845,214094.6179,198877.9436,199644.1787,200410.8228,201178.2714,206444.1328,207211.1219,207977.9018,208744.3413,209511.0522,210277.2527,211043.7571,211810.4946,213354.5574
Blocked,Female,done,21,F_done.wav,None,735.304866,3420,205695.0414,212577.2145,213344.5845,214094.6179,214860.9192,199644.1787,200410.8228,201178.2714,206444.1328,207211.1219,207977.9018,208744.3413,209511.0522,210277.2527,211043.7571,211810.4946,214104.1314
Blocked,Female,done,21,F_lash.wav,space,380.8040386,3420,205695.0414,212577.2145,213344.5845,214094.6179,214860.9192,215627.5061,200410.8228,201178.2714,206444.1328,207211.1219,207977.9018,208744.3413,209511.0522,210277.2527,211043.7571,211810.4946,214870.5817
Blocked,Female,done,21,F_done.wav,None,729.7255937,3420,205695.0414,212577.2145,213344.5845,214094.6179,214860.9192,215627.5061,216394.1342,201178.2714,206444.1328,207211.1219,207977.9018,208744.3413,209511.0522,210277.2527,211043.7571,211810.4946,215636.8956
Blocked,Female,done,21,F_jaw.wav,space,511.4964671,3420,205695.0414,212577.2145,213344.5845,214094.6179,214860.9192,215627.5061,216394.1342,217161.2139,206444.1328,207211.1219,207977.9018,208744.3413,209511.0522,210277.2527,211043.7571,211810.4946,216403.8341
Blocked,Female,cave,11,F_cling.wav,None,722.57574,3420,220277.3516,212577.2145,213344.5845,214094.6179,214860.9192,215627.5061,216394.1342,217161.2139,206444.1328,207211.1219,207977.9018,208744.3413,209511.0522,210277.2527,211043.7571,211810.4946,217171.2267
Blocked,Female,cave,11,F_cave.wav,None,724.7921759,3420,220277.3516,212577.2145,213344.5845,214094.6179,214860.9192,215627.5061,216394.1342,217161.2139,221044.2987,207211.1219,207977.9018,208744.3413,209511.0522,210277.2527,211043.7571,211810.4946,220286.6233
Blocked,Female,cave,11,F_reek.wav,None,720.5930366,3420,220277.3516,212577.2145,213344.5845,214094.6179,214860.9192,215627.5061,216394.1342,217161.2139,221044.2987,221793.4566,207977.9018,208744.3413,209511.0522,210277.2527,211043.7571,211810.4946,221054.3777
Blocked,Female,cave,11,F_gnash.wav,space,88.62528438,3420,220277.3516,212577.2145,213344.5845,214094.6179,214860.9192,215627.5061,216394.1342,217161.2139,221044.2987,221793.4566,222560.6612,208744.3413,209511.0522,210277.2527,211043.7571,211810.4946,221802.5607
Blocked,Female,cave,11,F_cave.wav,None,732.0091194,3420,220277.3516,212577.2145,213344.5845,214094.6179,214860.9192,215627.5061,216394.1342,217161.2139,221044.2987,221793.4566,222560.6612,223327.2522,209511.0522,210277.2527,211043.7571,211810.4946,222570.1682
Blocked,Female,cave,11,F_romp.wav,space,642.3280216,3420,220277.3516,212577.2145,213344.5845,214094.6179,214860.9192,215627.5061,216394.1342,217161.2139,221044.2987,221793.4566,222560.6612,223327.2522,224093.9164,210277.2527,211043.7571,211810.4946,223336.7378
Blocked,Female,cave,11,F_greet.wav,None,726.0495685,3420,220277.3516,212577.2145,213344.5845,214094.6179,214860.9192,215627.5061,216394.1342,217161.2139,221044.2987,221793.4566,222560.6612,223327.2522,224093.9164,224860.2906,211043.7571,211810.4946,224103.2499
Blocked,Female,cave,11,F_bluff.wav,None,723.4822251,3420,220277.3516,212577.2145,213344.5845,214094.6179,214860.9192,215627.5061,216394.1342,217161.2139,221044.2987,221793.4566,222560.6612,223327.2522,224093.9164,224860.2906,225627.5661,211810.4946,224869.6013
Blocked,Female,cave,11,F_cave.wav,None,719.4135552,3420,220277.3516,212577.2145,213344.5845,214094.6179,214860.9192,215627.5061,216394.1342,217161.2139,221044.2987,221793.4566,222560.6612,223327.2522,224093.9164,224860.2906,225627.5661,226377.1221,225637.4215
Blocked,Female,cave,11,F_reek.wav,space,544.3583992,3420,220277.3516,227143.3931,213344.5845,214094.6179,214860.9192,215627.5061,216394.1342,217161.2139,221044.2987,221793.4566,222560.6612,223327.2522,224093.9164,224860.2906,225627.5661,226377.1221,226386.6449
Blocked,Female,cave,11,F_dime.wav,None,731.944812,3420,220277.3516,227143.3931,227910.4837,214094.6179,214860.9192,215627.5061,216394.1342,217161.2139,221044.2987,221793.4566,222560.6612,223327.2522,224093.9164,224860.2906,225627.5661,226377.1221,227152.0681
Blocked,Female,cave,11,F_cave.wav,None,728.2718788,3420,220277.3516,227143.3931,227910.4837,228677.0481,214860.9192,215627.5061,216394.1342,217161.2139,221044.2987,221793.4566,222560.6612,223327.2522,224093.9164,224860.2906,225627.5661,226377.1221,227919.6991
Blocked,Female,cave,11,F_dime.wav,space,428.4745702,3420,220277.3516,227143.3931,227910.4837,228677.0481,229443.5126,215627.5061,216394.1342,217161.2139,221044.2987,221793.4566,222560.6612,223327.2522,224093.9164,224860.2906,225627.5661,226377.1221,228686.4842
Blocked,Female,cave,11,F_greet.wav,None,723.584251,3420,220277.3516,227143.3931,227910.4837,228677.0481,229443.5126,230210.7825,216394.1342,217161.2139,221044.2987,221793.4566,222560.6612,223327.2522,224093.9164,224860.2906,225627.5661,226377.1221,229452.3687
Blocked,Female,cave,11,F_jolt.wav,None,719.280303,3420,220277.3516,227143.3931,227910.4837,228677.0481,229443.5126,230210.7825,230977.4053,217161.2139,221044.2987,221793.4566,222560.6612,223327.2522,224093.9164,224860.2906,225627.5661,226377.1221,230220.5516
Blocked,Female,cave,11,F_cad.wav,None,719.6658375,3420,220277.3516,227143.3931,227910.4837,228677.0481,229443.5126,230210.7825,230977.4053,231744.2699,221044.2987,221793.4566,222560.6612,223327.2522,224093.9164,224860.2906,225627.5661,226377.1221,230987.2019
Blocked,Female,done,23,F_reek.wav,None,719.5835984,3420,234859.5323,227143.3931,227910.4837,228677.0481,229443.5126,230210.7825,230977.4053,231744.2699,221044.2987,221793.4566,222560.6612,223327.2522,224093.9164,224860.2906,225627.5661,226377.1221,231754.1692
Blocked,Female,done,23,F_done.wav,None,726.4400492,3420,234859.5323,227143.3931,227910.4837,228677.0481,229443.5126,230210.7825,230977.4053,231744.2699,235627.2353,221793.4566,222560.6612,223327.2522,224093.9164,224860.2906,225627.5661,226377.1221,234868.4601
Blocked,Female,done,23,F_jaw.wav,space,653.5097538,3420,234859.5323,227143.3931,227910.4837,228677.0481,229443.5126,230210.7825,230977.4053,231744.2699,235627.2353,236377.0915,222560.6612,223327.2522,224093.9164,224860.2906,225627.5661,226377.1221,235637.2264
Blocked,Female,done,23,F_gnash.wav,None,735.4028723,3420,234859.5323,227143.3931,227910.4837,228677.0481,229443.5126,230210.7825,230977.4053,231744.2699,235627.2353,236377.0915,237143.3798,223327.2522,224093.9164,224860.2906,225627.5661,226377.1221,236386.8316
Blocked,Female,done,23,F_romp.wav,None,732.9415744,3420,234859.5323,227143.3931,227910.4837,228677.0481,229443.5126,230210.7825,230977.4053,231744.2699,235627.2353,236377.0915,237143.3798,237910.1891,224093.9164,224860.2906,225627.5661,226377.1221,237153.2773
Blocked,Female,done,23,F_gnash.wav,None,730.5826112,3420,234859.5323,227143.3931,227910.4837,228677.0481,229443.5126,230210.7825,230977.4053,231744.2699,235627.2353,236377.0915,237143.3798,237910.1891,238676.7763,224860.2906,225627.5661,226377.1221,237919.4477
Blocked,Female,done,23,F_park.wav,None,727.7939031,3420,234859.5323,227143.3931,227910.4837,228677.0481,229443.5126,230210.7825,230977.4053,231744.2699,235627.2353,236377.0915,237143.3798,237910.1891,238676.7763,239443.0856,225627.5661,226377.1221,238685.9432
Blocked,Female,done,23,F_jolt.wav,None,725.9509433,3420,234859.5323,227143.3931,227910.4837,228677.0481,229443.5126,230210.7825,230977.4053,231744.2699,235627.2353,236377.0915,237143.3798,237910.1891,238676.7763,239443.0856,240210.4779,226377.1221,239451.8784
Blocked,Female,done,23,F_lash.wav,None,721.57434,3420,234859.5323,227143.3931,227910.4837,228677.0481,229443.5126,230210.7825,230977.4053,231744.2699,235627.2353,236377.0915,237143.3798,237910.1891,238676.7763,239443.0856,240210.4779,240977.0859,240220.0696
Blocked,Female,done,23,F_done.wav,None,718.3574317,3420,234859.5323,241726.637,227910.4837,228677.0481,229443.5126,230210.7825,230977.4053,231744.2699,235627.2353,236377.0915,237143.3798,237910.1891,238676.7763,239443.0856,240210.4779,240977.0859,240987.2789
Blocked,Female,done,23,F_bluff.wav,space,346.5740313,3420,234859.5323,241726.637,242493.2913,228677.0481,229443.5126,230210.7825,230977.4053,231744.2699,235627.2353,236377.0915,237143.3798,237910.1891,238676.7763,239443.0856,240210.4779,240977.0859,241736.0042
Blocked,Female,done,23,F_done.wav,None,730.4274086,3420,234859.5323,241726.637,242493.2913,243259.9707,229443.5126,230210.7825,230977.4053,231744.2699,235627.2353,236377.0915,237143.3798,237910.1891,238676.7763,239443.0856,240210.4779,240977.0859,242502.764
Blocked,Female,done,23,F_priest.wav,None,727.5348185,3420,234859.5323,241726.637,242493.2913,243259.9707,244026.5768,230210.7825,230977.4053,231744.2699,235627.2353,236377.0915,237143.3798,237910.1891,238676.7763,239443.0856,240210.4779,240977.0859,243269.2177
Blocked,Female,done,23,F_cling.wav,None,724.4403414,3420,234859.5323,241726.637,242493.2913,243259.9707,244026.5768,244792.9953,230977.4053,231744.2699,235627.2353,236377.0915,237143.3798,237910.1891,238676.7763,239443.0856,240210.4779,240977.0859,244036.2139
Blocked,Female,done,23,F_done.wav,None,723.0110508,3420,234859.5323,241726.637,242493.2913,243259.9707,244026.5768,244792.9953,245560.3075,231744.2699,235627.2353,236377.0915,237143.3798,237910.1891,238676.7763,239443.0856,240210.4779,240977.0859,244801.8922
Blocked,Female,done,23,F_greet.wav,space,464.2207446,3420,234859.5323,241726.637,242493.2913,243259.9707,244026.5768,244792.9953,245560.3075,246309.8815,235627.2353,236377.0915,237143.3798,237910.1891,238676.7763,239443.0856,240210.4779,240977.0859,245570.2214
Blocked,Female,cave,7,F_romp.wav,None,733.0992511,3420,249443.4773,241726.637,242493.2913,243259.9707,244026.5768,244792.9953,245560.3075,246309.8815,235627.2353,236377.0915,237143.3798,237910.1891,238676.7763,239443.0856,240210.4779,240977.0859,246319.0886
Blocked,Female,cave,7,F_cave.wav,None,719.6309012,3420,249443.4773,241726.637,242493.2913,243259.9707,244026.5768,244792.9953,245560.3075,246309.8815,250192.9174,236377.0915,237143.3798,237910.1891,238676.7763,239443.0856,240210.4779,240977.0859,249453.4363
Blocked,Female,cave,7,F_reek.wav,None,734.4608335,3420,249443.4773,241726.637,242493.2913,243259.9707,244026.5768,244792.9953,245560.3075,246309.8815,250192.9174,250959.8305,237143.3798,237910.1891,238676.7763,239443.0856,240210.4779,240977.0859,250202.506
Blocked,Female,cave,7,F_jaw.wav,space,376.8989188,3420,249443.4773,241726.637,242493.2913,243259.9707,244026.5768,244792.9953,245560.3075,246309.8815,250192.9174,250959.8305,251726.3708,237910.1891,238676.7763,239443.0856,240210.4779,240977.0859,250969.4018
Blocked,Female,cave,7,F_cave.wav,None,728.6756542,3420,249443.4773,241726.637,242493.2913,243259.9707,244026.5768,244792.9953,245560.3075,246309.8815,250192.9174,250959.8305,251726.3708,252493.0496,238676.7763,239443.0856,240210.4779,240977.0859,251735.7903
Blocked,Female,cave,7,F_cling.wav,None,725.8971478,3420,249443.4773,241726.637,242493.2913,243259.9707,244026.5768,244792.9953,245560.3075,246309.8815,250192.9174,250959.8305,251726.3708,252493.0496,253259.9008,239443.0856,240210.4779,240977.0859,252502.499
Blocked,Female,cave,7,F_bluff.wav,space,0.03431784,3420,249443.4773,241726.637,242493.2913,243259.9707,244026.5768,244792.9953,245560.3075,246309.8815,250192.9174,250959.8305,251726.3708,252493.0496,253259.9008,254026.5595,240210.4779,240977.0859,253269.8747
Blocked,Female,cave,7,F_cad.wav,None,719.5001226,3420,249443.4773,241726.637,242493.2913,243259.9707,244026.5768,244792.9953,245560.3075,246309.8815,250192.9174,250959.8305,251726.3708,252493.0496,253259.9008,254026.5595,254776.2225,240977.0859,254036.41
Blocked,Female,cave,7,F_dime.wav,None,734.6095438,3420,249443.4773,241726.637,242493.2913,243259.9707,244026.5768,244792.9953,245560.3075,246309.8815,250192.9174,250959.8305,251726.3708,252493.0496,253259.9008,254026.5595,254776.2225,255542.9362,254785.2731
Blocked,Female,cave,7,F_cave.wav,None,731.5991609,3420,249443.4773,256309.1484,242493.2913,243259.9707,244026.5768,244792.9953,245560.3075,246309.8815,250192.9174,250959.8305,251726.3708,252493.0496,253259.9008,254026.5595,254776.2225,255542.9362,255552.2827
Blocked,Female,cave,7,F_cad.wav,space,371.937986,3420,249443.4773,256309.1484,257076.653,243259.9707,244026.5768,244792.9953,245560.3075,246309.8815,250192.9174,250959.8305,251726.3708,252493.0496,253259.9008,254026.5595,254776.2225,255542.9362,256318.1845
Blocked,Female,cave,7,F_park.wav,None,725.03271,3420,249443.4773,256309.1484,257076.653,257843.2338,244026.5768,244792.9953,245560.3075,246309.8815,250192.9174,250959.8305,251726.3708,252493.0496,253259.9008,254026.5595,254776.2225,255542.9362,257086.2264
Blocked,Female,cave,7,F_cave.wav,None,722.1333189,3420,249443.4773,256309.1484,257076.653,257843.2338,258609.4639,244792.9953,245560.3075,246309.8815,250192.9174,250959.8305,251726.3708,252493.0496,253259.9008,254026.5595,254776.2225,255542.9362,257853.1318
Blocked,Female,cave,7,F_cling.wav,space,439.7441065,3420,249443.4773,256309.1484,257076.653,257843.2338,258609.4639,259359.2259,245560.3075,246309.8815,250192.9174,250959.8305,251726.3708,252493.0496,253259.9008,254026.5595,254776.2225,255542.9362,258618.2944
Blocked,Female,cave,7,F_priest.wav,None,734.7220816,3420,249443.4773,256309.1484,257076.653,257843.2338,258609.4639,259359.2259,260126.1322,246309.8815,250192.9174,250959.8305,251726.3708,252493.0496,253259.9008,254026.5595,254776.2225,255542.9362,259368.5309
Blocked,Female,cave,7,F_greet.wav,None,731.6517192,3420,249443.4773,256309.1484,257076.653,257843.2338,258609.4639,259359.2259,260126.1322,260892.388,250192.9174,250959.8305,251726.3708,252493.0496,253259.9008,254026.5595,254776.2225,255542.9362,260135.6926
Blocked,Female,ball,4,F_lash.wav,None,730.4781121,3420,264026.4414,256309.1484,257076.653,257843.2338,258609.4639,259359.2259,260126.1322,260892.388,250192.9174,250959.8305,251726.3708,252493.0496,253259.9008,254026.5595,254776.2225,255542.9362,260901.0469
Blocked,Female,ball,4,F_ball.wav,None,719.8071275,3420,264026.4414,256309.1484,257076.653,257843.2338,258609.4639,259359.2259,260126.1322,260892.388,264793.1836,250959.8305,251726.3708,252493.0496,253259.9008,254026.5595,254776.2225,255542.9362,264036.1119
Blocked,Female,ball,4,F_priest.wav,None,720.0454976,3420,264026.4414,256309.1484,257076.653,257843.2338,258609.4639,259359.2259,260126.1322,260892.388,264793.1836,265542.6589,251726.3708,252493.0496,253259.9008,254026.5595,254776.2225,255542.9362,264803.0269
Blocked,Female,ball,4,F_knife.wav,space,441.539763,3420,264026.4414,256309.1484,257076.653,257843.2338,258609.4639,259359.2259,260126.1322,260892.388,264793.1836,265542.6589,266308.9657,252493.0496,253259.9008,254026.5595,254776.2225,255542.9362,265552.2827
Blocked,Female,ball,4,F_ball.wav,None,735.1243105,3420,264026.4414,256309.1484,257076.653,257843.2338,258609.4639,259359.2259,260126.1322,260892.388,264793.1836,265542.6589,266308.9657,267075.5406,253259.9008,254026.5595,254776.2225,255542.9362,266318.422
Blocked,Female,ball,4,F_jaw.wav,space,413.4922177,3420,264026.4414,256309.1484,257076.653,257843.2338,258609.4639,259359.2259,260126.1322,260892.388,264793.1836,265542.6589,266308.9657,267075.5406,267842.4534,254026.5595,254776.2225,255542.9362,267084.3133
Blocked,Female,ball,4,F_ball.wav,None,729.9039843,3420,264026.4414,256309.1484,257076.653,257843.2338,258609.4639,259359.2259,260126.1322,260892.388,264793.1836,265542.6589,266308.9657,267075.5406,267842.4534,268609.2939,254776.2225,255542.9362,267852.0024
Blocked,Female,ball,4,F_priest.wav,space,423.3463765,3420,264026.4414,256309.1484,257076.653,257843.2338,258609.4639,259359.2259,260126.1322,260892.388,264793.1836,265542.6589,266308.9657,267075.5406,267842.4534,268609.2939,269375.5138,255542.9362,268618.4091
Blocked,Female,ball,4,F_ball.wav,None,725.3712509,3420,264026.4414,256309.1484,257076.653,257843.2338,258609.4639,259359.2259,260126.1322,260892.388,264793.1836,265542.6589,266308.9657,267075.5406,267842.4534,268609.2939,269375.5138,270142.8011,269384.6173
Blocked,Female,ball,4,F_priest.wav,space,465.3442665,3420,264026.4414,270909.5982,257076.653,257843.2338,258609.4639,259359.2259,260126.1322,260892.388,264793.1836,265542.6589,266308.9657,267075.5406,267842.4534,268609.2939,269375.5138,270142.8011,270152.3702
Blocked,Female,ball,4,F_cad.wav,None,718.2906517,3420,264026.4414,270909.5982,271658.7703,257843.2338,258609.4639,259359.2259,260126.1322,260892.388,264793.1836,265542.6589,266308.9657,267075.5406,267842.4534,268609.2939,269375.5138,270142.8011,270919.8178
Blocked,Female,ball,4,F_jolt.wav,None,735.1768697,3420,264026.4414,270909.5982,271658.7703,272425.7112,258609.4639,259359.2259,260126.1322,260892.388,264793.1836,265542.6589,266308.9657,267075.5406,267842.4534,268609.2939,269375.5138,270142.8011,271668.2639
Blocked,Female,ball,4,F_park.wav,None,732.1689599,3420,264026.4414,270909.5982,271658.7703,272425.7112,273192.3207,259359.2259,260126.1322,260892.388,264793.1836,265542.6589,266308.9657,267075.5406,267842.4534,268609.2939,269375.5138,270142.8011,272435.3456
Blocked,Female,ball,4,F_lash.wav,None,729.7336319,3420,264026.4414,270909.5982,271658.7703,272425.7112,273192.3207,273959.1065,260126.1322,260892.388,264793.1836,265542.6589,266308.9657,267075.5406,267842.4534,268609.2939,269375.5138,270142.8011,273201.823
Blocked,Female,ball,4,F_lash.wav,None,727.4732939,3420,264026.4414,270909.5982,271658.7703,272425.7112,273192.3207,273959.1065,274725.7324,260892.388,264793.1836,265542.6589,266308.9657,267075.5406,267842.4534,268609.2939,269375.5138,270142.8011,273968.2566
Blocked,Female,ball,4,F_priest.wav,None,724.849991,3420,264026.4414,270909.5982,271658.7703,272425.7112,273192.3207,273959.1065,274725.7324,275492.1579,264793.1836,265542.6589,266308.9657,267075.5406,267842.4534,268609.2939,269375.5138,270142.8011,274735.1299
Blocked,Female,tile,13,F_dime.wav,None,723.3495917,3420,278609.3548,270909.5982,271658.7703,272425.7112,273192.3207,273959.1065,274725.7324,275492.1579,264793.1836,265542.6589,266308.9657,267075.5406,267842.4534,268609.2939,269375.5138,270142.8011,275501.1619
Blocked,Female,tile,13,F_tile.wav,None,720.5772689,3420,278609.3548,270909.5982,271658.7703,272425.7112,273192.3207,273959.1065,274725.7324,275492.1579,279376.0366,265542.6589,266308.9657,267075.5406,267842.4534,268609.2939,269375.5138,270142.8011,278619.1023
Blocked,Female,tile,13,F_cling.wav,None,721.2104476,3420,278609.3548,270909.5982,271658.7703,272425.7112,273192.3207,273959.1065,274725.7324,275492.1579,279376.0366,280142.678,266308.9657,267075.5406,267842.4534,268609.2939,269375.5138,270142.8011,279386.0887
Blocked,Female,tile,13,F_cling.wav,None,719.0301851,3420,278609.3548,270909.5982,271658.7703,272425.7112,273192.3207,273959.1065,274725.7324,275492.1579,279376.0366,280142.678,280892.0164,267075.5406,267842.4534,268609.2939,269375.5138,270142.8011,280152.5121
Blocked,Female,tile,13,F_romp.wav,space,507.8581604,3420,278609.3548,270909.5982,271658.7703,272425.7112,273192.3207,273959.1065,274725.7324,275492.1579,279376.0366,280142.678,280892.0164,281658.8405,267842.4534,268609.2939,269375.5138,270142.8011,280901.5119
Blocked,Female,tile,13,F_jaw.wav,None,731.9837674,3420,278609.3548,270909.5982,271658.7703,272425.7112,273192.3207,273959.1065,274725.7324,275492.1579,279376.0366,280142.678,280892.0164,281658.8405,282425.45,268609.2939,269375.5138,270142.8011,281667.9458
Blocked,Female,tile,13,F_tile.wav,None,729.0658262,3420,278609.3548,270909.5982,271658.7703,272425.7112,273192.3207,273959.1065,274725.7324,275492.1579,279376.0366,280142.678,280892.0164,281658.8405,282425.45,283192.0542,269375.5138,270142.8011,282435.0018
Blocked,Female,tile,13,F_cad.wav,None,726.3670857,3420,278609.3548,270909.5982,271658.7703,272425.7112,273192.3207,273959.1065,274725.7324,275492.1579,279376.0366,280142.678,280892.0164,281658.8405,282425.45,283192.0542,283959.1213,270142.8011,283201.5986
Blocked,Female,tile,13,F_reek.wav,None,723.3199114,3420,278609.3548,270909.5982,271658.7703,272425.7112,273192.3207,273959.1065,274725.7324,275492.1579,279376.0366,280142.678,280892.0164,281658.8405,282425.45,283192.0542,283959.1213,284725.3057,283968.8434
Blocked,Female,tile,13,F_bluff.wav,None,722.3030529,3420,278609.3548,285492.3178,271658.7703,272425.7112,273192.3207,273959.1065,274725.7324,275492.1579,279376.0366,280142.678,280892.0164,281658.8405,282425.45,283192.0542,283959.1213,284725.3057,284734.3944
Blocked,Female,tile,13,F_tile.wav,None,718.903116,3420,278609.3548,285492.3178,286241.858,272425.7112,273192.3207,273959.1065,274725.7324,275492.1579,279376.0366,280142.678,280892.0164,281658.8405,282425.45,283192.0542,283959.1213,284725.3057,285502.1364
Blocked,Female,tile,13,F_priest.wav,None,734.010064,3420,278609.3548,285492.3178,286241.858,287008.2496,273192.3207,273959.1065,274725.7324,275492.1579,279376.0366,280142.678,280892.0164,281658.8405,282425.45,283192.0542,283959.1213,284725.3057,286251.3838
Blocked,Female,tile,13,F_bluff.wav,space,608.1199651,3420,278609.3548,285492.3178,286241.858,287008.2496,287775.3333,273959.1065,274725.7324,275492.1579,279376.0366,280142.678,280892.0164,281658.8405,282425.45,283192.0542,283959.1213,284725.3057,287017.0686
Blocked,Female,tile,13,F_reek.wav,None,728.5080841,3420,278609.3548,285492.3178,286241.858,287008.2496,287775.3333,288542.1948,274725.7324,275492.1579,279376.0366,280142.678,280892.0164,281658.8405,282425.45,283192.0542,283959.1213,284725.3057,287784.7553
Blocked,Female,tile,13,F_tile.wav,None,726.2594947,3420,278609.3548,285492.3178,286241.858,287008.2496,287775.3333,288542.1948,289309.1673,275492.1579,279376.0366,280142.678,280892.0164,281658.8405,282425.45,283192.0542,283959.1213,284725.3057,288551.3311
Blocked,Female,tile,13,F_jaw.wav,None,722.5986188,3420,278609.3548,285492.3178,286241.858,287008.2496,287775.3333,288542.1948,289309.1673,290075.5944,279376.0366,280142.678,280892.0164,281658.8405,282425.45,283192.0542,283959.1213,284725.3057,289319.1173
Blocked,Female,tile,18,F_lash.wav,None,720.7735917,3420,293192.2215,285492.3178,286241.858,287008.2496,287775.3333,288542.1948,289309.1673,290075.5944,279376.0366,280142.678,280892.0164,281658.8405,282425.45,283192.0542,283959.1213,284725.3057,290085.7559
Blocked,Female,tile,18,F_jaw.wav,None,720.9634213,3420,293192.2215,285492.3178,286241.858,287008.2496,287775.3333,288542.1948,289309.1673,290075.5944,293941.7735,280142.678,280892.0164,281658.8405,282425.45,283192.0542,283959.1213,284725.3057,293201.1874
Blocked,Female,tile,18,F_bluff.wav,None,735.531487,3420,293192.2215,285492.3178,286241.858,287008.2496,287775.3333,288542.1948,289309.1673,290075.5944,293941.7735,294708.1842,280892.0164,281658.8405,282425.45,283192.0542,283959.1213,284725.3057,293951.1654
Blocked,Female,tile,18,F_romp.wav,None,733.5654786,3420,293192.2215,285492.3178,286241.858,287008.2496,287775.3333,288542.1948,289309.1673,290075.5944,293941.7735,294708.1842,295475.0983,281658.8405,282425.45,283192.0542,283959.1213,284725.3057,294717.6164
Blocked,Female,tile,18,F_jaw.wav,None,731.103871,3420,293192.2215,285492.3178,286241.858,287008.2496,287775.3333,288542.1948,289309.1673,290075.5944,293941.7735,294708.1842,295475.0983,296241.6765,282425.45,283192.0542,283959.1213,284725.3057,295484.4769
Blocked,Female,tile,18,F_romp.wav,None,728.6397903,3420,293192.2215,285492.3178,286241.858,287008.2496,287775.3333,288542.1948,289309.1673,290075.5944,293941.7735,294708.1842,295475.0983,296241.6765,297008.4178,283192.0542,283959.1213,284725.3057,296251.2218
Blocked,Female,tile,18,F_romp.wav,None,726.8849444,3420,293192.2215,285492.3178,286241.858,287008.2496,287775.3333,288542.1948,289309.1673,290075.5944,293941.7735,294708.1842,295475.0983,296241.6765,297008.4178,297775.4765,283959.1213,284725.3057,297017.5203
Blocked,Female,tile,18,F_priest.wav,None,723.4571823,3420,293192.2215,285492.3178,286241.858,287008.2496,287775.3333,288542.1948,289309.1673,290075.5944,293941.7735,294708.1842,295475.0983,296241.6765,297008.4178,297775.4765,298540.9928,284725.3057,297785.1646
Blocked,Female,tile,18,F_tile.wav,None,726.4975552,3420,293192.2215,285492.3178,286241.858,287008.2496,287775.3333,288542.1948,289309.1673,290075.5944,293941.7735,294708.1842,295475.0983,296241.6765,297008.4178,297775.4765,298540.9928,299308.6952,298549.8091
Blocked,Female,tile,18,F_park.wav,space,642.3360598,3420,293192.2215,300074.883,286241.858,287008.2496,287775.3333,288542.1948,289309.1673,290075.5944,293941.7735,294708.1842,295475.0983,296241.6765,297008.4178,297775.4765,298540.9928,299308.6952,299318.5188
Blocked,Female,tile,18,F_tile.wav,None,720.3249861,3420,293192.2215,300074.883,300824.9652,287008.2496,287775.3333,288542.1948,289309.1673,290075.5944,293941.7735,294708.1842,295475.0983,296241.6765,297008.4178,297775.4765,298540.9928,299308.6952,300083.7559
Blocked,Female,tile,18,F_knife.wav,space,438.5259789,3420,293192.2215,300074.883,300824.9652,301591.5794,287775.3333,288542.1948,289309.1673,290075.5944,293941.7735,294708.1842,295475.0983,296241.6765,297008.4178,297775.4765,298540.9928,299308.6952,300834.2663
Blocked,Female,tile,18,F_tile.wav,None,730.8370578,3420,293192.2215,300074.883,300824.9652,301591.5794,302358.2415,288542.1948,289309.1673,290075.5944,293941.7735,294708.1842,295475.0983,296241.6765,297008.4178,297775.4765,298540.9928,299308.6952,301600.9754
Blocked,Female,tile,18,F_bluff.wav,space,377.0739087,3420,293192.2215,300074.883,300824.9652,301591.5794,302358.2415,303124.876,289309.1673,290075.5944,293941.7735,294708.1842,295475.0983,296241.6765,297008.4178,297775.4765,298540.9928,299308.6952,302367.6303
Blocked,Female,tile,18,F_tile.wav,None,725.594162,3420,293192.2215,300074.883,300824.9652,301591.5794,302358.2415,303124.876,303891.9119,290075.5944,293941.7735,294708.1842,295475.0983,296241.6765,297008.4178,297775.4765,298540.9928,299308.6952,303134.2201
Blocked,Female,tile,18,F_bluff.wav,space,298.7717935,3420,293192.2215,300074.883,300824.9652,301591.5794,302358.2415,303124.876,303891.9119,304658.5953,293941.7735,294708.1842,295475.0983,296241.6765,297008.4178,297775.4765,298540.9928,299308.6952,303901.8866
Blocked,Female,ball,2,F_depth.wav,None,719.2475311,3420,307775.0746,300074.883,300824.9652,301591.5794,302358.2415,303124.876,303891.9119,304658.5953,293941.7735,294708.1842,295475.0983,296241.6765,297008.4178,297775.4765,298540.9928,299308.6952,304668.5496
Blocked,Female,ball,2,F_gnash.wav,None,719.6723297,3420,307775.0746,300074.883,300824.9652,301591.5794,302358.2415,303124.876,303891.9119,304658.5953,308524.4612,294708.1842,295475.0983,296241.6765,297008.4178,297775.4765,298540.9928,299308.6952,307785.0131
Blocked,Female,ball,2,F_ball.wav,None,735.9256782,3420,307775.0746,300074.883,300824.9652,301591.5794,302358.2415,303124.876,303891.9119,304658.5953,308524.4612,309291.4278,295475.0983,296241.6765,297008.4178,297775.4765,298540.9928,299308.6952,308533.5452
Blocked,Female,ball,2,F_knife.wav,space,458.7719417,3420,307775.0746,300074.883,300824.9652,301591.5794,302358.2415,303124.876,303891.9119,304658.5953,308524.4612,309291.4278,310058.0076,296241.6765,297008.4178,297775.4765,298540.9928,299308.6952,309301.7896
Blocked,Female,ball,2,F_park.wav,None,729.8968732,3420,307775.0746,300074.883,300824.9652,301591.5794,302358.2415,303124.876,303891.9119,304658.5953,308524.4612,309291.4278,310058.0076,310824.244,297008.4178,297775.4765,298540.9928,299308.6952,310067.1717
Blocked,Female,ball,2,F_depth.wav,None,728.1361534,3420,307775.0746,300074.883,300824.9652,301591.5794,302358.2415,303124.876,303891.9119,304658.5953,308524.4612,309291.4278,310058.0076,310824.244,311591.2603,297775.4765,298540.9928,299308.6952,310833.183
Blocked,Female,ball,2,F_ball.wav,None,725.0552797,3420,307775.0746,300074.883,300824.9652,301591.5794,302358.2415,303124.876,303891.9119,304658.5953,308524.4612,309291.4278,310058.0076,310824.244,311591.2603,312358.2773,298540.9928,299308.6952,311600.6319
Blocked,Female,ball,2,F_cad.wav,space,664.0091492,3420,307775.0746,300074.883,300824.9652,301591.5794,302358.2415,303124.876,303891.9119,304658.5953,308524.4612,309291.4278,310058.0076,310824.244,311591.2603,312358.2773,313124.7035,299308.6952,312368.4243
Blocked,Female,ball,2,F_ball.wav,None,719.4648772,3420,307775.0746,300074.883,300824.9652,301591.5794,302358.2415,303124.876,303891.9119,304658.5953,308524.4612,309291.4278,310058.0076,310824.244,311591.2603,312358.2773,313124.7035,313874.3684,313134.894
Blocked,Female,ball,2,F_lash.wav,None,734.9242782,3420,307775.0746,314640.7686,300824.9652,301591.5794,302358.2415,303124.876,303891.9119,304658.5953,308524.4612,309291.4278,310058.0076,310824.244,311591.2603,312358.2773,313124.7035,313874.3684,313883.6351
Blocked,Female,ball,2,F_jaw.wav,space,286.9003043,3420,307775.0746,314640.7686,315407.8224,301591.5794,302358.2415,303124.876,303891.9119,304658.5953,308524.4612,309291.4278,310058.0076,310824.244,311591.2603,312358.2773,313124.7035,313874.3684,314649.4652
Blocked,Female,ball,2,F_depth.wav,None,729.8594639,3420,307775.0746,314640.7686,315407.8224,316174.4915,302358.2415,303124.876,303891.9119,304658.5953,308524.4612,309291.4278,310058.0076,310824.244,311591.2603,312358.2773,313124.7035,313874.3684,315417.3324
Blocked,Female,ball,2,F_ball.wav,None,727.6625056,3420,307775.0746,314640.7686,315407.8224,316174.4915,316941.131,303124.876,303891.9119,304658.5953,308524.4612,309291.4278,310058.0076,310824.244,311591.2603,312358.2773,313124.7035,313874.3684,316184.4381
Blocked,Female,ball,2,F_lash.wav,space,425.7702651,3420,307775.0746,314640.7686,315407.8224,316174.4915,316941.131,317708.1468,303891.9119,304658.5953,308524.4612,309291.4278,310058.0076,310824.244,311591.2603,312358.2773,313124.7035,313874.3684,316950.5255
Blocked,Female,ball,2,F_knife.wav,None,722.3698338,3420,307775.0746,314640.7686,315407.8224,316174.4915,316941.131,317708.1468,318474.6784,304658.5953,308524.4612,309291.4278,310058.0076,310824.244,311591.2603,312358.2773,313124.7035,313874.3684,317717.7864
Blocked,Female,ball,2,F_cling.wav,None,720.020764,3420,307775.0746,314640.7686,315407.8224,316174.4915,316941.131,317708.1468,318474.6784,319224.0833,308524.4612,309291.4278,310058.0076,310824.244,311591.2603,312358.2773,313124.7035,313874.3684,318484.3848
Blocked,Female,ball,3,F_dime.wav,None,734.9987882,3420,322357.86,314640.7686,315407.8224,316174.4915,316941.131,317708.1468,318474.6784,319224.0833,308524.4612,309291.4278,310058.0076,310824.244,311591.2603,312358.2773,313124.7035,313874.3684,319233.7043
Blocked,Female,ball,3,F_jaw.wav,None,720.4437074,3420,322357.86,314640.7686,315407.8224,316174.4915,316941.131,317708.1468,318474.6784,319224.0833,323107.2429,309291.4278,310058.0076,310824.244,311591.2603,312358.2773,313124.7035,313874.3684,322367.8245
Blocked,Female,ball,3,F_ball.wav,None,736.651917,3420,322357.86,314640.7686,315407.8224,316174.4915,316941.131,317708.1468,318474.6784,319224.0833,323107.2429,323874.2051,310058.0076,310824.244,311591.2603,312358.2773,313124.7035,313874.3684,323116.2381
Blocked,Female,ball,3,F_reek.wav,space,676.9540748,3420,322357.86,314640.7686,315407.8224,316174.4915,316941.131,317708.1468,318474.6784,319224.0833,323107.2429,323874.2051,324640.6894,310824.244,311591.2603,312358.2773,313124.7035,313874.3684,323883.1429
Blocked,Female,ball,3,F_reek.wav,None,730.7192641,3420,322357.86,314640.7686,315407.8224,316174.4915,316941.131,317708.1468,318474.6784,319224.0833,323107.2429,323874.2051,324640.6894,325407.0828,311591.2603,312358.2773,313124.7035,313874.3684,324650.1312
Blocked,Female,ball,3,F_ball.wav,None,729.9138778,3420,322357.86,314640.7686,315407.8224,316174.4915,316941.131,317708.1468,318474.6784,319224.0833,323107.2429,323874.2051,324640.6894,325407.0828,326173.7631,312358.2773,313124.7035,313874.3684,325415.9483
Blocked,Female,ball,3,F_dime.wav,None,727.4683472,3420,322357.86,314640.7686,315407.8224,316174.4915,316941.131,317708.1468,318474.6784,319224.0833,323107.2429,323874.2051,324640.6894,325407.0828,326173.7631,326940.7733,313124.7035,313874.3684,326182.8289
Blocked,Female,ball,3,F_jolt.wav,space,288.9525709,3420,322357.86,314640.7686,315407.8224,316174.4915,316941.131,317708.1468,318474.6784,319224.0833,323107.2429,323874.2051,324640.6894,325407.0828,326173.7631,326940.7733,327707.8924,313874.3684,326951.0473
Blocked,Female,ball,3,F_knife.wav,None,721.2206502,3420,322357.86,314640.7686,315407.8224,316174.4915,316941.131,317708.1468,318474.6784,319224.0833,323107.2429,323874.2051,324640.6894,325407.0828,326173.7631,326940.7733,327707.8924,328474.3763,327717.4933
Blocked,Female,ball,3,F_reek.wav,None,719.0512083,3420,322357.86,329223.5181,315407.8224,316174.4915,316941.131,317708.1468,318474.6784,319224.0833,323107.2429,323874.2051,324640.6894,325407.0828,326173.7631,326940.7733,327707.8924,328474.3763,328484.1844
Blocked,Female,ball,3,F_park.wav,None,735.3085759,3420,322357.86,329223.5181,329990.6554,316174.4915,316941.131,317708.1468,318474.6784,319224.0833,323107.2429,323874.2051,324640.6894,325407.0828,326173.7631,326940.7733,327707.8924,328474.3763,329232.7456
Blocked,Female,ball,3,F_ball.wav,None,732.4172226,3420,322357.86,329223.5181,329990.6554,330756.6125,316941.131,317708.1468,318474.6784,319224.0833,323107.2429,323874.2051,324640.6894,325407.0828,326173.7631,326940.7733,327707.8924,328474.3763,330000.1147
Blocked,Female,ball,3,F_gnash.wav,None,735.5849734,3420,322357.86,329223.5181,329990.6554,330756.6125,331523.6323,317708.1468,318474.6784,319224.0833,323107.2429,323874.2051,324640.6894,325407.0828,326173.7631,326940.7733,327707.8924,328474.3763,330765.3614
Blocked,Female,ball,3,F_ball.wav,None,733.1035794,3420,322357.86,329223.5181,329990.6554,330756.6125,331523.6323,332290.1336,318474.6784,319224.0833,323107.2429,323874.2051,324640.6894,325407.0828,326173.7631,326940.7733,327707.8924,328474.3763,331532.4068
Blocked,Female,ball,3,F_cad.wav,None,731.1783805,3420,322357.86,329223.5181,329990.6554,330756.6125,331523.6323,332290.1336,333057.3225,319224.0833,323107.2429,323874.2051,324640.6894,325407.0828,326173.7631,326940.7733,327707.8924,328474.3763,332299.2825
Blocked,Female,ball,3,F_cling.wav,None,728.5043742,3420,322357.86,329223.5181,329990.6554,330756.6125,331523.6323,332290.1336,333057.3225,333823.975,323107.2429,323874.2051,324640.6894,325407.0828,326173.7631,326940.7733,327707.8924,328474.3763,333066.2968
Blocked,Female,cave,12,F_depth.wav,None,725.9806236,3420,336957.5393,329223.5181,329990.6554,330756.6125,331523.6323,332290.1336,333057.3225,333823.975,323107.2429,323874.2051,324640.6894,325407.0828,326173.7631,326940.7733,327707.8924,328474.3763,333833.3552
Blocked,Female,cave,12,F_depth.wav,None,720.337044,3420,336957.5393,329223.5181,329990.6554,330756.6125,331523.6323,332290.1336,333057.3225,333823.975,337723.5645,323874.2051,324640.6894,325407.0828,326173.7631,326940.7733,327707.8924,328474.3763,336967.4593
Blocked,Female,cave,12,F_romp.wav,None,720.2650076,3420,336957.5393,329223.5181,329990.6554,330756.6125,331523.6323,332290.1336,333057.3225,333823.975,337723.5645,338473.473,324640.6894,325407.0828,326173.7631,326940.7733,327707.8924,328474.3763,337732.4321
Blocked,Female,cave,12,F_cling.wav,None,734.9295341,3420,336957.5393,329223.5181,329990.6554,330756.6125,331523.6323,332290.1336,333057.3225,333823.975,337723.5645,338473.473,339240.3762,325407.0828,326173.7631,326940.7733,327707.8924,328474.3763,338482.347
Blocked,Female,cave,12,F_cave.wav,None,731.5623695,3420,336957.5393,329223.5181,329990.6554,330756.6125,331523.6323,332290.1336,333057.3225,333823.975,337723.5645,338473.473,339240.3762,340006.5328,326173.7631,326940.7733,327707.8924,328474.3763,339250.1716
Blocked,Female,cave,12,F_gnash.wav,space,432.2597319,3420,336957.5393,329223.5181,329990.6554,330756.6125,331523.6323,332290.1336,333057.3225,333823.975,337723.5645,338473.473,339240.3762,340006.5328,340773.7773,326940.7733,327707.8924,328474.3763,340015.362
Blocked,Female,cave,12,F_dime.wav,None,726.2706249,3420,336957.5393,329223.5181,329990.6554,330756.6125,331523.6323,332290.1336,333057.3225,333823.975,337723.5645,338473.473,339240.3762,340006.5328,340773.7773,341540.3772,327707.8924,328474.3763,340783.3977
Blocked,Female,cave,12,F_cave.wav,None,724.0980905,3420,336957.5393,329223.5181,329990.6554,330756.6125,331523.6323,332290.1336,333057.3225,333823.975,337723.5645,338473.473,339240.3762,340006.5328,340773.7773,341540.3772,342307.4007,328474.3763,341550.2601
Blocked,Female,cave,12,F_greet.wav,None,721.7542767,3420,336957.5393,329223.5181,329990.6554,330756.6125,331523.6323,332290.1336,333057.3225,333823.975,337723.5645,338473.473,339240.3762,340006.5328,340773.7773,341540.3772,342307.4007,343074.0013,342317.2218
Blocked,Female,cave,12,F_bluff.wav,None,719.5733958,3420,336957.5393,343823.2027,329990.6554,330756.6125,331523.6323,332290.1336,333057.3225,333823.975,337723.5645,338473.473,339240.3762,340006.5328,340773.7773,341540.3772,342307.4007,343074.0013,343083.9748
Blocked,Female,cave,12,F_knife.wav,None,735.4860394,3420,336957.5393,343823.2027,344590.1078,330756.6125,331523.6323,332290.1336,333057.3225,333823.975,337723.5645,338473.473,339240.3762,340006.5328,340773.7773,341540.3772,342307.4007,343074.0013,343832.2511
Blocked,Female,cave,12,F_cave.wav,space,671.6941744,3420,336957.5393,343823.2027,344590.1078,345356.9887,331523.6323,332290.1336,333057.3225,333823.975,337723.5645,338473.473,339240.3762,340006.5328,340773.7773,341540.3772,342307.4007,343074.0013,344599.7959
Blocked,Female,cave,12,F_romp.wav,None,729.5994526,3420,336957.5393,343823.2027,344590.1078,345356.9887,346123.567,332290.1336,333057.3225,333823.975,337723.5645,338473.473,339240.3762,340006.5328,340773.7773,341540.3772,342307.4007,343074.0013,345366.4162
Blocked,Female,cave,12,F_bluff.wav,space,90.31613218,3420,336957.5393,343823.2027,344590.1078,345356.9887,346123.567,346890.5228,333057.3225,333823.975,337723.5645,338473.473,339240.3762,340006.5328,340773.7773,341540.3772,342307.4007,343074.0013,346133.1262
Blocked,Female,cave,12,F_cave.wav,None,723.8250943,3420,336957.5393,343823.2027,344590.1078,345356.9887,346123.567,346890.5228,347657.2288,333823.975,337723.5645,338473.473,339240.3762,340006.5328,340773.7773,341540.3772,342307.4007,343074.0013,346900.107
Blocked,Female,cave,12,F_park.wav,space,460.0886945,3420,336957.5393,343823.2027,344590.1078,345356.9887,346123.567,346890.5228,347657.2288,348423.871,337723.5645,338473.473,339240.3762,340006.5328,340773.7773,341540.3772,342307.4007,343074.0013,347667.2972
Blocked,Female,done,19,F_jaw.wav,None,718.5809612,3420,351540.5374,343823.2027,344590.1078,345356.9887,346123.567,346890.5228,347657.2288,348423.871,337723.5645,338473.473,339240.3762,340006.5328,340773.7773,341540.3772,342307.4007,343074.0013,348433.9348
Blocked,Female,done,19,F_jolt.wav,None,719.7916694,3420,351540.5374,343823.2027,344590.1078,345356.9887,346123.567,346890.5228,347657.2288,348423.871,352289.719,338473.473,339240.3762,340006.5328,340773.7773,341540.3772,342307.4007,343074.0013,351550.4181
Blocked,Female,done,19,F_priest.wav,None,735.7123508,3420,351540.5374,343823.2027,344590.1078,345356.9887,346123.567,346890.5228,347657.2288,348423.871,352289.719,353056.7437,339240.3762,340006.5328,340773.7773,341540.3772,342307.4007,343074.0013,352299.1864
Blocked,Female,done,19,F_done.wav,None,732.5065727,3420,351540.5374,343823.2027,344590.1078,345356.9887,346123.567,346890.5228,347657.2288,348423.871,352289.719,353056.7437,353823.3369,340006.5328,340773.7773,341540.3772,342307.4007,343074.0013,353066.4535
Blocked,Female,done,19,F_reek.wav,space,462.4303444,3420,351540.5374,343823.2027,344590.1078,345356.9887,346123.567,346890.5228,347657.2288,348423.871,352289.719,353056.7437,353823.3369,354589.7624,340773.7773,341540.3772,342307.4007,343074.0013,353832.7551
Blocked,Female,done,19,F_romp.wav,None,727.6918772,3420,351540.5374,343823.2027,344590.1078,345356.9887,346123.567,346890.5228,347657.2288,348423.871,352289.719,353056.7437,353823.3369,354589.7624,355356.6712,341540.3772,342307.4007,343074.0013,354599.2403
Blocked,Female,done,19,F_done.wav,None,725.4148433,3420,351540.5374,343823.2027,344590.1078,345356.9887,346123.567,346890.5228,347657.2288,348423.871,352289.719,353056.7437,353823.3369,354589.7624,355356.6712,356123.5172,342307.4007,343074.0013,355366.0363
Blocked,Female,done,19,F_reek.wav,space,417.3970278,3420,351540.5374,343823.2027,344590.1078,345356.9887,346123.567,346890.5228,347657.2288,348423.871,352289.719,353056.7437,353823.3369,354589.7624,355356.6712,356123.5172,356890.272,343074.0013,356133.7399
Blocked,Female,done,19,F_priest.wav,None,719.3387356,3420,351540.5374,343823.2027,344590.1078,345356.9887,346123.567,346890.5228,347657.2288,348423.871,352289.719,353056.7437,353823.3369,354589.7624,355356.6712,356123.5172,356890.272,357639.6803,356900.2601
Blocked,Female,done,19,F_reek.wav,None,735.5732252,3420,351540.5374,358406.3637,344590.1078,345356.9887,346123.567,346890.5228,347657.2288,348423.871,352289.719,353056.7437,353823.3369,354589.7624,355356.6712,356123.5172,356890.272,357639.6803,357648.764
Blocked,Female,done,19,F_jaw.wav,None,733.2677483,3420,351540.5374,358406.3637,359173.164,345356.9887,346123.567,346890.5228,347657.2288,348423.871,352289.719,353056.7437,353823.3369,354589.7624,355356.6712,356123.5172,356890.272,357639.6803,358416.2454
Blocked,Female,done,19,F_done.wav,None,731.4519961,3420,351540.5374,358406.3637,359173.164,359939.9769,346123.567,346890.5228,347657.2288,348423.871,352289.719,353056.7437,353823.3369,354589.7624,355356.6712,356123.5172,356890.272,357639.6803,359182.7566
Blocked,Female,done,19,F_park.wav,space,481.2541273,3420,351540.5374,358406.3637,359173.164,359939.9769,360705.9941,346890.5228,347657.2288,348423.871,352289.719,353056.7437,353823.3369,354589.7624,355356.6712,356123.5172,356890.272,357639.6803,359949.7525
Blocked,Female,done,19,F_reek.wav,None,727.9228265,3420,351540.5374,358406.3637,359173.164,359939.9769,360705.9941,361472.8948,347657.2288,348423.871,352289.719,353056.7437,353823.3369,354589.7624,355356.6712,356123.5172,356890.272,357639.6803,360714.623
Blocked,Female,done,19,F_done.wav,None,724.5862694,3420,351540.5374,358406.3637,359173.164,359939.9769,360705.9941,361472.8948,362240.0998,348423.871,352289.719,353056.7437,353823.3369,354589.7624,355356.6712,356123.5172,356890.272,357639.6803,361482.4716
Blocked,Female,done,19,F_priest.wav,space,548.8527957,3420,351540.5374,358406.3637,359173.164,359939.9769,360705.9941,361472.8948,362240.0998,363006.1485,352289.719,353056.7437,353823.3369,354589.7624,355356.6712,356123.5172,356890.272,357639.6803,362250.0952
Blocked,Female,cave,8,F_gnash.wav,None,720.1209348,3420,366123.2656,358406.3637,359173.164,359939.9769,360705.9941,361472.8948,362240.0998,363006.1485,352289.719,353056.7437,353823.3369,354589.7624,355356.6712,356123.5172,356890.272,357639.6803,363015.0587
Blocked,Female,cave,8,F_cave.wav,None,719.7344727,3420,366123.2656,358406.3637,359173.164,359939.9769,360705.9941,361472.8948,362240.0998,363006.1485,366872.4262,353056.7437,353823.3369,354589.7624,355356.6712,356123.5172,356890.272,357639.6803,366133.3553
Blocked,Female,cave,8,F_lash.wav,space,610.8644623,3420,366123.2656,358406.3637,359173.164,359939.9769,360705.9941,361472.8948,362240.0998,363006.1485,366872.4262,367639.143,353823.3369,354589.7624,355356.6712,356123.5172,356890.272,357639.6803,366875.9393
Blocked,Female,cave,8,F_lash.wav,None,733.0803918,3420,366123.2656,358406.3637,359173.164,359939.9769,360705.9941,361472.8948,362240.0998,363006.1485,366872.4262,367639.143,368406.2982,354589.7624,355356.6712,356123.5172,356890.272,357639.6803,367648.2743
Blocked,Female,cave,8,F_cave.wav,None,730.9904061,3420,366123.2656,358406.3637,359173.164,359939.9769,360705.9941,361472.8948,362240.0998,363006.1485,366872.4262,367639.143,368406.2982,369172.4965,355356.6712,356123.5172,356890.272,357639.6803,368415.3853
Blocked,Female,cave,8,F_lash.wav,None,729.3981831,3420,366123.2656,358406.3637,359173.164,359939.9769,360705.9941,361472.8948,362240.0998,363006.1485,366872.4262,367639.143,368406.2982,369172.4965,369938.9993,356123.5172,356890.272,357639.6803,369181.5279
Blocked,Female,cave,8,F_park.wav,space,370.5439405,3420,366123.2656,358406.3637,359173.164,359939.9769,360705.9941,361472.8948,362240.0998,363006.1485,366872.4262,367639.143,368406.2982,369172.4965,369938.9993,370706.6019,356890.272,357639.6803,369948.1643
Blocked,Female,cave,8,F_knife.wav,None,723.0119784,3420,366123.2656,358406.3637,359173.164,359939.9769,360705.9941,361472.8948,362240.0998,363006.1485,366872.4262,367639.143,368406.2982,369172.4965,369938.9993,370706.6019,371473.152,357639.6803,370716.602
Blocked,Female,cave,8,F_jaw.wav,None,721.3891479,3420,366123.2656,358406.3637,359173.164,359939.9769,360705.9941,361472.8948,362240.0998,363006.1485,366872.4262,367639.143,368406.2982,369172.4965,369938.9993,370706.6019,371473.152,372239.6153,371482.8967
Blocked,Female,cave,8,F_cave.wav,None,719.0246196,3420,366123.2656,372989.2486,359173.164,359939.9769,360705.9941,361472.8948,362240.0998,363006.1485,366872.4262,367639.143,368406.2982,369172.4965,369938.9993,370706.6019,371473.152,372239.6153,372249.8423
Blocked,Female,cave,8,F_cad.wav,space,559.6585781,3420,366123.2656,372989.2486,373756.047,359939.9769,360705.9941,361472.8948,362240.0998,363006.1485,366872.4262,367639.143,368406.2982,369172.4965,369938.9993,370706.6019,371473.152,372239.6153,372998.9637
Blocked,Female,cave,8,F_bluff.wav,None,731.70366,3420,366123.2656,372989.2486,373756.047,374522.6646,360705.9941,361472.8948,362240.0998,363006.1485,366872.4262,367639.143,368406.2982,369172.4965,369938.9993,370706.6019,371473.152,372239.6153,373765.0621
Blocked,Female,cave,8,F_cave.wav,None,729.5703907,3420,366123.2656,372989.2486,373756.047,374522.6646,375288.8536,361472.8948,362240.0998,363006.1485,366872.4262,367639.143,368406.2982,369172.4965,369938.9993,370706.6019,371473.152,372239.6153,374532.0612
Blocked,Female,cave,8,F_park.wav,space,580.565854,3420,366123.2656,372989.2486,373756.047,374522.6646,375288.8536,376056.0354,362240.0998,363006.1485,366872.4262,367639.143,368406.2982,369172.4965,369938.9993,370706.6019,371473.152,372239.6153,375297.9952
Blocked,Female,cave,8,F_priest.wav,None,724.8128909,3420,366123.2656,372989.2486,373756.047,374522.6646,375288.8536,376056.0354,376822.2303,363006.1485,366872.4262,367639.143,368406.2982,369172.4965,369938.9993,370706.6019,371473.152,372239.6153,376065.2363
Blocked,Female,cave,8,F_reek.wav,None,730.7109167,3420,366123.2656,372989.2486,373756.047,374522.6646,375288.8536,376056.0354,376822.2303,377589.4956,366872.4262,367639.143,368406.2982,369172.4965,369938.9993,370706.6019,371473.152,372239.6153,376825.6161
Blocked,Female,ball,5,F_priest.wav,None,721.9657493,3420,380706.3759,372989.2486,373756.047,374522.6646,375288.8536,376056.0354,376822.2303,377589.4956,366872.4262,367639.143,368406.2982,369172.4965,369938.9993,370706.6019,371473.152,372239.6153,377599.0313
Blocked,Female,ball,5,F_greet.wav,None,720.7803931,3420,380706.3759,372989.2486,373756.047,374522.6646,375288.8536,376056.0354,376822.2303,377589.4956,381472.9288,367639.143,368406.2982,369172.4965,369938.9993,370706.6019,371473.152,372239.6153,380715.7882
Blocked,Female,ball,5,F_reek.wav,None,718.970824,3420,380706.3759,372989.2486,373756.047,374522.6646,375288.8536,376056.0354,376822.2303,377589.4956,381472.9288,382222.329,368406.2982,369172.4965,369938.9993,370706.6019,371473.152,372239.6153,381482.5069
Blocked,Female,ball,5,F_ball.wav,None,739.8920134,3420,380706.3759,372989.2486,373756.047,374522.6646,375288.8536,376056.0354,376822.2303,377589.4956,381472.9288,382222.329,382989.0322,369172.4965,369938.9993,370706.6019,371473.152,372239.6153,382226.5183
Blocked,Female,ball,5,F_jaw.wav,space,463.8648904,3420,380706.3759,372989.2486,373756.047,374522.6646,375288.8536,376056.0354,376822.2303,377589.4956,381472.9288,382222.329,382989.0322,383755.805,369938.9993,370706.6019,371473.152,372239.6153,382998.4647
Blocked,Female,ball,5,F_ball.wav,None,729.7506365,3420,380706.3759,372989.2486,373756.047,374522.6646,375288.8536,376056.0354,376822.2303,377589.4956,381472.9288,382222.329,382989.0322,383755.805,384522.4157,370706.6019,371473.152,372239.6153,383764.8265
Blocked,Female,ball,5,F_romp.wav,None,727.8677942,3420,380706.3759,372989.2486,373756.047,374522.6646,375288.8536,376056.0354,376822.2303,377589.4956,381472.9288,382222.329,382989.0322,383755.805,384522.4157,385289.0682,371473.152,372239.6153,384531.7665
Blocked,Female,ball,5,F_ball.wav,space,0.03431784,3420,380706.3759,372989.2486,373756.047,374522.6646,375288.8536,376056.0354,376822.2303,377589.4956,381472.9288,382222.329,382989.0322,383755.805,384522.4157,385289.0682,386056.2964,372239.6153,385298.9023
Blocked,Female,ball,5,F_jolt.wav,space,612.1005225,3420,380706.3759,372989.2486,373756.047,374522.6646,375288.8536,376056.0354,376822.2303,377589.4956,381472.9288,382222.329,382989.0322,383755.805,384522.4157,385289.0682,386056.2964,386822.721,386066.1242
Blocked,Female,ball,5,F_gnash.wav,None,719.4002606,3420,380706.3759,387572.1017,373756.047,374522.6646,375288.8536,376056.0354,376822.2303,377589.4956,381472.9288,382222.329,382989.0322,383755.805,384522.4157,385289.0682,386056.2964,386822.721,386832.4317
Blocked,Female,ball,5,F_ball.wav,None,735.0664958,3420,380706.3759,387572.1017,388338.8321,374522.6646,375288.8536,376056.0354,376822.2303,377589.4956,381472.9288,382222.329,382989.0322,383755.805,384522.4157,385289.0682,386056.2964,386822.721,387581.8356
Blocked,Female,ball,5,F_romp.wav,space,609.8751202,3420,380706.3759,387572.1017,388338.8321,389105.6299,375288.8536,376056.0354,376822.2303,377589.4956,381472.9288,382222.329,382989.0322,383755.805,384522.4157,385289.0682,386056.2964,386822.721,388348.2918
Blocked,Female,ball,5,F_lash.wav,None,730.155339,3420,380706.3759,387572.1017,388338.8321,389105.6299,389872.2144,376056.0354,376822.2303,377589.4956,381472.9288,382222.329,382989.0322,383755.805,384522.4157,385289.0682,386056.2964,386822.721,389114.9115
Blocked,Female,ball,5,F_cad.wav,None,728.9517424,3420,380706.3759,387572.1017,388338.8321,389105.6299,389872.2144,390638.8706,376822.2303,377589.4956,381472.9288,382222.329,382989.0322,383755.805,384522.4157,385289.0682,386056.2964,386822.721,389881.4168
Blocked,Female,ball,5,F_jaw.wav,None,726.5621712,3420,380706.3759,387572.1017,388338.8321,389105.6299,389872.2144,390638.8706,391405.7534,377589.4956,381472.9288,382222.329,382989.0322,383755.805,384522.4157,385289.0682,386056.2964,386822.721,390648.7977
Blocked,Female,ball,5,F_lash.wav,None,725.4306115,3420,380706.3759,387572.1017,388338.8321,389105.6299,389872.2144,390638.8706,391405.7534,392172.5555,381472.9288,382222.329,382989.0322,383755.805,384522.4157,385289.0682,386056.2964,386822.721,391415.2934
Blocked,Female,ball,1,F_romp.wav,None,723.0796865,3420,395289.1205,387572.1017,388338.8321,389105.6299,389872.2144,390638.8706,391405.7534,392172.5555,381472.9288,382222.329,382989.0322,383755.805,384522.4157,385289.0682,386056.2964,386822.721,392182.5825
Blocked,Female,ball,1,F_ball.wav,None,718.9776259,3420,395289.1205,387572.1017,388338.8321,389105.6299,389872.2144,390638.8706,391405.7534,392172.5555,396038.4999,382222.329,382989.0322,383755.805,384522.4157,385289.0682,386056.2964,386822.721,395299.1759
Blocked,Female,ball,1,F_dime.wav,space,462.2983285,3420,395289.1205,387572.1017,388338.8321,389105.6299,389872.2144,390638.8706,391405.7534,392172.5555,396038.4999,396805.3314,382989.0322,383755.805,384522.4157,385289.0682,386056.2964,386822.721,396047.6452
Blocked,Female,ball,1,F_reek.wav,None,731.6962401,3420,395289.1205,387572.1017,388338.8321,389105.6299,389872.2144,390638.8706,391405.7534,392172.5555,396038.4999,396805.3314,397571.6315,383755.805,384522.4157,385289.0682,386056.2964,386822.721,396814.9574
Blocked,Female,ball,1,F_priest.wav,None,731.0766638,3420,395289.1205,387572.1017,388338.8321,389105.6299,389872.2144,390638.8706,391405.7534,392172.5555,396038.4999,396805.3314,397571.6315,398338.5684,384522.4157,385289.0682,386056.2964,386822.721,397580.4657
Blocked,Female,ball,1,F_ball.wav,None,728.0876134,3420,395289.1205,387572.1017,388338.8321,389105.6299,389872.2144,390638.8706,391405.7534,392172.5555,396038.4999,396805.3314,397571.6315,398338.5684,399105.4076,385289.0682,386056.2964,386822.721,398348.4176
Blocked,Female,ball,1,F_knife.wav,space,627.2900184,3420,395289.1205,387572.1017,388338.8321,389105.6299,389872.2144,390638.8706,391405.7534,392172.5555,396038.4999,396805.3314,397571.6315,398338.5684,399105.4076,399872.1235,386056.2964,386822.721,399114.5615
Blocked,Female,ball,1,F_jolt.wav,None,723.4676941,3420,395289.1205,387572.1017,388338.8321,389105.6299,389872.2144,390638.8706,391405.7534,392172.5555,396038.4999,396805.3314,397571.6315,398338.5684,399105.4076,399872.1235,400638.8372,386822.721,399881.384
Blocked,Female,ball,1,F_ball.wav,None,720.9334322,3420,395289.1205,387572.1017,388338.8321,389105.6299,389872.2144,390638.8706,391405.7534,392172.5555,396038.4999,396805.3314,397571.6315,398338.5684,399105.4076,399872.1235,400638.8372,401404.8605,400648.9507
Blocked,Female,ball,1,F_park.wav,space,415.7769801,3420,395289.1205,402155.217,388338.8321,389105.6299,389872.2144,390638.8706,391405.7534,392172.5555,396038.4999,396805.3314,397571.6315,398338.5684,399105.4076,399872.1235,400638.8372,401404.8605,401413.977
Blocked,Female,ball,1,F_bluff.wav,None,734.0796273,3420,395289.1205,402155.217,402921.8361,389105.6299,389872.2144,390638.8706,391405.7534,392172.5555,396038.4999,396805.3314,397571.6315,398338.5684,399105.4076,399872.1235,400638.8372,401404.8605,402164.425
Blocked,Female,ball,1,F_bluff.wav,None,731.9871685,3420,395289.1205,402155.217,402921.8361,403688.4456,389872.2144,390638.8706,391405.7534,392172.5555,396038.4999,396805.3314,397571.6315,398338.5684,399105.4076,399872.1235,400638.8372,401404.8605,402931.3755
Blocked,Female,ball,1,F_ball.wav,None,730.5452018,3420,395289.1205,402155.217,402921.8361,403688.4456,404455.1624,390638.8706,391405.7534,392172.5555,396038.4999,396805.3314,397571.6315,398338.5684,399105.4076,399872.1235,400638.8372,401404.8605,403697.8935
Blocked,Female,ball,1,F_depth.wav,space,509.3644341,3420,395289.1205,402155.217,402921.8361,403688.4456,404455.1624,405221.391,391405.7534,392172.5555,396038.4999,396805.3314,397571.6315,398338.5684,399105.4076,399872.1235,400638.8372,401404.8605,404464.3385
Blocked,Female,ball,1,F_romp.wav,None,727.2544019,3420,395289.1205,402155.217,402921.8361,403688.4456,404455.1624,405221.391,405988.3669,392172.5555,396038.4999,396805.3314,397571.6315,398338.5684,399105.4076,399872.1235,400638.8372,401404.8605,405230.2484
Blocked,Female,ball,1,F_jaw.wav,None,724.7859929,3420,395289.1205,402155.217,402921.8361,403688.4456,404455.1624,405221.391,405988.3669,406754.6793,396038.4999,396805.3314,397571.6315,398338.5684,399105.4076,399872.1235,400638.8372,401404.8605,405997.7746
Blocked,Female,cave,10,F_priest.wav,None,723.7552218,3420,409888.5917,402155.217,402921.8361,403688.4456,404455.1624,405221.391,405988.3669,406754.6793,396038.4999,396805.3314,397571.6315,398338.5684,399105.4076,399872.1235,400638.8372,401404.8605,406763.7537
Blocked,Female,cave,10,F_cave.wav,None,720.3630144,3420,409888.5917,402155.217,402921.8361,403688.4456,404455.1624,405221.391,405988.3669,406754.6793,410638.332,396805.3314,397571.6315,398338.5684,399105.4076,399872.1235,400638.8372,401404.8605,409898.2177
Blocked,Female,cave,10,F_park.wav,None,735.5308686,3420,409888.5917,402155.217,402921.8361,403688.4456,404455.1624,405221.391,405988.3669,406754.6793,410638.332,411404.3402,397571.6315,398338.5684,399105.4076,399872.1235,400638.8372,401404.8605,410647.9388
Blocked,Female,cave,10,F_cave.wav,None,736.2663825,3420,409888.5917,402155.217,402921.8361,403688.4456,404455.1624,405221.391,405988.3669,406754.6793,410638.332,411404.3402,412171.5962,398338.5684,399105.4076,399872.1235,400638.8372,401404.8605,411412.9691
Blocked,Female,cave,10,F_depth.wav,None,733.1187287,3420,409888.5917,402155.217,402921.8361,403688.4456,404455.1624,405221.391,405988.3669,406754.6793,410638.332,411404.3402,412171.5962,412938.2474,399105.4076,399872.1235,400638.8372,401404.8605,412181.1708
Blocked,Female,cave,10,F_park.wav,None,731.1836365,3420,409888.5917,402155.217,402921.8361,403688.4456,404455.1624,405221.391,405988.3669,406754.6793,410638.332,411404.3402,412171.5962,412938.2474,413704.9011,399872.1235,400638.8372,401404.8605,412947.6248
Blocked,Female,cave,10,F_gnash.wav,None,730.0718632,3420,409888.5917,402155.217,402921.8361,403688.4456,404455.1624,405221.391,405988.3669,406754.6793,410638.332,411404.3402,412171.5962,412938.2474,413704.9011,414471.5771,400638.8372,401404.8605,413713.9267
Blocked,Female,cave,10,F_park.wav,None,727.9790952,3420,409888.5917,402155.217,402921.8361,403688.4456,404455.1624,405221.391,405988.3669,406754.6793,410638.332,411404.3402,412171.5962,412938.2474,413704.9011,414471.5771,415237.7012,401404.8605,414480.9889
Blocked,Female,cave,10,F_gnash.wav,None,727.7568025,3420,409888.5917,402155.217,402921.8361,403688.4456,404455.1624,405221.391,405988.3669,406754.6793,410638.332,411404.3402,412171.5962,412938.2474,413704.9011,414471.5771,415237.7012,416004.8676,415246.4337
Blocked,Female,cave,10,F_reek.wav,None,724.828349,3420,409888.5917,416771.7958,402921.8361,403688.4456,404455.1624,405221.391,405988.3669,406754.6793,410638.332,411404.3402,412171.5962,412938.2474,413704.9011,414471.5771,415237.7012,416004.8676,416014.5235
Blocked,Female,cave,10,F_cave.wav,None,723.2268509,3420,409888.5917,416771.7958,417538.3689,403688.4456,404455.1624,405221.391,405988.3669,406754.6793,410638.332,411404.3402,412171.5962,412938.2474,413704.9011,414471.5771,415237.7012,416004.8676,416781.7093
Blocked,Female,cave,10,F_lash.wav,space,488.8677346,3420,409888.5917,416771.7958,417538.3689,418287.7351,404455.1624,405221.391,405988.3669,406754.6793,410638.332,411404.3402,412171.5962,412938.2474,413704.9011,414471.5771,415237.7012,416004.8676,417548.4268
Blocked,Female,cave,10,F_dime.wav,None,736.3084299,3420,409888.5917,416771.7958,417538.3689,418287.7351,419054.4318,405221.391,405988.3669,406754.6793,410638.332,411404.3402,412171.5962,412938.2474,413704.9011,414471.5771,415237.7012,416004.8676,418297.1567
Blocked,Female,cave,10,F_cave.wav,None,734.1460986,3420,409888.5917,416771.7958,417538.3689,418287.7351,419054.4318,419821.352,405988.3669,406754.6793,410638.332,411404.3402,412171.5962,412938.2474,413704.9011,414471.5771,415237.7012,416004.8676,419064.3845
Blocked,Female,cave,10,F_priest.wav,None,732.6562111,3420,409888.5917,416771.7958,417538.3689,418287.7351,419054.4318,419821.352,420587.972,406754.6793,410638.332,411404.3402,412171.5962,412938.2474,413704.9011,414471.5771,415237.7012,416004.8676,419830.8469
Blocked,Female,cave,10,F_priest.wav,None,731.4056205,3420,409888.5917,416771.7958,417538.3689,418287.7351,419054.4318,419821.352,420587.972,421354.2739,410638.332,411404.3402,412171.5962,412938.2474,413704.9011,414471.5771,415237.7012,416004.8676,420597.4208
Blocked,Female,tile,15,F_greet.wav,None,730.4317369,3420,424488.0095,416771.7958,417538.3689,418287.7351,419054.4318,419821.352,420587.972,421354.2739,410638.332,411404.3402,412171.5962,412938.2474,413704.9011,414471.5771,415237.7012,416004.8676,421363.4126
Blocked,Female,tile,15,F_tile.wav,None,719.9542923,3420,424488.0095,416771.7958,417538.3689,418287.7351,419054.4318,419821.352,420587.972,421354.2739,425254.968,411404.3402,412171.5962,412938.2474,413704.9011,414471.5771,415237.7012,416004.8676,424498.3085
Blocked,Female,tile,15,F_gnash.wav,None,718.136685,3420,424488.0095,416771.7958,417538.3689,418287.7351,419054.4318,419821.352,420587.972,421354.2739,425254.968,426003.9493,412171.5962,412938.2474,413704.9011,414471.5771,415237.7012,416004.8676,425265.2263
Blocked,Female,tile,15,F_knife.wav,space,8.176605217,3420,424488.0095,416771.7958,417538.3689,418287.7351,419054.4318,419821.352,420587.972,421354.2739,425254.968,426003.9493,426770.6708,412938.2474,413704.9011,414471.5771,415237.7012,416004.8676,426012.8921
Blocked,Female,tile,15,F_jolt.wav,None,732.9854765,3420,424488.0095,416771.7958,417538.3689,418287.7351,419054.4318,419821.352,420587.972,421354.2739,425254.968,426003.9493,426770.6708,427537.7487,413704.9011,414471.5771,415237.7012,416004.8676,426779.4438
Blocked,Female,tile,15,F_cling.wav,None,730.4864596,3420,424488.0095,416771.7958,417538.3689,418287.7351,419054.4318,419821.352,420587.972,421354.2739,425254.968,426003.9493,426770.6708,427537.7487,428304.4809,414471.5771,415237.7012,416004.8676,427547.1851
Blocked,Female,tile,15,F_romp.wav,None,728.8021045,3420,424488.0095,416771.7958,417538.3689,418287.7351,419054.4318,419821.352,420587.972,421354.2739,425254.968,426003.9493,426770.6708,427537.7487,428304.4809,429071.0892,415237.7012,416004.8676,428314.0902
Blocked,Female,tile,15,F_tile.wav,None,728.0325815,3420,424488.0095,416771.7958,417538.3689,418287.7351,419054.4318,419821.352,420587.972,421354.2739,425254.968,426003.9493,426770.6708,427537.7487,428304.4809,429071.0892,429837.7191,416004.8676,429080.6054
Blocked,Female,tile,15,F_dime.wav,space,477.4510339,3420,424488.0095,416771.7958,417538.3689,418287.7351,419054.4318,419821.352,420587.972,421354.2739,425254.968,426003.9493,426770.6708,427537.7487,428304.4809,429071.0892,429837.7191,430604.7562,429847.4814
Blocked,Female,tile,15,F_park.wav,None,723.1458486,3420,424488.0095,431371.3132,417538.3689,418287.7351,419054.4318,419821.352,420587.972,421354.2739,425254.968,426003.9493,426770.6708,427537.7487,428304.4809,429071.0892,429837.7191,430604.7562,430614.504
Blocked,Female,tile,15,F_tile.wav,None,721.6086583,3420,424488.0095,431371.3132,432137.2972,418287.7351,419054.4318,419821.352,420587.972,421354.2739,425254.968,426003.9493,426770.6708,427537.7487,428304.4809,429071.0892,429837.7191,430604.7562,431381.3754
Blocked,Female,tile,15,F_park.wav,None,721.6380294,3420,424488.0095,431371.3132,432137.2972,432904.8046,419054.4318,419821.352,420587.972,421354.2739,425254.968,426003.9493,426770.6708,427537.7487,428304.4809,429071.0892,429837.7191,430604.7562,432146.4613
Blocked,Female,tile,15,F_tile.wav,space,130.3557428,3420,424488.0095,431371.3132,432137.2972,432904.8046,433654.1163,419821.352,420587.972,421354.2739,425254.968,426003.9493,426770.6708,427537.7487,428304.4809,429071.0892,429837.7191,430604.7562,432914.4813
Blocked,Female,tile,15,F_depth.wav,None,733.5667149,3420,424488.0095,431371.3132,432137.2972,432904.8046,433654.1163,434420.6325,420587.972,421354.2739,425254.968,426003.9493,426770.6708,427537.7487,428304.4809,429071.0892,429837.7191,430604.7562,433663.4211
Blocked,Female,tile,15,F_jaw.wav,space,167.4869964,3420,424488.0095,431371.3132,432137.2972,432904.8046,433654.1163,434420.6325,435187.5008,421354.2739,425254.968,426003.9493,426770.6708,427537.7487,428304.4809,429071.0892,429837.7191,430604.7562,434429.2954
Blocked,Female,tile,15,F_jolt.wav,None,728.505611,3420,424488.0095,431371.3132,432137.2972,432904.8046,433654.1163,434420.6325,435187.5008,435953.764,425254.968,426003.9493,426770.6708,427537.7487,428304.4809,429071.0892,429837.7191,430604.7562,435197.3061
Blocked,Female,tile,14,F_park.wav,None,728.6617416,3420,439087.7902,431371.3132,432137.2972,432904.8046,433654.1163,434420.6325,435187.5008,435953.764,425254.968,426003.9493,426770.6708,427537.7487,428304.4809,429071.0892,429837.7191,430604.7562,435962.5784
Blocked,Female,tile,14,F_knife.wav,None,719.9561475,3420,439087.7902,431371.3132,432137.2972,432904.8046,433654.1163,434420.6325,435187.5008,435953.764,439853.8482,426003.9493,426770.6708,427537.7487,428304.4809,429071.0892,429837.7191,430604.7562,439097.8707
Blocked,Female,tile,14,F_bluff.wav,None,720.6653822,3420,439087.7902,431371.3132,432137.2972,432904.8046,433654.1163,434420.6325,435187.5008,435953.764,439853.8482,440603.8098,426770.6708,427537.7487,428304.4809,429071.0892,429837.7191,430604.7562,439862.6799
Blocked,Female,tile,14,F_gnash.wav,None,735.5120094,3420,439087.7902,431371.3132,432137.2972,432904.8046,433654.1163,434420.6325,435187.5008,435953.764,439853.8482,440603.8098,441370.6311,427537.7487,428304.4809,429071.0892,429837.7191,430604.7562,440613.1186
Blocked,Female,tile,14,F_jaw.wav,None,733.845586,3420,439087.7902,431371.3132,432137.2972,432904.8046,433654.1163,434420.6325,435187.5008,435953.764,439853.8482,440603.8098,441370.6311,442137.3046,428304.4809,429071.0892,429837.7191,430604.7562,441380.0218
Blocked,Female,tile,14,F_park.wav,None,732.4651442,3420,439087.7902,431371.3132,432137.2972,432904.8046,433654.1163,434420.6325,435187.5008,435953.764,439853.8482,440603.8098,441370.6311,442137.3046,442903.5849,429071.0892,429837.7191,430604.7562,442146.7683
Blocked,Female,tile,14,F_bluff.wav,None,732.236668,3420,439087.7902,431371.3132,432137.2972,432904.8046,433654.1163,434420.6325,435187.5008,435953.764,439853.8482,440603.8098,441370.6311,442137.3046,442903.5849,443670.6554,429837.7191,430604.7562,442912.3913
Blocked,Female,tile,14,F_tile.wav,None,730.0319807,3420,439087.7902,431371.3132,432137.2972,432904.8046,433654.1163,434420.6325,435187.5008,435953.764,439853.8482,440603.8098,441370.6311,442137.3046,442903.5849,443670.6554,444436.7656,430604.7562,443679.9366
Blocked,Female,tile,14,F_reek.wav,space,478.8954738,3420,439087.7902,431371.3132,432137.2972,432904.8046,433654.1163,434420.6325,435187.5008,435953.764,439853.8482,440603.8098,441370.6311,442137.3046,442903.5849,443670.6554,444436.7656,445203.5201,444445.5865
Blocked,Female,tile,14,F_reek.wav,None,726.8030145,3420,439087.7902,445970.18,432137.2972,432904.8046,433654.1163,434420.6325,435187.5008,435953.764,439853.8482,440603.8098,441370.6311,442137.3046,442903.5849,443670.6554,444436.7656,445203.5201,445212.5104
Blocked,Female,tile,14,F_tile.wav,None,725.5904516,3420,439087.7902,445970.18,446737.6227,432904.8046,433654.1163,434420.6325,435187.5008,435953.764,439853.8482,440603.8098,441370.6311,442137.3046,442903.5849,443670.6554,444436.7656,445203.5201,445979.3227
Blocked,Female,tile,14,F_greet.wav,space,400.8830497,3420,439087.7902,445970.18,446737.6227,447504.3738,433654.1163,434420.6325,435187.5008,435953.764,439853.8482,440603.8098,441370.6311,442137.3046,442903.5849,443670.6554,444436.7656,445203.5201,446747.5137
Blocked,Female,tile,14,F_tile.wav,None,719.6587264,3420,439087.7902,445970.18,446737.6227,447504.3738,448270.791,434420.6325,435187.5008,435953.764,439853.8482,440603.8098,441370.6311,442137.3046,442903.5849,443670.6554,444436.7656,445203.5201,447514.0987
Blocked,Female,tile,14,F_priest.wav,None,724.7674428,3420,439087.7902,445970.18,446737.6227,447504.3738,448270.791,449020.4955,435187.5008,435953.764,439853.8482,440603.8098,441370.6311,442137.3046,442903.5849,443670.6554,444436.7656,445203.5201,448274.9098
Blocked,Female,tile,14,F_tile.wav,space,53.87834553,3420,439087.7902,445970.18,446737.6227,447504.3738,448270.791,449020.4955,449787.075,435953.764,439853.8482,440603.8098,441370.6311,442137.3046,442903.5849,443670.6554,444436.7656,445203.5201,449030.4705
Blocked,Female,tile,14,F_reek.wav,None,732.592213,3420,439087.7902,445970.18,446737.6227,447504.3738,448270.791,449020.4955,449787.075,450553.8106,439853.8482,440603.8098,441370.6311,442137.3046,442903.5849,443670.6554,444436.7656,445203.5201,449796.5526
Blocked,Female,done,20,F_bluff.wav,space,273.0461108,3420,453687.4021,445970.18,446737.6227,447504.3738,448270.791,449020.4955,449787.075,450553.8106,439853.8482,440603.8098,441370.6311,442137.3046,442903.5849,443670.6554,444436.7656,445203.5201,450563.2749
Blocked,Female,done,20,F_done.wav,None,720.4678226,3420,453687.4021,445970.18,446737.6227,447504.3738,448270.791,449020.4955,449787.075,450553.8106,454453.3136,440603.8098,441370.6311,442137.3046,442903.5849,443670.6554,444436.7656,445203.5201,453696.9314
Blocked,Female,done,20,F_priest.wav,space,653.6185811,3420,453687.4021,445970.18,446737.6227,447504.3738,448270.791,449020.4955,449787.075,450553.8106,454453.3136,455203.4542,441370.6311,442137.3046,442903.5849,443670.6554,444436.7656,445203.5201,454462.52
Blocked,Female,done,20,F_done.wav,None,733.473964,3420,453687.4021,445970.18,446737.6227,447504.3738,448270.791,449020.4955,449787.075,450553.8106,454453.3136,455203.4542,455969.915,442137.3046,442903.5849,443670.6554,444436.7656,445203.5201,455212.8759
Blocked,Female,done,20,F_reek.wav,None,732.9619797,3420,453687.4021,445970.18,446737.6227,447504.3738,448270.791,449020.4955,449787.075,450553.8106,454453.3136,455203.4542,455969.915,456736.9311,442903.5849,443670.6554,444436.7656,445203.5201,455978.8157
Blocked,Female,done,20,F_done.wav,space,265.7064274,3420,453687.4021,445970.18,446737.6227,447504.3738,448270.791,449020.4955,449787.075,450553.8106,454453.3136,455203.4542,455969.915,456736.9311,457503.6272,443670.6554,444436.7656,445203.5201,456746.3966
Blocked,Female,done,20,F_park.wav,space,370.8914467,3420,453687.4021,445970.18,446737.6227,447504.3738,448270.791,449020.4955,449787.075,450553.8106,454453.3136,455203.4542,455969.915,456736.9311,457503.6272,458269.572,444436.7656,445203.5201,457513.2216
Blocked,Female,done,20,F_depth.wav,None,728.002592,3420,453687.4021,445970.18,446737.6227,447504.3738,448270.791,449020.4955,449787.075,450553.8106,454453.3136,455203.4542,455969.915,456736.9311,457503.6272,458269.572,459036.3048,445203.5201,458278.3057
Blocked,Female,done,20,F_gnash.wav,space,222.8539926,3420,453687.4021,445970.18,446737.6227,447504.3738,448270.791,449020.4955,449787.075,450553.8106,454453.3136,455203.4542,455969.915,456736.9311,457503.6272,458269.572,459036.3048,459803.235,459045.1996
Blocked,Female,done,20,F_priest.wav,None,722.9377776,3420,453687.4021,460570.5741,446737.6227,447504.3738,448270.791,449020.4955,449787.075,450553.8106,454453.3136,455203.4542,455969.915,456736.9311,457503.6272,458269.572,459036.3048,459803.235,459812.2497
Blocked,Female,done,20,F_romp.wav,None,720.3478655,3420,453687.4021,460570.5741,461336.5415,447504.3738,448270.791,449020.4955,449787.075,450553.8106,454453.3136,455203.4542,455969.915,456736.9311,457503.6272,458269.572,459036.3048,459803.235,460580.2916
Blocked,Female,done,20,F_jolt.wav,None,720.2532589,3420,453687.4021,460570.5741,461336.5415,462086.2509,448270.791,449020.4955,449787.075,450553.8106,454453.3136,455203.4542,455969.915,456736.9311,457503.6272,458269.572,459036.3048,459803.235,461345.7504
Blocked,Female,done,20,F_done.wav,None,735.4575954,3420,453687.4021,460570.5741,461336.5415,462086.2509,462853.2972,449020.4955,449787.075,450553.8106,454453.3136,455203.4542,455969.915,456736.9311,457503.6272,458269.572,459036.3048,459803.235,462095.9081
Blocked,Female,done,20,F_cling.wav,space,356.9364641,3420,453687.4021,460570.5741,461336.5415,462086.2509,462853.2972,463620.0329,449787.075,450553.8106,454453.3136,455203.4542,455969.915,456736.9311,457503.6272,458269.572,459036.3048,459803.235,462862.9841
Blocked,Female,done,20,F_knife.wav,None,736.2768948,3420,453687.4021,460570.5741,461336.5415,462086.2509,462853.2972,463620.0329,464386.5252,450553.8106,454453.3136,455203.4542,455969.915,456736.9311,457503.6272,458269.572,459036.3048,459803.235,463624.0811
Blocked,Female,done,20,F_dime.wav,None,729.2989395,3420,453687.4021,460570.5741,461336.5415,462086.2509,462853.2972,463620.0329,464386.5252,465153.3904,454453.3136,455203.4542,455969.915,456736.9311,457503.6272,458269.572,459036.3048,459803.235,464396.4211
Blocked,Female,done,22,F_jaw.wav,space,345.2560417,3420,468286.7253,460570.5741,461336.5415,462086.2509,462853.2972,463620.0329,464386.5252,465153.3904,454453.3136,455203.4542,455969.915,456736.9311,457503.6272,458269.572,459036.3048,459803.235,465162.6142
Blocked,Female,done,22,F_depth.wav,None,719.8318611,3420,468286.7253,460570.5741,461336.5415,462086.2509,462853.2972,463620.0329,464386.5252,465153.3904,469053.5624,455203.4542,455969.915,456736.9311,457503.6272,458269.572,459036.3048,459803.235,468296.9981
Blocked,Female,done,22,F_priest.wav,None,719.0437885,3420,468286.7253,460570.5741,461336.5415,462086.2509,462853.2972,463620.0329,464386.5252,465153.3904,469053.5624,469802.9097,455969.915,456736.9311,457503.6272,458269.572,459036.3048,459803.235,469063.3454
Blocked,Female,done,22,F_done.wav,None,735.301774,3420,468286.7253,460570.5741,461336.5415,462086.2509,462853.2972,463620.0329,464386.5252,465153.3904,469053.5624,469802.9097,470569.8556,456736.9311,457503.6272,458269.572,459036.3048,459803.235,469812.301
Blocked,Female,done,22,F_romp.wav,None,733.5163206,3420,468286.7253,460570.5741,461336.5415,462086.2509,462853.2972,463620.0329,464386.5252,465153.3904,469053.5624,469802.9097,470569.8556,471336.3696,457503.6272,458269.572,459036.3048,459803.235,470579.4117
Blocked,Female,done,22,F_gnash.wav,space,217.6277922,3420,468286.7253,460570.5741,461336.5415,462086.2509,462853.2972,463620.0329,464386.5252,465153.3904,469053.5624,469802.9097,470569.8556,471336.3696,472103.1983,458269.572,459036.3048,459803.235,471346.0738
Blocked,Female,done,22,F_knife.wav,None,729.5645163,3420,468286.7253,460570.5741,461336.5415,462086.2509,462853.2972,463620.0329,464386.5252,465153.3904,469053.5624,469802.9097,470569.8556,471336.3696,472103.1983,472869.8072,459036.3048,459803.235,472112.329
Blocked,Female,done,22,F_done.wav,None,728.6496838,3420,468286.7253,460570.5741,461336.5415,462086.2509,462853.2972,463620.0329,464386.5252,465153.3904,469053.5624,469802.9097,470569.8556,471336.3696,472103.1983,472869.8072,473635.9001,459803.235,472879.1565
Blocked,Female,done,22,F_lash.wav,space,374.6024077,3420,468286.7253,460570.5741,461336.5415,462086.2509,462853.2972,463620.0329,464386.5252,465153.3904,469053.5624,469802.9097,470569.8556,471336.3696,472103.1983,472869.8072,473635.9001,474403.1205,473645.002
Blocked,Female,done,22,F_done.wav,None,725.0920706,3420,468286.7253,475169.8382,461336.5415,462086.2509,462853.2972,463620.0329,464386.5252,465153.3904,469053.5624,469802.9097,470569.8556,471336.3696,472103.1983,472869.8072,473635.9001,474403.1205,474412.2048
Blocked,Female,done,22,F_jaw.wav,space,335.99116,3420,468286.7253,475169.8382,475936.7013,462086.2509,462853.2972,463620.0329,464386.5252,465153.3904,469053.5624,469802.9097,470569.8556,471336.3696,472103.1983,472869.8072,473635.9001,474403.1205,475179.5839
Blocked,Female,done,22,F_done.wav,None,719.5786512,3420,468286.7253,475169.8382,475936.7013,476686.0316,462853.2972,463620.0329,464386.5252,465153.3904,469053.5624,469802.9097,470569.8556,471336.3696,472103.1983,472869.8072,473635.9001,474403.1205,475946.6976
Blocked,Female,done,22,F_gnash.wav,space,436.5414204,3420,468286.7253,475169.8382,475936.7013,476686.0316,477453.108,463620.0329,464386.5252,465153.3904,469053.5624,469802.9097,470569.8556,471336.3696,472103.1983,472869.8072,473635.9001,474403.1205,476694.9876
Blocked,Female,done,22,F_cad.wav,None,732.4945154,3420,468286.7253,475169.8382,475936.7013,476686.0316,477453.108,478219.6031,464386.5252,465153.3904,469053.5624,469802.9097,470569.8556,471336.3696,472103.1983,472869.8072,473635.9001,474403.1205,477462.661
Blocked,Female,done,22,F_lash.wav,None,731.1230395,3420,468286.7253,475169.8382,475936.7013,476686.0316,477453.108,478219.6031,478986.1096,465153.3904,469053.5624,469802.9097,470569.8556,471336.3696,472103.1983,472869.8072,473635.9001,474403.1205,478229.5076
Blocked,Female,done,22,F_park.wav,space,375.7803435,3420,468286.7253,475169.8382,475936.7013,476686.0316,477453.108,478219.6031,478986.1096,479752.9405,469053.5624,469802.9097,470569.8556,471336.3696,472103.1983,472869.8072,473635.9001,474403.1205,478995.6868
Blocked,Female,done,24,F_cad.wav,None,726.9705841,3420,482886.5215,475169.8382,475936.7013,476686.0316,477453.108,478219.6031,478986.1096,479752.9405,469053.5624,469802.9097,470569.8556,471336.3696,472103.1983,472869.8072,473635.9001,474403.1205,479762.4787
Blocked,Female,done,24,F_reek.wav,None,719.8946225,3420,482886.5215,475169.8382,475936.7013,476686.0316,477453.108,478219.6031,478986.1096,479752.9405,483653.1635,469802.9097,470569.8556,471336.3696,472103.1983,472869.8072,473635.9001,474403.1205,482896.478
Blocked,Female,done,24,F_done.wav,None,718.8861119,3420,482886.5215,475169.8382,475936.7013,476686.0316,477453.108,478219.6031,478986.1096,479752.9405,483653.1635,484402.5034,470569.8556,471336.3696,472103.1983,472869.8072,473635.9001,474403.1205,483663.0047
Blocked,Female,done,24,F_jolt.wav,space,527.3902514,3420,482886.5215,475169.8382,475936.7013,476686.0316,477453.108,478219.6031,478986.1096,479752.9405,483653.1635,484402.5034,485169.0335,471336.3696,472103.1983,472869.8072,473635.9001,474403.1205,484411.9108
Blocked,Female,done,24,F_bluff.wav,None,732.8958171,3420,482886.5215,475169.8382,475936.7013,476686.0316,477453.108,478219.6031,478986.1096,479752.9405,483653.1635,484402.5034,485169.0335,485936.0143,472103.1983,472869.8072,473635.9001,474403.1205,485178.2931
Blocked,Female,done,24,F_done.wav,None,731.5824651,3420,482886.5215,475169.8382,475936.7013,476686.0316,477453.108,478219.6031,478986.1096,479752.9405,483653.1635,484402.5034,485169.0335,485936.0143,486702.1557,472869.8072,473635.9001,474403.1205,485945.4582
Blocked,Female,done,24,F_cling.wav,space,556.1133316,3420,482886.5215,475169.8382,475936.7013,476686.0316,477453.108,478219.6031,478986.1096,479752.9405,483653.1635,484402.5034,485169.0335,485936.0143,486702.1557,487469.3672,473635.9001,474403.1205,486711.0567
Blocked,Female,done,24,F_done.wav,None,727.1727812,3420,482886.5215,475169.8382,475936.7013,476686.0316,477453.108,478219.6031,478986.1096,479752.9405,483653.1635,484402.5034,485169.0335,485936.0143,486702.1557,487469.3672,488235.8267,474403.1205,487478.6608
Blocked,Female,done,24,F_greet.wav,space,421.5136194,3420,482886.5215,475169.8382,475936.7013,476686.0316,477453.108,478219.6031,478986.1096,479752.9405,483653.1635,484402.5034,485169.0335,485936.0143,486702.1557,487469.3672,488235.8267,489002.4245,488245.6435
Blocked,Female,done,24,F_cad.wav,None,723.2889943,3420,482886.5215,489769.6653,475936.7013,476686.0316,477453.108,478219.6031,478986.1096,479752.9405,483653.1635,484402.5034,485169.0335,485936.0143,486702.1557,487469.3672,488235.8267,489002.4245,489011.4557
Blocked,Female,done,24,F_priest.wav,None,720.9034427,3420,482886.5215,489769.6653,490535.6074,476686.0316,477453.108,478219.6031,478986.1096,479752.9405,483653.1635,484402.5034,485169.0335,485936.0143,486702.1557,487469.3672,488235.8267,489002.4245,489779.3321
Blocked,Female,done,24,F_done.wav,None,721.3229854,3420,482886.5215,489769.6653,490535.6074,491302.9709,477453.108,478219.6031,478986.1096,479752.9405,483653.1635,484402.5034,485169.0335,485936.0143,486702.1557,487469.3672,488235.8267,489002.4245,490544.5442
Blocked,Female,done,24,F_reek.wav,space,338.1930655,3420,482886.5215,489769.6653,490535.6074,491302.9709,492052.3078,478219.6031,478986.1096,479752.9405,483653.1635,484402.5034,485169.0335,485936.0143,486702.1557,487469.3672,488235.8267,489002.4245,491312.8888
Blocked,Female,done,24,F_cad.wav,None,734.1241478,3420,482886.5215,489769.6653,490535.6074,491302.9709,492052.3078,492818.827,478986.1096,479752.9405,483653.1635,484402.5034,485169.0335,485936.0143,486702.1557,487469.3672,488235.8267,489002.4245,492061.5863
Blocked,Female,done,24,F_jaw.wav,None,733.47922,3420,482886.5215,489769.6653,490535.6074,491302.9709,492052.3078,492818.827,493585.5676,479752.9405,483653.1635,484402.5034,485169.0335,485936.0143,486702.1557,487469.3672,488235.8267,489002.4245,492827.7623
Blocked,Female,done,24,F_depth.wav,None,731.809705,3420,482886.5215,489769.6653,490535.6074,491302.9709,492052.3078,492818.827,493585.5676,494352.4745,483653.1635,484402.5034,485169.0335,485936.0143,486702.1557,487469.3672,488235.8267,489002.4245,493595.0532
Blocked,Female,tile,16,F_knife.wav,None,730.5031549,3420,497486.0299,489769.6653,490535.6074,491302.9709,492052.3078,492818.827,493585.5676,494352.4745,483653.1635,484402.5034,485169.0335,485936.0143,486702.1557,487469.3672,488235.8267,489002.4245,494361.9546
Blocked,Female,tile,16,F_dime.wav,None,720.4381428,3420,497486.0299,489769.6653,490535.6074,491302.9709,492052.3078,492818.827,493585.5676,494352.4745,498252.585,484402.5034,485169.0335,485936.0143,486702.1557,487469.3672,488235.8267,489002.4245,497495.6215
Blocked,Female,tile,16,F_knife.wav,None,718.7364739,3420,497486.0299,489769.6653,490535.6074,491302.9709,492052.3078,492818.827,493585.5676,494352.4745,498252.585,499002.3188,485169.0335,485936.0143,486702.1557,487469.3672,488235.8267,489002.4245,498262.9823
Blocked,Female,tile,16,F_tile.wav,None,735.7228627,3420,497486.0299,489769.6653,490535.6074,491302.9709,492052.3078,492818.827,493585.5676,494352.4745,498252.585,499002.3188,499768.9289,485936.0143,486702.1557,487469.3672,488235.8267,489002.4245,499011.686
Blocked,Female,tile,16,F_jaw.wav,b,664.0307908,3420,497486.0299,489769.6653,490535.6074,491302.9709,492052.3078,492818.827,493585.5676,494352.4745,498252.585,499002.3188,499768.9289,500535.6469,486702.1557,487469.3672,488235.8267,489002.4245,499778.7837
Blocked,Female,tile,16,F_jolt.wav,None,731.0370905,3420,497486.0299,489769.6653,490535.6074,491302.9709,492052.3078,492818.827,493585.5676,494352.4745,498252.585,499002.3188,499768.9289,500535.6469,501302.3285,487469.3672,488235.8267,489002.4245,500544.9959
Blocked,Female,tile,16,F_gnash.wav,None,730.1655416,3420,497486.0299,489769.6653,490535.6074,491302.9709,492052.3078,492818.827,493585.5676,494352.4745,498252.585,499002.3188,499768.9289,500535.6469,501302.3285,502068.9009,488235.8267,489002.4245,501311.7427
Blocked,Female,tile,16,F_lash.wav,None,730.3470243,3420,497486.0299,489769.6653,490535.6074,491302.9709,492052.3078,492818.827,493585.5676,494352.4745,498252.585,499002.3188,499768.9289,500535.6469,501302.3285,502068.9009,502835.4903,489002.4245,502078.2316
Blocked,Female,tile,16,F_tile.wav,None,728.675345,3420,497486.0299,489769.6653,490535.6074,491302.9709,492052.3078,492818.827,493585.5676,494352.4745,498252.585,499002.3188,499768.9289,500535.6469,501302.3285,502068.9009,502835.4903,503602.1938,502845.1352
Blocked,Female,tile,16,F_romp.wav,space,684.6143669,3420,497486.0299,504369.2522,490535.6074,491302.9709,492052.3078,492818.827,493585.5676,494352.4745,498252.585,499002.3188,499768.9289,500535.6469,501302.3285,502068.9009,502835.4903,503602.1938,503606.081
Blocked,Female,tile,16,F_cling.wav,None,723.4915006,3420,497486.0299,504369.2522,505135.2975,491302.9709,492052.3078,492818.827,493585.5676,494352.4745,498252.585,499002.3188,499768.9289,500535.6469,501302.3285,502068.9009,502835.4903,503602.1938,504379.1308
Blocked,Female,tile,16,F_tile.wav,None,724.1358096,3420,497486.0299,504369.2522,505135.2975,505902.4638,492052.3078,492818.827,493585.5676,494352.4745,498252.585,499002.3188,499768.9289,500535.6469,501302.3285,502068.9009,502835.4903,503602.1938,505144.1976
Blocked,Female,tile,16,F_greet.wav,space,378.3313008,3420,497486.0299,504369.2522,505135.2975,505902.4638,506669.0362,492818.827,493585.5676,494352.4745,498252.585,499002.3188,499768.9289,500535.6469,501302.3285,502068.9009,502835.4903,503602.1938,505912.3121
Blocked,Female,tile,16,F_depth.wav,None,718.9773167,3420,497486.0299,504369.2522,505135.2975,505902.4638,506669.0362,507418.4661,493585.5676,494352.4745,498252.585,499002.3188,499768.9289,500535.6469,501302.3285,502068.9009,502835.4903,503602.1938,506678.4576
Blocked,Female,tile,16,F_tile.wav,None,735.4325531,3420,497486.0299,504369.2522,505135.2975,505902.4638,506669.0362,507418.4661,508185.0964,494352.4745,498252.585,499002.3188,499768.9289,500535.6469,501302.3285,502068.9009,502835.4903,503602.1938,507427.7153
Blocked,Female,tile,16,F_cling.wav,space,559.8360412,3420,497486.0299,504369.2522,505135.2975,505902.4638,506669.0362,507418.4661,508185.0964,508951.9943,498252.585,499002.3188,499768.9289,500535.6469,501302.3285,502068.9009,502835.4903,503602.1938,508194.7313
Blocked,Female,ball,6,F_lash.wav,None,731.1728159,3420,512085.6607,504369.2522,505135.2975,505902.4638,506669.0362,507418.4661,508185.0964,508951.9943,498252.585,499002.3188,499768.9289,500535.6469,501302.3285,502068.9009,502835.4903,503602.1938,508961.1652
Blocked,Female,ball,6,F_cling.wav,None,721.6921342,3420,512085.6607,504369.2522,505135.2975,505902.4638,506669.0362,507418.4661,508185.0964,508951.9943,512851.6605,499002.3188,499768.9289,500535.6469,501302.3285,502068.9009,502835.4903,503602.1938,512095.6255
Blocked,Female,ball,6,F_ball.wav,None,722.592745,3420,512085.6607,504369.2522,505135.2975,505902.4638,506669.0362,507418.4661,508185.0964,508951.9943,512851.6605,513619.0763,499768.9289,500535.6469,501302.3285,502068.9009,502835.4903,503602.1938,512860.55
Blocked,Female,ball,6,F_reek.wav,space,530.548417,3420,512085.6607,504369.2522,505135.2975,505902.4638,506669.0362,507418.4661,508185.0964,508951.9943,512851.6605,513619.0763,514368.0152,500535.6469,501302.3285,502068.9009,502835.4903,503602.1938,513623.8533
Blocked,Female,ball,6,F_ball.wav,None,735.5024251,3420,512085.6607,504369.2522,505135.2975,505902.4638,506669.0362,507418.4661,508185.0964,508951.9943,512851.6605,513619.0763,514368.0152,515134.946,501302.3285,502068.9009,502835.4903,503602.1938,514376.9793
Blocked,Female,ball,6,F_reek.wav,space,362.1472069,3420,512085.6607,504369.2522,505135.2975,505902.4638,506669.0362,507418.4661,508185.0964,508951.9943,512851.6605,513619.0763,514368.0152,515134.946,515901.3889,502068.9009,502835.4903,503602.1938,515144.2075
Blocked,Female,ball,6,F_ball.wav,None,731.3660472,3420,512085.6607,504369.2522,505135.2975,505902.4638,506669.0362,507418.4661,508185.0964,508951.9943,512851.6605,513619.0763,514368.0152,515134.946,515901.3889,516668.3941,502835.4903,503602.1938,515910.467
Blocked,Female,ball,6,F_jolt.wav,space,220.4233026,3420,512085.6607,504369.2522,505135.2975,505902.4638,506669.0362,507418.4661,508185.0964,508951.9943,512851.6605,513619.0763,514368.0152,515134.946,515901.3889,516668.3941,517435.0874,503602.1938,516677.8674
Blocked,Female,ball,6,F_cling.wav,None,726.9232813,3420,512085.6607,504369.2522,505135.2975,505902.4638,506669.0362,507418.4661,508185.0964,508951.9943,512851.6605,513619.0763,514368.0152,515134.946,515901.3889,516668.3941,517435.0874,518201.7665,517444.5183
Blocked,Female,ball,6,F_ball.wav,space,686.7624763,3420,512085.6607,518968.7223,505135.2975,505902.4638,506669.0362,507418.4661,508185.0964,508951.9943,512851.6605,513619.0763,514368.0152,515134.946,515901.3889,516668.3941,517435.0874,518201.7665,518211.4926
Blocked,Female,ball,6,F_greet.wav,None,722.3361344,3420,512085.6607,518968.7223,519734.7703,505902.4638,506669.0362,507418.4661,508185.0964,508951.9943,512851.6605,513619.0763,514368.0152,515134.946,515901.3889,516668.3941,517435.0874,518201.7665,518978.7696
Blocked,Female,ball,6,F_priest.wav,None,723.0976182,3420,512085.6607,518968.7223,519734.7703,520501.9623,506669.0362,507418.4661,508185.0964,508951.9943,512851.6605,513619.0763,514368.0152,515134.946,515901.3889,516668.3941,517435.0874,518201.7665,519743.8682
Blocked,Female,ball,6,F_jaw.wav,None,720.7556595,3420,512085.6607,518968.7223,519734.7703,520501.9623,521268.7589,507418.4661,508185.0964,508951.9943,512851.6605,513619.0763,514368.0152,515134.946,515901.3889,516668.3941,517435.0874,518201.7665,520511.9228
Blocked,Female,ball,6,F_depth.wav,None,719.9651133,3420,512085.6607,518968.7223,519734.7703,520501.9623,521268.7589,522034.8483,508185.0964,508951.9943,512851.6605,513619.0763,514368.0152,515134.946,515901.3889,516668.3941,517435.0874,518201.7665,521278.3978
Blocked,Female,ball,6,F_priest.wav,None,724.0056493,3420,512085.6607,518968.7223,519734.7703,520501.9623,521268.7589,522034.8483,522801.315,508951.9943,512851.6605,513619.0763,514368.0152,515134.946,515901.3889,516668.3941,517435.0874,518201.7665,522043.7388
Blocked,Female,ball,6,F_cling.wav,None,723.4664573,3420,512085.6607,518968.7223,519734.7703,520501.9623,521268.7589,522034.8483,522801.315,523568.6486,512851.6605,513619.0763,514368.0152,515134.946,515901.3889,516668.3941,517435.0874,518201.7665,522810.1925
Blocked,Female,tile,17,F_cling.wav,None,720.276447,3420,526685.1344,518968.7223,519734.7703,520501.9623,521268.7589,522034.8483,522801.315,523568.6486,512851.6605,513619.0763,514368.0152,515134.946,515901.3889,516668.3941,517435.0874,518201.7665,523579.046
Blocked,Female,tile,17,F_park.wav,None,720.3172576,3420,526685.1344,518968.7223,519734.7703,520501.9623,521268.7589,522034.8483,522801.315,523568.6486,527451.8094,513619.0763,514368.0152,515134.946,515901.3889,516668.3941,517435.0874,518201.7665,526694.8386
Blocked,Female,tile,17,F_park.wav,None,719.4707515,3420,526685.1344,518968.7223,519734.7703,520501.9623,521268.7589,522034.8483,522801.315,523568.6486,527451.8094,528218.4372,514368.0152,515134.946,515901.3889,516668.3941,517435.0874,518201.7665,527461.5944
Blocked,Female,tile,17,F_tile.wav,None,718.8573591,3420,526685.1344,518968.7223,519734.7703,520501.9623,521268.7589,522034.8483,522801.315,523568.6486,527451.8094,528218.4372,528967.8473,515134.946,515901.3889,516668.3941,517435.0874,518201.7665,528228.1856
Blocked,Female,tile,17,F_romp.wav,space,400.6097438,3420,526685.1344,518968.7223,519734.7703,520501.9623,521268.7589,522034.8483,522801.315,523568.6486,527451.8094,528218.4372,528967.8473,529734.3832,515901.3889,516668.3941,517435.0874,518201.7665,528977.3484
Blocked,Female,tile,17,F_tile.wav,None,732.9468303,3420,526685.1344,518968.7223,519734.7703,520501.9623,521268.7589,522034.8483,522801.315,523568.6486,527451.8094,528218.4372,528967.8473,529734.3832,530501.3749,516668.3941,517435.0874,518201.7665,529743.5724
Blocked,Female,tile,17,F_cad.wav,space,459.3284465,3420,526685.1344,518968.7223,519734.7703,520501.9623,521268.7589,522034.8483,522801.315,523568.6486,527451.8094,528218.4372,528967.8473,529734.3832,530501.3749,531267.977,517435.0874,518201.7665,530510.5671
Blocked,Female,tile,17,F_reek.wav,None,729.403439,3420,526685.1344,518968.7223,519734.7703,520501.9623,521268.7589,522034.8483,522801.315,523568.6486,527451.8094,528218.4372,528967.8473,529734.3832,530501.3749,531267.977,532034.5593,518201.7665,531277.3819
Blocked,Female,tile,17,F_greet.wav,None,728.6394811,3420,526685.1344,518968.7223,519734.7703,520501.9623,521268.7589,522034.8483,522801.315,523568.6486,527451.8094,528218.4372,528967.8473,529734.3832,530501.3749,531267.977,532034.5593,532801.3942,532044.0635
Blocked,Female,tile,17,F_cad.wav,None,727.6362265,3420,526685.1344,533567.5742,519734.7703,520501.9623,521268.7589,522034.8483,522801.315,523568.6486,527451.8094,528218.4372,528967.8473,529734.3832,530501.3749,531267.977,532034.5593,532801.3942,532810.7363
Blocked,Female,tile,17,F_knife.wav,None,727.9568352,3420,526685.1344,533567.5742,534334.2852,520501.9623,521268.7589,522034.8483,522801.315,523568.6486,527451.8094,528218.4372,528967.8473,529734.3832,530501.3749,531267.977,532034.5593,532801.3942,533576.2938
Blocked,Female,tile,17,F_tile.wav,None,726.7550933,3420,526685.1344,533567.5742,534334.2852,535101.2635,521268.7589,522034.8483,522801.315,523568.6486,527451.8094,528218.4372,528967.8473,529734.3832,530501.3749,531267.977,532034.5593,532801.3942,534343.3123
Blocked,Female,tile,17,F_dime.wav,space,627.3982278,3420,526685.1344,533567.5742,534334.2852,535101.2635,535868.3201,522034.8483,522801.315,523568.6486,527451.8094,528218.4372,528967.8473,529734.3832,530501.3749,531267.977,532034.5593,532801.3942,535110.3457
Blocked,Female,tile,17,F_cling.wav,None,722.0179983,3420,526685.1344,533567.5742,534334.2852,535101.2635,535868.3201,536634.9942,522801.315,523568.6486,527451.8094,528218.4372,528967.8473,529734.3832,530501.3749,531267.977,532034.5593,532801.3942,535878.1167
Blocked,Female,tile,17,F_tile.wav,None,721.1272814,3420,526685.1344,533567.5742,534334.2852,535101.2635,535868.3201,536634.9942,537400.7986,523568.6486,527451.8094,528218.4372,528967.8473,529734.3832,530501.3749,531267.977,532034.5593,532801.3942,536644.9405
Blocked,Female,tile,17,F_reek.wav,space,615.9224752,3420,526685.1344,533567.5742,534334.2852,535101.2635,535868.3201,536634.9942,537400.7986,538150.8305,527451.8094,528218.4372,528967.8473,529734.3832,530501.3749,531267.977,532034.5593,532801.3942,537409.7556
Blocked,Male,ball,3,M_priest.wav,None,735.0380528,3420,602699.1704,533567.5742,534334.2852,535101.2635,535868.3201,536634.9942,537400.7986,538150.8305,527451.8094,528218.4372,528967.8473,529734.3832,530501.3749,531267.977,532034.5593,532801.3942,538160.7304
Blocked,Male,ball,3,M_park.wav,None,725.6167312,3420,602699.1704,533567.5742,534334.2852,535101.2635,535868.3201,536634.9942,537400.7986,538150.8305,603465.8396,528218.4372,528967.8473,529734.3832,530501.3749,531267.977,532034.5593,532801.3942,602708.1449
Blocked,Male,ball,3,M_gnash.wav,None,726.8271297,3420,602699.1704,533567.5742,534334.2852,535101.2635,535868.3201,536634.9942,537400.7986,538150.8305,603465.8396,604232.842,528967.8473,529734.3832,530501.3749,531267.977,532034.5593,532801.3942,603475.801
Blocked,Male,ball,3,M_priest.wav,None,729.308215,3420,602699.1704,533567.5742,534334.2852,535101.2635,535868.3201,536634.9942,537400.7986,538150.8305,603465.8396,604232.842,604999.1955,529734.3832,530501.3749,531267.977,532034.5593,532801.3942,604242.2569
Blocked,Male,ball,3,M_cling.wav,None,728.9146422,3420,602699.1704,533567.5742,534334.2852,535101.2635,535868.3201,536634.9942,537400.7986,538150.8305,603465.8396,604232.842,604999.1955,605765.8103,530501.3749,531267.977,532034.5593,532801.3942,605008.5445
