"Condition","Talker","Target","Trial","current_stimulus","response_response","response_time_response","subject_nr","time_Audio1","time_Audio10","time_Audio11","time_Audio12","time_Audio13","time_Audio14","time_Audio15","time_Audio16","time_Audio2","time_Audio3","time_Audio4","time_Audio5","time_Audio6","time_Audio7","time_Audio8","time_Audio9","time_response","title"
"Mixed","Female","done","45","M_jolt.wav","NA","NA","235","172791.535332","NA","NA","NA","NA","NA","NA","NA","NA","NA","NA","NA","NA","NA","NA","NA","NA","Mapping"
"Mixed","Female","done","45","F_done.wav","None","714.065185515","235","172791.535332","NA","NA","NA","NA","NA","NA","NA","173541.259009","NA","NA","NA","NA","NA","NA","NA","172807.388807","Mapping"
"Mixed","Female","done","45","M_greet.wav","space","555.162218516","235","172791.535332","NA","NA","NA","NA","NA","NA","NA","173541.259009","174307.647739","NA","NA","NA","NA","NA","NA","173551.197691","Mapping"
"Mixed","Female","done","45","F_gnash.wav","None","732.266211649","235","172791.535332","NA","NA","NA","NA","NA","NA","NA","173541.259009","174307.647739","175074.526509","NA","NA","NA","NA","NA","174317.234273","Mapping"
"Mixed","Female","done","45","F_ball.wav","None","729.073689319","235","172791.535332","NA","NA","NA","NA","NA","NA","NA","173541.259009","174307.647739","175074.526509","175840.834854","NA","NA","NA","NA","175084.550832","Mapping"
"Mixed","Female","done","45","F_done.wav","None","727.338300087","235","172791.535332","NA","NA","NA","NA","NA","NA","NA","173541.259009","174307.647739","175074.526509","175840.834854","176607.705276","NA","NA","NA","175850.328326","Mapping"
"Mixed","Female","done","45","M_jaw.wav","space","385.099954088","235","172791.535332","NA","NA","NA","NA","NA","NA","NA","173541.259009","174307.647739","175074.526509","175840.834854","176607.705276","177374.325268","NA","NA","176617.170614","Mapping"
"Mixed","Female","done","45","F_jaw.wav","None","721.714748768","235","172791.535332","NA","NA","NA","NA","NA","NA","NA","173541.259009","174307.647739","175074.526509","175840.834854","176607.705276","177374.325268","178124.435102","NA","177384.045674","Mapping"
"Mixed","Female","done","45","M_park.wav","None","735.787076177","235","172791.535332","NA","NA","NA","NA","NA","NA","NA","173541.259009","174307.647739","175074.526509","175840.834854","176607.705276","177374.325268","178124.435102","178891.113527","178134.157671","Mapping"
"Mixed","Female","done","45","F_done.wav","None","733.058622573","235","172791.535332","179658.183985","NA","NA","NA","NA","NA","NA","173541.259009","174307.647739","175074.526509","175840.834854","176607.705276","177374.325268","178124.435102","178891.113527","178901.026857","Mapping"
"Mixed","Female","done","45","M_reek.wav","space","406.664784881","235","172791.535332","179658.183985","180424.723901","NA","NA","NA","NA","NA","173541.259009","174307.647739","175074.526509","175840.834854","176607.705276","177374.325268","178124.435102","178891.113527","179667.596453","Mapping"
"Mixed","Female","done","45","F_bluff.wav","None","726.768494002","235","172791.535332","179658.183985","180424.723901","181191.142621","NA","NA","NA","NA","173541.259009","174307.647739","175074.526509","175840.834854","176607.705276","177374.325268","178124.435102","178891.113527","180434.840048","Mapping"
"Mixed","Female","done","45","F_done.wav","None","725.701846299","235","172791.535332","179658.183985","180424.723901","181191.142621","181958.538946","NA","NA","NA","173541.259009","174307.647739","175074.526509","175840.834854","176607.705276","177374.325268","178124.435102","178891.113527","181200.146981","Mapping"
"Mixed","Female","done","45","M_jolt.wav","space","473.358081537","235","172791.535332","179658.183985","180424.723901","181191.142621","181958.538946","182725.174397","NA","NA","173541.259009","174307.647739","175074.526509","175840.834854","176607.705276","177374.325268","178124.435102","178891.113527","181968.82112","Mapping"
"Mixed","Female","done","45","M_dime.wav","None","718.845312251","235","172791.535332","179658.183985","180424.723901","181191.142621","181958.538946","182725.174397","183474.74225","NA","173541.259009","174307.647739","175074.526509","175840.834854","176607.705276","177374.325268","178124.435102","178891.113527","182735.212323","Mapping"
"Mixed","Female","done","45","M_greet.wav","None","733.569685952","235","172791.535332","179658.183985","180424.723901","181191.142621","181958.538946","182725.174397","183474.74225","184241.156951","173541.259009","174307.647739","175074.526509","175840.834854","176607.705276","177374.325268","178124.435102","178891.113527","183484.720197","Mapping"
"Mixed","Female","ball","12","M_cling.wav","None","731.430207379","235","187391.631238","179658.183985","180424.723901","181191.142621","181958.538946","182725.174397","183474.74225","184241.156951","173541.259009","174307.647739","175074.526509","175840.834854","176607.705276","177374.325268","178124.435102","178891.113527","184251.042455","Mapping"
"Mixed","Female","ball","12","F_lash.wav","None","720.750128385","235","187391.631238","179658.183985","180424.723901","181191.142621","181958.538946","182725.174397","183474.74225","184241.156951","188158.398705","174307.647739","175074.526509","175840.834854","176607.705276","177374.325268","178124.435102","178891.113527","187401.425227","Mapping"
"Mixed","Female","ball","12","M_depth.wav","None","718.398557045","235","187391.631238","179658.183985","180424.723901","181191.142621","181958.538946","182725.174397","183474.74225","184241.156951","188158.398705","188907.771161","175074.526509","175840.834854","176607.705276","177374.325268","178124.435102","178891.113527","188168.817533","Mapping"
"Mixed","Female","ball","12","F_ball.wav","None","734.676216845","235","187391.631238","179658.183985","180424.723901","181191.142621","181958.538946","182725.174397","183474.74225","184241.156951","188158.398705","188907.771161","189675.004553","175840.834854","176607.705276","177374.325268","178124.435102","178891.113527","188916.771811","Mapping"
"Mixed","Female","ball","12","F_lash.wav","space","413.891089964","235","187391.631238","179658.183985","180424.723901","181191.142621","181958.538946","182725.174397","183474.74225","184241.156951","188158.398705","188907.771161","189675.004553","190440.980846","176607.705276","177374.325268","178124.435102","178891.113527","189684.133819","Mapping"
"Mixed","Female","ball","12","M_romp.wav","None","729.594955337","235","187391.631238","179658.183985","180424.723901","181191.142621","181958.538946","182725.174397","183474.74225","184241.156951","188158.398705","188907.771161","189675.004553","190440.980846","191207.963189","177374.325268","178124.435102","178891.113527","190450.403517","Mapping"
"Mixed","Female","ball","12","M_dime.wav","None","727.115695365","235","187391.631238","179658.183985","180424.723901","181191.142621","181958.538946","182725.174397","183474.74225","184241.156951","188158.398705","188907.771161","189675.004553","190440.980846","191207.963189","191974.629556","178124.435102","178891.113527","191217.098638","Mapping"
"Mixed","Female","ball","12","F_ball.wav","None","725.2826076","235","187391.631238","179658.183985","180424.723901","181191.142621","181958.538946","182725.174397","183474.74225","184241.156951","188158.398705","188907.771161","189675.004553","190440.980846","191207.963189","191974.629556","192741.6827","178891.113527","191984.699946","Mapping"
"Mixed","Female","ball","12","M_done.wav","space","402.147764456","235","187391.631238","179658.183985","180424.723901","181191.142621","181958.538946","182725.174397","183474.74225","184241.156951","188158.398705","188907.771161","189675.004553","190440.980846","191207.963189","191974.629556","192741.6827","193508.285996","192751.865937","Mapping"
"Mixed","Female","ball","12","F_priest.wav","None","720.002238406","235","187391.631238","194257.737291","180424.723901","181191.142621","181958.538946","182725.174397","183474.74225","184241.156951","188158.398705","188907.771161","189675.004553","190440.980846","191207.963189","191974.629556","192741.6827","193508.285996","193518.22004","Mapping"
"Mixed","Female","ball","12","F_ball.wav","None","735.292398953","235","187391.631238","194257.737291","195024.347699","181191.142621","181958.538946","182725.174397","183474.74225","184241.156951","188158.398705","188907.771161","189675.004553","190440.980846","191207.963189","191974.629556","192741.6827","193508.285996","194267.132446","Mapping"
"Mixed","Female","ball","12","M_cad.wav","space","528.225503513","235","187391.631238","194257.737291","195024.347699","195791.26697","181958.538946","182725.174397","183474.74225","184241.156951","188158.398705","188907.771161","189675.004553","190440.980846","191207.963189","191974.629556","192741.6827","193508.285996","195033.728323","Mapping"
"Mixed","Female","ball","12","M_lash.wav","None","729.893925716","235","187391.631238","194257.737291","195024.347699","195791.26697","196557.624474","182725.174397","183474.74225","184241.156951","188158.398705","188907.771161","189675.004553","190440.980846","191207.963189","191974.629556","192741.6827","193508.285996","195800.824132","Mapping"
"Mixed","Female","ball","12","F_ball.wav","None","728.167811874","235","187391.631238","194257.737291","195024.347699","195791.26697","196557.624474","197324.543436","183474.74225","184241.156951","188158.398705","188907.771161","189675.004553","190440.980846","191207.963189","191974.629556","192741.6827","193508.285996","196566.844019","Mapping"
"Mixed","Female","ball","12","M_dime.wav","space","395.957807777","235","187391.631238","194257.737291","195024.347699","195791.26697","196557.624474","197324.543436","198091.387579","184241.156951","188158.398705","188907.771161","189675.004553","190440.980846","191207.963189","191974.629556","192741.6827","193508.285996","197333.95776","Mapping"
"Mixed","Female","ball","12","F_romp.wav","None","721.563253901","235","187391.631238","194257.737291","195024.347699","195791.26697","196557.624474","197324.543436","198091.387579","198858.375796","188158.398705","188907.771161","189675.004553","190440.980846","191207.963189","191974.629556","192741.6827","193508.285996","198101.837633","Mapping"
"Mixed","Male","tile","27","F_jolt.wav","None","718.482961296","235","201974.790326","194257.737291","195024.347699","195791.26697","196557.624474","197324.543436","198091.387579","198858.375796","188158.398705","188907.771161","189675.004553","190440.980846","191207.963189","191974.629556","192741.6827","193508.285996","198869.351135","Mapping"
"Mixed","Male","tile","27","M_tile.wav","None","720.347584924","235","201974.790326","194257.737291","195024.347699","195791.26697","196557.624474","197324.543436","198091.387579","198858.375796","202723.801668","188907.771161","189675.004553","190440.980846","191207.963189","191974.629556","192741.6827","193508.285996","201984.570093","Mapping"
"Mixed","Male","tile","27","F_ball.wav","space","500.872950535","235","201974.790326","194257.737291","195024.347699","195791.26697","196557.624474","197324.543436","198091.387579","198858.375796","202723.801668","203491.498201","189675.004553","190440.980846","191207.963189","191974.629556","192741.6827","193508.285996","202732.952576","Mapping"
"Mixed","Male","tile","27","M_reek.wav","None","731.964767794","235","201974.790326","194257.737291","195024.347699","195791.26697","196557.624474","197324.543436","198091.387579","198858.375796","202723.801668","203491.498201","204257.758315","190440.980846","191207.963189","191974.629556","192741.6827","193508.285996","203501.45265","Mapping"
"Mixed","Male","tile","27","F_reek.wav","None","730.263387668","235","201974.790326","194257.737291","195024.347699","195791.26697","196557.624474","197324.543436","198091.387579","198858.375796","202723.801668","203491.498201","204257.758315","205024.211044","191207.963189","191974.629556","192741.6827","193508.285996","204267.645365","Mapping"
"Mixed","Male","tile","27","F_cling.wav","None","728.397836676","235","201974.790326","194257.737291","195024.347699","195791.26697","196557.624474","197324.543436","198091.387579","198858.375796","202723.801668","203491.498201","204257.758315","205024.211044","205791.000772","191974.629556","192741.6827","193508.285996","205034.182189","Mapping"
"Mixed","Male","tile","27","M_knife.wav","None","726.368732983","235","201974.790326","194257.737291","195024.347699","195791.26697","196557.624474","197324.543436","198091.387579","198858.375796","202723.801668","203491.498201","204257.758315","205024.211044","205791.000772","206557.727429","192741.6827","193508.285996","205800.813002","Mapping"
"Mixed","Male","tile","27","M_tile.wav","None","724.1544344","235","201974.790326","194257.737291","195024.347699","195791.26697","196557.624474","197324.543436","198091.387579","198858.375796","202723.801668","203491.498201","204257.758315","205024.211044","205791.000772","206557.727429","207324.655048","193508.285996","206567.665183","Mapping"
"Mixed","Male","tile","27","F_cad.wav","space","498.896406265","235","201974.790326","194257.737291","195024.347699","195791.26697","196557.624474","197324.543436","198091.387579","198858.375796","202723.801668","203491.498201","204257.758315","205024.211044","205791.000772","206557.727429","207324.655048","208090.963393","207334.815716","Mapping"
"Mixed","Male","tile","27","M_bluff.wav","None","720.006257645","235","201974.790326","208840.829907","195024.347699","195791.26697","196557.624474","197324.543436","198091.387579","198858.375796","202723.801668","203491.498201","204257.758315","205024.211044","205791.000772","206557.727429","207324.655048","208090.963393","208100.398432","Mapping"
"Mixed","Male","tile","27","M_tile.wav","None","735.81273749","235","201974.790326","208840.829907","209607.56553","195791.26697","196557.624474","197324.543436","198091.387579","198858.375796","202723.801668","203491.498201","204257.758315","205024.211044","205791.000772","206557.727429","207324.655048","208090.963393","208850.600399","Mapping"
"Mixed","Male","tile","27","M_cave.wav","space","552.417997271","235","201974.790326","208840.829907","209607.56553","210374.271781","196557.624474","197324.543436","198091.387579","198858.375796","202723.801668","203491.498201","204257.758315","205024.211044","205791.000772","206557.727429","207324.655048","208090.963393","209617.257491","Mapping"
"Mixed","Male","tile","27","F_dime.wav","None","730.71292555","235","201974.790326","208840.829907","209607.56553","210374.271781","211140.97525","197324.543436","198091.387579","198858.375796","202723.801668","203491.498201","204257.758315","205024.211044","205791.000772","206557.727429","207324.655048","208090.963393","210384.354538","Mapping"
"Mixed","Male","tile","27","M_tile.wav","None","729.394610971","235","201974.790326","208840.829907","209607.56553","210374.271781","211140.97525","211907.649347","198091.387579","198858.375796","202723.801668","203491.498201","204257.758315","205024.211044","205791.000772","206557.727429","207324.655048","208090.963393","211150.598575","Mapping"
"Mixed","Male","tile","27","F_bluff.wav","space","563.524116878","235","201974.790326","208840.829907","209607.56553","210374.271781","211140.97525","211907.649347","212674.28016","198858.375796","202723.801668","203491.498201","204257.758315","205024.211044","205791.000772","206557.727429","207324.655048","208090.963393","211918.147941","Mapping"
"Mixed","Male","tile","27","F_cad.wav","None","724.714965443","235","201974.790326","208840.829907","209607.56553","210374.271781","211140.97525","211907.649347","212674.28016","213441.251372","202723.801668","203491.498201","204257.758315","205024.211044","205791.000772","206557.727429","207324.655048","208090.963393","212684.054671","Mapping"
"Mixed","Female","tile","31","M_bluff.wav","None","721.808737493","235","216557.933956","208840.829907","209607.56553","210374.271781","211140.97525","211907.649347","212674.28016","213441.251372","202723.801668","203491.498201","204257.758315","205024.211044","205791.000772","206557.727429","207324.655048","208090.963393","213451.632172","Mapping"
"Mixed","Female","tile","31","F_tile.wav","None","720.803924487","235","216557.933956","208840.829907","209607.56553","210374.271781","211140.97525","211907.649347","212674.28016","213441.251372","217324.209529","203491.498201","204257.758315","205024.211044","205791.000772","206557.727429","207324.655048","208090.963393","216567.945603","Mapping"
"Mixed","Female","tile","31","M_priest.wav","space","491.547668469","235","216557.933956","208840.829907","209607.56553","210374.271781","211140.97525","211907.649347","212674.28016","213441.251372","217324.209529","218074.148699","204257.758315","205024.211044","205791.000772","206557.727429","207324.655048","208090.963393","217334.03258","Mapping"
"Mixed","Female","tile","31","F_done.wav","None","733.5400054","235","216557.933956","208840.829907","209607.56553","210374.271781","211140.97525","211907.649347","212674.28016","213441.251372","217324.209529","218074.148699","218840.69789","205024.211044","205791.000772","206557.727429","207324.655048","208090.963393","218083.733068","Mapping"
"Mixed","Female","tile","31","F_jaw.wav","None","736.623698846","235","216557.933956","208840.829907","209607.56553","210374.271781","211140.97525","211907.649347","212674.28016","213441.251372","217324.209529","218074.148699","218840.69789","219607.455774","205791.000772","206557.727429","207324.655048","208090.963393","218845.211819","Mapping"
"Mixed","Female","tile","31","M_greet.wav","None","729.434494395","235","216557.933956","208840.829907","209607.56553","210374.271781","211140.97525","211907.649347","212674.28016","213441.251372","217324.209529","218074.148699","218840.69789","219607.455774","220373.86831","206557.727429","207324.655048","208090.963393","219616.859276","Mapping"
"Mixed","Female","tile","31","F_tile.wav","None","727.283885586","235","216557.933956","208840.829907","209607.56553","210374.271781","211140.97525","211907.649347","212674.28016","213441.251372","217324.209529","218074.148699","218840.69789","219607.455774","220373.86831","221140.76192","207324.655048","208090.963393","220383.584078","Mapping"
"Mixed","Female","tile","31","M_jaw.wav","space","418.3676088","235","216557.933956","208840.829907","209607.56553","210374.271781","211140.97525","211907.649347","212674.28016","213441.251372","217324.209529","218074.148699","218840.69789","219607.455774","220373.86831","221140.76192","221907.796513","208090.963393","221151.096962","Mapping"
"Mixed","Female","tile","31","M_depth.wav","None","721.532954951","235","216557.933956","208840.829907","209607.56553","210374.271781","211140.97525","211907.649347","212674.28016","213441.251372","217324.209529","218074.148699","218840.69789","219607.455774","220373.86831","221140.76192","221907.796513","222674.495344","221918.459588","Mapping"
"Mixed","Female","tile","31","F_ball.wav","None","720.238755923","235","216557.933956","223424.349801","209607.56553","210374.271781","211140.97525","211907.649347","212674.28016","213441.251372","217324.209529","218074.148699","218840.69789","219607.455774","220373.86831","221140.76192","221907.796513","222674.495344","222684.61953","Mapping"
"Mixed","Female","tile","31","F_tile.wav","None","735.619195155","235","216557.933956","223424.349801","224190.511598","210374.271781","211140.97525","211907.649347","212674.28016","213441.251372","217324.209529","218074.148699","218840.69789","219607.455774","220373.86831","221140.76192","221907.796513","222674.495344","223433.813283","Mapping"
"Mixed","Female","tile","31","M_priest.wav","space","417.003536597","235","216557.933956","223424.349801","224190.511598","224957.121078","211140.97525","211907.649347","212674.28016","213441.251372","217324.209529","218074.148699","218840.69789","219607.455774","220373.86831","221140.76192","221907.796513","222674.495344","224200.451207","Mapping"
"Mixed","Female","tile","31","F_priest.wav","None","724.930150085","235","216557.933956","223424.349801","224190.511598","224957.121078","225723.780644","211907.649347","212674.28016","213441.251372","217324.209529","218074.148699","218840.69789","219607.455774","220373.86831","221140.76192","221907.796513","222674.495344","224973.153873","Mapping"
"Mixed","Female","tile","31","M_priest.wav","None","730.041092262","235","216557.933956","223424.349801","224190.511598","224957.121078","225723.780644","226490.297063","212674.28016","213441.251372","217324.209529","218074.148699","218840.69789","219607.455774","220373.86831","221140.76192","221907.796513","222674.495344","225733.085211","Mapping"
"Mixed","Female","tile","31","F_tile.wav","None","727.258224273","235","216557.933956","223424.349801","224190.511598","224957.121078","225723.780644","226490.297063","227257.323308","213441.251372","217324.209529","218074.148699","218840.69789","219607.455774","220373.86831","221140.76192","221907.796513","222674.495344","226500.324786","Mapping"
"Mixed","Female","tile","31","M_reek.wav","space","502.091711271","235","216557.933956","223424.349801","224190.511598","224957.121078","225723.780644","226490.297063","227257.323308","228024.08923","217324.209529","218074.148699","218840.69789","219607.455774","220373.86831","221140.76192","221907.796513","222674.495344","227267.293835","Mapping"
"Mixed","Male","tile","25","M_lash.wav","None","721.275413642","235","231140.917744","223424.349801","224190.511598","224957.121078","225723.780644","226490.297063","227257.323308","228024.08923","217324.209529","218074.148699","218840.69789","219607.455774","220373.86831","221140.76192","221907.796513","222674.495344","228034.781367","Mapping"
"Mixed","Male","tile","25","M_tile.wav","None","720.313575817","235","231140.917744","223424.349801","224190.511598","224957.121078","225723.780644","226490.297063","227257.323308","228024.08923","231890.707274","218074.148699","218840.69789","219607.455774","220373.86831","221140.76192","221907.796513","222674.495344","231151.055224","Mapping"
"Mixed","Male","tile","25","F_park.wav","space","484.810784343","235","231140.917744","223424.349801","224190.511598","224957.121078","225723.780644","226490.297063","227257.323308","228024.08923","231890.707274","232656.925031","218840.69789","219607.455774","220373.86831","221140.76192","221907.796513","222674.495344","231900.479311","Mapping"
"Mixed","Male","tile","25","F_lash.wav","None","733.477861504","235","231140.917744","223424.349801","224190.511598","224957.121078","225723.780644","226490.297063","227257.323308","228024.08923","231890.707274","232656.925031","233423.909229","219607.455774","220373.86831","221140.76192","221907.796513","222674.495344","232666.477556","Mapping"
"Mixed","Male","tile","25","M_tile.wav","None","730.88266165","235","231140.917744","223424.349801","224190.511598","224957.121078","225723.780644","226490.297063","227257.323308","228024.08923","231890.707274","232656.925031","233423.909229","234190.555501","220373.86831","221140.76192","221907.796513","222674.495344","233433.67632","Mapping"
"Mixed","Male","tile","25","F_cad.wav","space","440.4333001","235","231140.917744","223424.349801","224190.511598","224957.121078","225723.780644","226490.297063","227257.323308","228024.08923","231890.707274","232656.925031","233423.909229","234190.555501","234956.917642","221140.76192","221907.796513","222674.495344","234200.829944","Mapping"
"Mixed","Male","tile","25","F_greet.wav","None","726.779005839","235","231140.917744","223424.349801","224190.511598","224957.121078","225723.780644","226490.297063","227257.323308","228024.08923","231890.707274","232656.925031","233423.909229","234190.555501","234956.917642","235724.590987","221907.796513","222674.495344","234966.536639","Mapping"
"Mixed","Male","tile","25","M_lash.wav","None","723.1774471","235","231140.917744","223424.349801","224190.511598","224957.121078","225723.780644","226490.297063","227257.323308","228024.08923","231890.707274","232656.925031","233423.909229","234190.555501","234956.917642","235724.590987","236490.898096","222674.495344","235734.660758","Mapping"
"Mixed","Male","tile","25","M_tile.wav","None","721.317770425","235","231140.917744","223424.349801","224190.511598","224957.121078","225723.780644","226490.297063","227257.323308","228024.08923","231890.707274","232656.925031","233423.909229","234190.555501","234956.917642","235724.590987","236490.898096","237257.497064","236501.165428","Mapping"
"Mixed","Male","tile","25","M_knife.wav","space","381.200352567","235","231140.917744","238006.962271","224190.511598","224957.121078","225723.780644","226490.297063","227257.323308","228024.08923","231890.707274","232656.925031","233423.909229","234190.555501","234956.917642","235724.590987","236490.898096","237257.497064","237267.994112","Mapping"
"Mixed","Male","tile","25","F_dime.wav","None","734.677453525","235","231140.917744","238006.962271","238773.816307","224957.121078","225723.780644","226490.297063","227257.323308","228024.08923","231890.707274","232656.925031","233423.909229","234190.555501","234956.917642","235724.590987","236490.898096","237257.497064","238016.78625","Mapping"
"Mixed","Male","tile","25","M_lash.wav","None","732.181498199","235","231140.917744","238006.962271","238773.816307","239540.404454","225723.780644","226490.297063","227257.323308","228024.08923","231890.707274","232656.925031","233423.909229","234190.555501","234956.917642","235724.590987","236490.898096","237257.497064","238783.996453","Mapping"
"Mixed","Male","tile","25","F_cad.wav","None","730.162597261","235","231140.917744","238006.962271","238773.816307","239540.404454","240306.742171","226490.297063","227257.323308","228024.08923","231890.707274","232656.925031","233423.909229","234190.555501","234956.917642","235724.590987","236490.898096","237257.497064","239550.504833","Mapping"
"Mixed","Male","tile","25","M_tile.wav","None","729.170460487","235","231140.917744","238006.962271","238773.816307","239540.404454","240306.742171","241073.827778","227257.323308","228024.08923","231890.707274","232656.925031","233423.909229","234190.555501","234956.917642","235724.590987","236490.898096","237257.497064","240316.172263","Mapping"
"Mixed","Male","tile","25","F_cave.wav","space","381.102653802","235","231140.917744","238006.962271","238773.816307","239540.404454","240306.742171","241073.827778","241840.365529","228024.08923","231890.707274","232656.925031","233423.909229","234190.555501","234956.917642","235724.590987","236490.898096","237257.497064","241084.027401","Mapping"
"Mixed","Male","tile","25","F_dime.wav","None","723.533614655","235","231140.917744","238006.962271","238773.816307","239540.404454","240306.742171","241073.827778","241840.365529","242607.417436","231890.707274","232656.925031","233423.909229","234190.555501","234956.917642","235724.590987","236490.898096","237257.497064","241851.266976","Mapping"
"Mixed","Female","ball","8","F_tile.wav","None","722.180054407","235","245724.110223","238006.962271","238773.816307","239540.404454","240306.742171","241073.827778","241840.365529","242607.417436","231890.707274","232656.925031","233423.909229","234190.555501","234956.917642","235724.590987","236490.898096","237257.497064","242617.474222","Mapping"
"Mixed","Female","ball","8","M_bluff.wav","None","717.75238507","235","245724.110223","238006.962271","238773.816307","239540.404454","240306.742171","241073.827778","241840.365529","242607.417436","246490.794832","232656.925031","233423.909229","234190.555501","234956.917642","235724.590987","236490.898096","237257.497064","245738.182241","Mapping"
"Mixed","Female","ball","8","M_tile.wav","None","720.346657326","235","245724.110223","238006.962271","238773.816307","239540.404454","240306.742171","241073.827778","241840.365529","242607.417436","246490.794832","247240.289411","233423.909229","234190.555501","234956.917642","235724.590987","236490.898096","237257.497064","246500.228015","Mapping"
"Mixed","Female","ball","8","M_done.wav","None","735.437401221","235","245724.110223","238006.962271","238773.816307","239540.404454","240306.742171","241073.827778","241840.365529","242607.417436","246490.794832","247240.289411","248006.635166","234190.555501","234956.917642","235724.590987","236490.898096","237257.497064","247249.954165","Mapping"
"Mixed","Female","ball","8","F_ball.wav","None","733.422210324","235","245724.110223","238006.962271","238773.816307","239540.404454","240306.742171","241073.827778","241840.365529","242607.417436","246490.794832","247240.289411","248006.635166","248773.325031","234956.917642","235724.590987","236490.898096","237257.497064","248016.747603","Mapping"
"Mixed","Female","ball","8","M_park.wav","space","346.184014226","235","245724.110223","238006.962271","238773.816307","239540.404454","240306.742171","241073.827778","241840.365529","242607.417436","246490.794832","247240.289411","248006.635166","248773.325031","249540.476182","235724.590987","236490.898096","237257.497064","248782.804281","Mapping"
"Mixed","Female","ball","8","F_ball.wav","None","728.515940835","235","245724.110223","238006.962271","238773.816307","239540.404454","240306.742171","241073.827778","241840.365529","242607.417436","246490.794832","247240.289411","248006.635166","248773.325031","249540.476182","250306.647873","236490.898096","237257.497064","249550.321803","Mapping"
"Mixed","Female","ball","8","M_bluff.wav","space","438.867646968","235","245724.110223","238006.962271","238773.816307","239540.404454","240306.742171","241073.827778","241840.365529","242607.417436","246490.794832","247240.289411","248006.635166","248773.325031","249540.476182","250306.647873","251073.499745","237257.497064","250322.075307","Mapping"
"Mixed","Female","ball","8","F_greet.wav","None","723.670578329","235","245724.110223","238006.962271","238773.816307","239540.404454","240306.742171","241073.827778","241840.365529","242607.417436","246490.794832","247240.289411","248006.635166","248773.325031","249540.476182","250306.647873","251073.499745","251840.318535","251083.856738","Mapping"
"Mixed","Female","ball","8","F_ball.wav","None","722.111418028","235","245724.110223","252607.204107","238773.816307","239540.404454","240306.742171","241073.827778","241840.365529","242607.417436","246490.794832","247240.289411","248006.635166","248773.325031","249540.476182","250306.647873","251073.499745","251840.318535","251849.981743","Mapping"
"Mixed","Female","ball","8","F_gnash.wav","space","455.638128915","235","245724.110223","252607.204107","253356.506998","239540.404454","240306.742171","241073.827778","241840.365529","242607.417436","246490.794832","247240.289411","248006.635166","248773.325031","249540.476182","250306.647873","251073.499745","251840.318535","252617.298921","Mapping"
"Mixed","Female","ball","8","F_dime.wav","None","740.043463535","235","245724.110223","252607.204107","253356.506998","254123.246331","240306.742171","241073.827778","241840.365529","242607.417436","246490.794832","247240.289411","248006.635166","248773.325031","249540.476182","250306.647873","251073.499745","251840.318535","253360.998666","Mapping"
"Mixed","Female","ball","8","M_reek.wav","None","733.176726848","235","245724.110223","252607.204107","253356.506998","254123.246331","254890.250316","241073.827778","241840.365529","242607.417436","246490.794832","247240.289411","248006.635166","248773.325031","249540.476182","250306.647873","251073.499745","251840.318535","254132.573159","Mapping"
"Mixed","Female","ball","8","M_tile.wav","None","730.451365001","235","245724.110223","252607.204107","253356.506998","254123.246331","254890.250316","255656.866288","241840.365529","242607.417436","246490.794832","247240.289411","248006.635166","248773.325031","249540.476182","250306.647873","251073.499745","251840.318535","254899.931147","Mapping"
"Mixed","Female","ball","8","F_ball.wav","None","728.604982607","235","245724.110223","252607.204107","253356.506998","254123.246331","254890.250316","255656.866288","256423.498338","242607.417436","246490.794832","247240.289411","248006.635166","248773.325031","249540.476182","250306.647873","251073.499745","251840.318535","255666.399644","Mapping"
"Mixed","Female","ball","8","M_romp.wav","space","431.306198006","235","245724.110223","252607.204107","253356.506998","254123.246331","254890.250316","255656.866288","256423.498338","257189.77793","246490.794832","247240.289411","248006.635166","248773.325031","249540.476182","250306.647873","251073.499745","251840.318535","256433.529772","Mapping"
"Mixed","Male","done","38","F_cave.wav","None","724.782056059","235","260323.655182","252607.204107","253356.506998","254123.246331","254890.250316","255656.866288","256423.498338","257189.77793","246490.794832","247240.289411","248006.635166","248773.325031","249540.476182","250306.647873","251073.499745","251840.318535","257198.948316","Mapping"
"Mixed","Male","done","38","M_cad.wav","None","720.39148747","235","260323.655182","252607.204107","253356.506998","254123.246331","254890.250316","255656.866288","256423.498338","257189.77793","261073.543029","247240.289411","248006.635166","248773.325031","249540.476182","250306.647873","251073.499745","251840.318535","260333.746595","Mapping"
"Mixed","Male","done","38","M_done.wav","None","735.424415907","235","260323.655182","252607.204107","253356.506998","254123.246331","254890.250316","255656.866288","256423.498338","257189.77793","261073.543029","261839.715029","248006.635166","248773.325031","249540.476182","250306.647873","251073.499745","251840.318535","261083.417403","Mapping"
"Mixed","Male","done","38","M_knife.wav","space","479.273492354","235","260323.655182","252607.204107","253356.506998","254123.246331","254890.250316","255656.866288","256423.498338","257189.77793","261073.543029","261839.715029","262606.624098","248773.325031","249540.476182","250306.647873","251073.499745","251840.318535","261849.4781","Mapping"
"Mixed","Male","done","38","F_gnash.wav","None","731.791940052","235","260323.655182","252607.204107","253356.506998","254123.246331","254890.250316","255656.866288","256423.498338","257189.77793","261073.543029","261839.715029","262606.624098","263373.379507","249540.476182","250306.647873","251073.499745","251840.318535","262615.842097","Mapping"
"Mixed","Male","done","38","M_done.wav","None","729.459846625","235","260323.655182","252607.204107","253356.506998","254123.246331","254890.250316","255656.866288","256423.498338","257189.77793","261073.543029","261839.715029","262606.624098","263373.379507","264139.938901","250306.647873","251073.499745","251840.318535","263382.900805","Mapping"
"Mixed","Male","done","38","F_jaw.wav","space","523.364682449","235","260323.655182","252607.204107","253356.506998","254123.246331","254890.250316","255656.866288","256423.498338","257189.77793","261073.543029","261839.715029","262606.624098","263373.379507","264139.938901","264906.624747","251073.499745","251840.318535","264149.324163","Mapping"
"Mixed","Male","done","38","M_done.wav","None","725.299612037","235","260323.655182","252607.204107","253356.506998","254123.246331","254890.250316","255656.866288","256423.498338","257189.77793","261073.543029","261839.715029","262606.624098","263373.379507","264139.938901","264906.624747","265673.84268","251840.318535","264916.391528","Mapping"
"Mixed","Male","done","38","F_depth.wav","space","540.516065783","235","260323.655182","252607.204107","253356.506998","254123.246331","254890.250316","255656.866288","256423.498338","257189.77793","261073.543029","261839.715029","262606.624098","263373.379507","264139.938901","264906.624747","265673.84268","266439.792384","265684.184523","Mapping"
"Mixed","Male","done","38","F_depth.wav","None","721.209868905","235","260323.655182","267206.983728","253356.506998","254123.246331","254890.250316","255656.866288","256423.498338","257189.77793","261073.543029","261839.715029","262606.624098","263373.379507","264139.938901","264906.624747","265673.84268","266439.792384","266449.546489","Mapping"
"Mixed","Male","done","38","M_bluff.wav","None","717.863069032","235","260323.655182","267206.983728","267956.480471","254123.246331","254890.250316","255656.866288","256423.498338","257189.77793","261073.543029","261839.715029","262606.624098","263373.379507","264139.938901","264906.624747","265673.84268","266439.792384","267217.694415","Mapping"
"Mixed","Male","done","38","F_gnash.wav","None","734.012112836","235","260323.655182","267206.983728","267956.480471","268723.301116","254890.250316","255656.866288","256423.498338","257189.77793","261073.543029","261839.715029","262606.624098","263373.379507","264139.938901","264906.624747","265673.84268","266439.792384","267966.283426","Mapping"
"Mixed","Male","done","38","F_cling.wav","None","732.767690672","235","260323.655182","267206.983728","267956.480471","268723.301116","269489.86422","255656.866288","256423.498338","257189.77793","261073.543029","261839.715029","262606.624098","263373.379507","264139.938901","264906.624747","265673.84268","266439.792384","268732.55498","Mapping"
"Mixed","Male","done","38","M_done.wav","None","730.36448739","235","260323.655182","267206.983728","267956.480471","268723.301116","269489.86422","270256.270573","256423.498338","257189.77793","261073.543029","261839.715029","262606.624098","263373.379507","264139.938901","264906.624747","265673.84268","266439.792384","269499.536704","Mapping"
"Mixed","Male","done","38","M_reek.wav","space","447.206357378","235","260323.655182","267206.983728","267956.480471","268723.301116","269489.86422","270256.270573","271022.920555","257189.77793","261073.543029","261839.715029","262606.624098","263373.379507","264139.938901","264906.624747","265673.84268","266439.792384","270265.410042","Mapping"
"Mixed","Male","done","38","F_cave.wav","None","726.255575544","235","260323.655182","267206.983728","267956.480471","268723.301116","269489.86422","270256.270573","271022.920555","271789.842609","261073.543029","261839.715029","262606.624098","263373.379507","264139.938901","264906.624747","265673.84268","266439.792384","271032.398878","Mapping"
"Mixed","Female","cave","24","F_done.wav","None","724.393425393","235","274906.704823","267206.983728","267956.480471","268723.301116","269489.86422","270256.270573","271022.920555","271789.842609","261073.543029","261839.715029","262606.624098","263373.379507","264139.938901","264906.624747","265673.84268","266439.792384","271799.474591","Mapping"
"Mixed","Female","cave","24","M_park.wav","None","720.495369635","235","274906.704823","267206.983728","267956.480471","268723.301116","269489.86422","270256.270573","271022.920555","271789.842609","275673.228662","261839.715029","262606.624098","263373.379507","264139.938901","264906.624747","265673.84268","266439.792384","274917.076347","Mapping"
"Mixed","Female","cave","24","M_depth.wav","None","719.259604462","235","274906.704823","267206.983728","267956.480471","268723.301116","269489.86422","270256.270573","271022.920555","271789.842609","275673.228662","276423.122074","262606.624098","263373.379507","264139.938901","264906.624747","265673.84268","266439.792384","275683.088813","Mapping"
"Mixed","Female","cave","24","F_cave.wav","None","733.815787826","235","274906.704823","267206.983728","267956.480471","268723.301116","269489.86422","270256.270573","271022.920555","271789.842609","275673.228662","276423.122074","277189.40785","263373.379507","264139.938901","264906.624747","265673.84268","266439.792384","276433.180715","Mapping"
"Mixed","Female","cave","24","F_lash.wav","space","402.043263894","235","274906.704823","267206.983728","267956.480471","268723.301116","269489.86422","270256.270573","271022.920555","271789.842609","275673.228662","276423.122074","277189.40785","277956.419255","264139.938901","264906.624747","265673.84268","266439.792384","277198.458895","Mapping"
"Mixed","Female","cave","24","M_gnash.wav","None","729.600520455","235","274906.704823","267206.983728","267956.480471","268723.301116","269489.86422","270256.270573","271022.920555","271789.842609","275673.228662","276423.122074","277189.40785","277956.419255","278723.044193","264906.624747","265673.84268","266439.792384","277966.187891","Mapping"
"Mixed","Female","cave","24","M_gnash.wav","None","728.315905784","235","274906.704823","267206.983728","267956.480471","268723.301116","269489.86422","270256.270573","271022.920555","271789.842609","275673.228662","276423.122074","277189.40785","277956.419255","278723.044193","279489.62863","265673.84268","266439.792384","278732.522207","Mapping"
"Mixed","Female","cave","24","F_cave.wav","None","726.018130546","235","274906.704823","267206.983728","267956.480471","268723.301116","269489.86422","270256.270573","271022.920555","271789.842609","275673.228662","276423.122074","277189.40785","277956.419255","278723.044193","279489.62863","280256.924475","266439.792384","279499.582771","Mapping"
"Mixed","Female","cave","24","F_lash.wav","space","533.325933735","235","274906.704823","267206.983728","267956.480471","268723.301116","269489.86422","270256.270573","271022.920555","271789.842609","275673.228662","276423.122074","277189.40785","277956.419255","278723.044193","279489.62863","280256.924475","281023.389262","280267.075249","Mapping"
"Mixed","Female","cave","24","F_cave.wav","None","720.575136249","235","274906.704823","281789.834571","267956.480471","268723.301116","269489.86422","270256.270573","271022.920555","271789.842609","275673.228662","276423.122074","277189.40785","277956.419255","278723.044193","279489.62863","280256.924475","281023.389262","281033.721521","Mapping"
"Mixed","Female","cave","24","M_priest.wav","space","551.959802513","235","274906.704823","281789.834571","282539.397786","268723.301116","269489.86422","270256.270573","271022.920555","271789.842609","275673.228662","276423.122074","277189.40785","277956.419255","278723.044193","279489.62863","280256.924475","281023.389262","281800.438902","Mapping"
"Mixed","Female","cave","24","M_depth.wav","None","734.11877756","235","274906.704823","281789.834571","282539.397786","283306.036638","269489.86422","270256.270573","271022.920555","271789.842609","275673.228662","276423.122074","277189.40785","277956.419255","278723.044193","279489.62863","280256.924475","281023.389262","282549.056048","Mapping"
"Mixed","Female","cave","24","M_ball.wav","None","732.640929637","235","274906.704823","281789.834571","282539.397786","283306.036638","284072.985899","270256.270573","271022.920555","271789.842609","275673.228662","276423.122074","277189.40785","277956.419255","278723.044193","279489.62863","280256.924475","281023.389262","283315.338423","Mapping"
"Mixed","Female","cave","24","F_gnash.wav","None","730.27699138","235","274906.704823","281789.834571","282539.397786","283306.036638","284072.985899","284839.28837","271022.920555","271789.842609","275673.228662","276423.122074","277189.40785","277956.419255","278723.044193","279489.62863","280256.924475","281023.389262","284082.538114","Mapping"
"Mixed","Female","cave","24","F_cave.wav","None","729.237241903","235","274906.704823","281789.834571","282539.397786","283306.036638","284072.985899","284839.28837","285606.452197","271789.842609","275673.228662","276423.122074","277189.40785","277956.419255","278723.044193","279489.62863","280256.924475","281023.389262","284848.353328","Mapping"
"Mixed","Female","cave","24","M_greet.wav","space","415.779829142","235","274906.704823","281789.834571","282539.397786","283306.036638","284072.985899","284839.28837","285606.452197","286373.336223","275673.228662","276423.122074","277189.40785","277956.419255","278723.044193","279489.62863","280256.924475","281023.389262","285616.544229","Mapping"
"Mixed","Female","ball","10","F_cling.wav","None","722.560337512","235","289489.270917","281789.834571","282539.397786","283306.036638","284072.985899","284839.28837","285606.452197","286373.336223","275673.228662","276423.122074","277189.40785","277956.419255","278723.044193","279489.62863","280256.924475","281023.389262","286383.590571","Mapping"
"Mixed","Female","ball","10","F_ball.wav","None","721.954358043","235","289489.270917","281789.834571","282539.397786","283306.036638","284072.985899","284839.28837","285606.452197","286373.336223","290256.403209","276423.122074","277189.40785","277956.419255","278723.044193","279489.62863","280256.924475","281023.389262","289498.380087","Mapping"
"Mixed","Female","ball","10","M_jaw.wav","space","437.070732354","235","289489.270917","281789.834571","282539.397786","283306.036638","284072.985899","284839.28837","285606.452197","286373.336223","290256.403209","291006.169551","277189.40785","277956.419255","278723.044193","279489.62863","280256.924475","281023.389262","290267.173257","Mapping"
"Mixed","Female","ball","10","F_ball.wav","None","733.808676829","235","289489.270917","281789.834571","282539.397786","283306.036638","284072.985899","284839.28837","285606.452197","286373.336223","290256.403209","291006.169551","291772.92527","277956.419255","278723.044193","279489.62863","280256.924475","281023.389262","291015.428361","Mapping"
"Mixed","Female","ball","10","M_jaw.wav","space","441.738320165","235","289489.270917","281789.834571","282539.397786","283306.036638","284072.985899","284839.28837","285606.452197","286373.336223","290256.403209","291006.169551","291772.92527","292539.466114","278723.044193","279489.62863","280256.924475","281023.389262","291782.510567","Mapping"
"Mixed","Female","ball","10","F_ball.wav","None","728.594780085","235","289489.270917","281789.834571","282539.397786","283306.036638","284072.985899","284839.28837","285606.452197","286373.336223","290256.403209","291006.169551","291772.92527","292539.466114","293305.857317","279489.62863","280256.924475","281023.389262","292549.379443","Mapping"
"Mixed","Female","ball","10","M_lash.wav","space","445.21775539","235","289489.270917","281789.834571","282539.397786","283306.036638","284072.985899","284839.28837","285606.452197","286373.336223","290256.403209","291006.169551","291772.92527","292539.466114","293305.857317","294072.72372","280256.924475","281023.389262","293314.987511","Mapping"
"Mixed","Female","ball","10","F_reek.wav","None","724.184424267","235","289489.270917","281789.834571","282539.397786","283306.036638","284072.985899","284839.28837","285606.452197","286373.336223","290256.403209","291006.169551","291772.92527","292539.466114","293305.857317","294072.72372","294839.561988","281023.389262","294082.632721","Mapping"
"Mixed","Female","ball","10","M_park.wav","None","723.116230918","235","289489.270917","281789.834571","282539.397786","283306.036638","284072.985899","284839.28837","285606.452197","286373.336223","290256.403209","291006.169551","291772.92527","292539.466114","293305.857317","294072.72372","294839.561988","295606.279369","294849.315784","Mapping"
"Mixed","Female","ball","10","M_bluff.wav","None","721.000249498","235","289489.270917","296373.449999","282539.397786","283306.036638","284072.985899","284839.28837","285606.452197","286373.336223","290256.403209","291006.169551","291772.92527","292539.466114","293305.857317","294072.72372","294839.561988","295606.279369","295616.324716","Mapping"
"Mixed","Female","ball","10","F_ball.wav","None","687.072510133","235","289489.270917","296373.449999","297122.612217","283306.036638","284072.985899","284839.28837","285606.452197","286373.336223","290256.403209","291006.169551","291772.92527","292539.466114","293305.857317","294072.72372","294839.561988","295606.279369","296415.223008","Mapping"
"Mixed","Female","ball","10","M_jolt.wav","space","444.049080601","235","289489.270917","296373.449999","297122.612217","297889.386486","284072.985899","284839.28837","285606.452197","286373.336223","290256.403209","291006.169551","291772.92527","292539.466114","293305.857317","294072.72372","294839.561988","295606.279369","297132.005517","Mapping"
"Mixed","Female","ball","10","F_cad.wav","None","731.958584394","235","289489.270917","296373.449999","297122.612217","297889.386486","298655.764086","284839.28837","285606.452197","286373.336223","290256.403209","291006.169551","291772.92527","292539.466114","293305.857317","294072.72372","294839.561988","295606.279369","297899.271372","Mapping"
"Mixed","Female","ball","10","F_knife.wav","None","731.36435356","235","289489.270917","296373.449999","297122.612217","297889.386486","298655.764086","299422.73097","285606.452197","286373.336223","290256.403209","291006.169551","291772.92527","292539.466114","293305.857317","294072.72372","294839.561988","295606.279369","298664.762572","Mapping"
"Mixed","Female","ball","10","M_gnash.wav","None","728.959913482","235","289489.270917","296373.449999","297122.612217","297889.386486","298655.764086","299422.73097","300189.175352","286373.336223","290256.403209","291006.169551","291772.92527","292539.466114","293305.857317","294072.72372","294839.561988","295606.279369","299432.001219","Mapping"
"Mixed","Female","ball","10","M_cad.wav","None","727.310474496","235","289489.270917","296373.449999","297122.612217","297889.386486","298655.764086","299422.73097","300189.175352","300955.950857","290256.403209","291006.169551","291772.92527","292539.466114","293305.857317","294072.72372","294839.561988","295606.279369","300198.688611","Mapping"
"Mixed","Male","ball","1","M_priest.wav","None","725.439976668","235","304089.266032","296373.449999","297122.612217","297889.386486","298655.764086","299422.73097","300189.175352","300955.950857","290256.403209","291006.169551","291772.92527","292539.466114","293305.857317","294072.72372","294839.561988","295606.279369","300965.322516","Mapping"
"Mixed","Male","ball","1","M_cave.wav","None","721.402483759","235","304089.266032","296373.449999","297122.612217","297889.386486","298655.764086","299422.73097","300189.175352","300955.950857","304855.923125","291006.169551","291772.92527","292539.466114","293305.857317","294072.72372","294839.561988","295606.279369","304099.04178","Mapping"
"Mixed","Male","ball","1","M_ball.wav","None","720.39148747","235","304089.266032","296373.449999","297122.612217","297889.386486","298655.764086","299422.73097","300189.175352","300955.950857","304855.923125","305605.601043","291772.92527","292539.466114","293305.857317","294072.72372","294839.561988","295606.279369","304865.26232","Mapping"
"Mixed","Male","ball","1","F_cave.wav","space","465.453450452","235","304089.266032","296373.449999","297122.612217","297889.386486","298655.764086","299422.73097","300189.175352","300955.950857","304855.923125","305605.601043","306371.980189","292539.466114","293305.857317","294072.72372","294839.561988","295606.279369","305614.488845","Mapping"
"Mixed","Male","ball","1","M_lash.wav","None","734.927574638","235","304089.266032","296373.449999","297122.612217","297889.386486","298655.764086","299422.73097","300189.175352","300955.950857","304855.923125","305605.601043","306371.980189","307138.771772","293305.857317","294072.72372","294839.561988","295606.279369","306380.787606","Mapping"
"Mixed","Male","ball","1","F_gnash.wav","None","733.830318903","235","304089.266032","296373.449999","297122.612217","297889.386486","298655.764086","299422.73097","300189.175352","300955.950857","304855.923125","305605.601043","306371.980189","307138.771772","307905.487608","294072.72372","294839.561988","295606.279369","307147.873831","Mapping"
"Mixed","Male","ball","1","M_park.wav","None","732.906509424","235","304089.266032","296373.449999","297122.612217","297889.386486","298655.764086","299422.73097","300189.175352","300955.950857","304855.923125","305605.601043","306371.980189","307138.771772","307905.487608","308672.217974","294839.561988","295606.279369","307914.363661","Mapping"
"Mixed","Male","ball","1","F_park.wav","None","731.838934473","235","304089.266032","296373.449999","297122.612217","297889.386486","298655.764086","299422.73097","300189.175352","300955.950857","304855.923125","305605.601043","306371.980189","307138.771772","307905.487608","308672.217974","309438.639168","295606.279369","308680.960774","Mapping"
"Mixed","Male","ball","1","M_ball.wav","None","730.915434076","235","304089.266032","296373.449999","297122.612217","297889.386486","298655.764086","299422.73097","300189.175352","300955.950857","304855.923125","305605.601043","306371.980189","307138.771772","307905.487608","308672.217974","309438.639168","310205.466924","309447.526661","Mapping"
"Mixed","Male","ball","1","F_lash.wav","space","377.295495011","235","304089.266032","310972.045796","297122.612217","297889.386486","298655.764086","299422.73097","300189.175352","300955.950857","304855.923125","305605.601043","306371.980189","307138.771772","307905.487608","308672.217974","309438.639168","310205.466924","310214.582896","Mapping"
"Mixed","Male","ball","1","M_ball.wav","None","726.975639933","235","304089.266032","310972.045796","311738.787602","297889.386486","298655.764086","299422.73097","300189.175352","300955.950857","304855.923125","305605.601043","306371.980189","307138.771772","307905.487608","308672.217974","309438.639168","310205.466924","310981.150019","Mapping"
"Mixed","Male","ball","1","F_knife.wav","space","492.086557439","235","304089.266032","310972.045796","311738.787602","312505.761288","298655.764086","299422.73097","300189.175352","300955.950857","304855.923125","305605.601043","306371.980189","307138.771772","307905.487608","308672.217974","309438.639168","310205.466924","311747.776813","Mapping"
"Mixed","Male","ball","1","M_ball.wav","None","723.713553394","235","304089.266032","310972.045796","311738.787602","312505.761288","313272.60914","299422.73097","300189.175352","300955.950857","304855.923125","305605.601043","306371.980189","307138.771772","307905.487608","308672.217974","309438.639168","310205.466924","312515.110376","Mapping"
"Mixed","Male","ball","1","F_dime.wav","space","509.933271096","235","304089.266032","310972.045796","311738.787602","312505.761288","313272.60914","314038.800927","300189.175352","300955.950857","304855.923125","305605.601043","306371.980189","307138.771772","307905.487608","308672.217974","309438.639168","310205.466924","313281.909998","Mapping"
"Mixed","Male","ball","1","F_jaw.wav","None","721.829452086","235","304089.266032","310972.045796","311738.787602","312505.761288","313272.60914","314038.800927","314805.761319","300955.950857","304855.923125","305605.601043","306371.980189","307138.771772","307905.487608","308672.217974","309438.639168","310205.466924","314047.60618","Mapping"
"Mixed","Male","ball","1","F_park.wav","None","720.509900711","235","304089.266032","310972.045796","311738.787602","312505.761288","313272.60914","314038.800927","314805.761319","315555.391007","304855.923125","305605.601043","306371.980189","307138.771772","307905.487608","308672.217974","309438.639168","310205.466924","314814.731052","Mapping"
"Mixed","Female","cave","19","F_depth.wav","None","736.649360158","235","318688.966505","310972.045796","311738.787602","312505.761288","313272.60914","314038.800927","314805.761319","315555.391007","304855.923125","305605.601043","306371.980189","307138.771772","307905.487608","308672.217974","309438.639168","310205.466924","315564.273553","Mapping"
"Mixed","Female","cave","19","M_priest.wav","None","721.869026194","235","318688.966505","310972.045796","311738.787602","312505.761288","313272.60914","314038.800927","314805.761319","315555.391007","319455.580623","305605.601043","306371.980189","307138.771772","307905.487608","308672.217974","309438.639168","310205.466924","318698.29828","Mapping"
"Mixed","Female","cave","19","F_ball.wav","None","720.855865511","235","318688.966505","310972.045796","311738.787602","312505.761288","313272.60914","314038.800927","314805.761319","315555.391007","319455.580623","320222.031187","306371.980189","307138.771772","307905.487608","308672.217974","309438.639168","310205.466924","319464.777907","Mapping"
"Mixed","Female","cave","19","M_priest.wav","None","720.52968794","235","318688.966505","310972.045796","311738.787602","312505.761288","313272.60914","314038.800927","314805.761319","315555.391007","319455.580623","320222.031187","320971.86864","307138.771772","307905.487608","308672.217974","309438.639168","310205.466924","320230.844788","Mapping"
"Mixed","Female","cave","19","M_bluff.wav","None","735.836234642","235","318688.966505","310972.045796","311738.787602","312505.761288","313272.60914","314038.800927","314805.761319","315555.391007","319455.580623","320222.031187","320971.86864","321738.388459","307905.487608","308672.217974","309438.639168","310205.466924","320981.006563","Mapping"
"Mixed","Female","cave","19","M_bluff.wav","None","735.44389382","235","318688.966505","310972.045796","311738.787602","312505.761288","313272.60914","314038.800927","314805.761319","315555.391007","319455.580623","320222.031187","320971.86864","321738.388459","322505.143869","308672.217974","309438.639168","310205.466924","321747.139607","Mapping"
"Mixed","Female","cave","19","F_cave.wav","None","734.149385709","235","318688.966505","310972.045796","311738.787602","312505.761288","313272.60914","314038.800927","314805.761319","315555.391007","319455.580623","320222.031187","320971.86864","321738.388459","322505.143869","323271.982446","309438.639168","310205.466924","322514.015285","Mapping"
"Mixed","Female","cave","19","F_jolt.wav","space","422.812282806","235","318688.966505","310972.045796","311738.787602","312505.761288","313272.60914","314038.800927","314805.761319","315555.391007","319455.580623","320222.031187","320971.86864","321738.388459","322505.143869","323271.982446","324038.252454","310205.466924","323280.801612","Mapping"
"Mixed","Female","cave","19","M_jaw.wav","None","730.838140822","235","318688.966505","310972.045796","311738.787602","312505.761288","313272.60914","314038.800927","314805.761319","315555.391007","319455.580623","320222.031187","320971.86864","321738.388459","322505.143869","323271.982446","324038.252454","324804.998279","324047.333489","Mapping"
"Mixed","Female","cave","19","F_cave.wav","None","730.054077459","235","318688.966505","325571.840258","311738.787602","312505.761288","313272.60914","314038.800927","314805.761319","315555.391007","319455.580623","320222.031187","320971.86864","321738.388459","322505.143869","323271.982446","324038.252454","324804.998279","324813.831049","Mapping"
"Mixed","Female","cave","19","M_priest.wav","space","394.873846439","235","318688.966505","325571.840258","326338.321431","312505.761288","313272.60914","314038.800927","314805.761319","315555.391007","319455.580623","320222.031187","320971.86864","321738.388459","322505.143869","323271.982446","324038.252454","324804.998279","325580.752793","Mapping"
"Mixed","Female","cave","19","F_cave.wav","None","726.462412393","235","318688.966505","325571.840258","326338.321431","327105.526378","313272.60914","314038.800927","314805.761319","315555.391007","319455.580623","320222.031187","320971.86864","321738.388459","322505.143869","323271.982446","324038.252454","324804.998279","326347.010434","Mapping"
"Mixed","Female","cave","19","M_gnash.wav","space","492.514762213","235","318688.966505","325571.840258","326338.321431","327105.526378","327872.317034","314038.800927","314805.761319","315555.391007","319455.580623","320222.031187","320971.86864","321738.388459","322505.143869","323271.982446","324038.252454","324804.998279","327115.116931","Mapping"
"Mixed","Female","cave","19","F_priest.wav","None","721.895615105","235","318688.966505","325571.840258","326338.321431","327105.526378","327872.317034","328638.929296","314805.761319","315555.391007","319455.580623","320222.031187","320971.86864","321738.388459","322505.143869","323271.982446","324038.252454","324804.998279","327881.598413","Mapping"
"Mixed","Female","cave","19","F_cave.wav","None","720.674380893","235","318688.966505","325571.840258","326338.321431","327105.526378","327872.317034","328638.929296","329405.474159","315555.391007","319455.580623","320222.031187","320971.86864","321738.388459","322505.143869","323271.982446","324038.252454","324804.998279","328648.359079","Mapping"
"Mixed","Female","cave","19","M_ball.wav","space","504.721847712","235","318688.966505","325571.840258","326338.321431","327105.526378","327872.317034","328638.929296","329405.474159","330154.800857","319455.580623","320222.031187","320971.86864","321738.388459","322505.143869","323271.982446","324038.252454","324804.998279","329414.843962","Mapping"
"Mixed","Female","done","46","M_tile.wav","None","735.567872413","235","333288.841352","325571.840258","326338.321431","327105.526378","327872.317034","328638.929296","329405.474159","330154.800857","319455.580623","320222.031187","320971.86864","321738.388459","322505.143869","323271.982446","324038.252454","324804.998279","330163.684021","Mapping"
"Mixed","Female","done","46","M_greet.wav","None","721.536355908","235","333288.841352","325571.840258","326338.321431","327105.526378","327872.317034","328638.929296","329405.474159","330154.800857","334055.405692","320222.031187","320971.86864","321738.388459","322505.143869","323271.982446","324038.252454","324804.998279","333298.311945","Mapping"
"Mixed","Female","done","46","M_lash.wav","None","720.85493803","235","333288.841352","325571.840258","326338.321431","327105.526378","327872.317034","328638.929296","329405.474159","330154.800857","334055.405692","334805.253966","320971.86864","321738.388459","322505.143869","323271.982446","324038.252454","324804.998279","334064.544852","Mapping"
"Mixed","Female","done","46","F_done.wav","None","736.764372676","235","333288.841352","325571.840258","326338.321431","327105.526378","327872.317034","328638.929296","329405.474159","330154.800857","334055.405692","334805.253966","335571.621672","321738.388459","322505.143869","323271.982446","324038.252454","324804.998279","334814.161555","Mapping"
"Mixed","Female","done","46","M_tile.wav","space","362.579469103","235","333288.841352","325571.840258","326338.321431","327105.526378","327872.317034","328638.929296","329405.474159","330154.800857","334055.405692","334805.253966","335571.621672","336338.368734","322505.143869","323271.982446","324038.252454","324804.998279","335580.889448","Mapping"
"Mixed","Female","done","46","F_done.wav","None","733.611733536","235","333288.841352","325571.840258","326338.321431","327105.526378","327872.317034","328638.929296","329405.474159","330154.800857","334055.405692","334805.253966","335571.621672","336338.368734","337104.981306","323271.982446","324038.252454","324804.998279","336347.403393","Mapping"
"Mixed","Female","done","46","F_tile.wav","space","509.416333516","235","333288.841352","325571.840258","326338.321431","327105.526378","327872.317034","328638.929296","329405.474159","330154.800857","334055.405692","334805.253966","335571.621672","336338.368734","337104.981306","337871.520913","324038.252454","324804.998279","337113.985048","Mapping"
"Mixed","Female","done","46","F_done.wav","None","730.08313973","235","333288.841352","325571.840258","326338.321431","327105.526378","327872.317034","328638.929296","329405.474159","330154.800857","334055.405692","334805.253966","335571.621672","336338.368734","337104.981306","337871.520913","338638.282197","324804.998279","337880.555881","Mapping"
"Mixed","Female","done","46","M_dime.wav","space","439.997365815","235","333288.841352","325571.840258","326338.321431","327105.526378","327872.317034","328638.929296","329405.474159","330154.800857","334055.405692","334805.253966","335571.621672","336338.368734","337104.981306","337871.520913","338638.282197","339404.963096","338647.430322","Mapping"
"Mixed","Female","done","46","F_romp.wav","None","727.222978487","235","333288.841352","340171.459727","326338.321431","327105.526378","327872.317034","328638.929296","329405.474159","330154.800857","334055.405692","334805.253966","335571.621672","336338.368734","337104.981306","337871.520913","338638.282197","339404.963096","339413.969002","Mapping"
"Mixed","Female","done","46","M_priest.wav","None","726.593810949","235","333288.841352","340171.459727","340938.042927","327105.526378","327872.317034","328638.929296","329405.474159","330154.800857","334055.405692","334805.253966","335571.621672","336338.368734","337104.981306","337871.520913","338638.282197","339404.963096","340180.247357","Mapping"
"Mixed","Female","done","46","F_ball.wav","None","725.739874761","235","333288.841352","340171.459727","340938.042927","341705.396278","327872.317034","328638.929296","329405.474159","330154.800857","334055.405692","334805.253966","335571.621672","336338.368734","337104.981306","337871.520913","338638.282197","339404.963096","340946.783872","Mapping"
"Mixed","Female","done","46","F_knife.wav","None","723.491257988","235","333288.841352","340171.459727","340938.042927","341705.396278","342472.012251","328638.929296","329405.474159","330154.800857","334055.405692","334805.253966","335571.621672","336338.368734","337104.981306","337871.520913","338638.282197","339404.963096","341714.61706","Mapping"
"Mixed","Female","done","46","F_done.wav","None","722.228285391","235","333288.841352","340171.459727","340938.042927","341705.396278","342472.012251","343238.720666","329405.474159","330154.800857","334055.405692","334805.253966","335571.621672","336338.368734","337104.981306","337871.520913","338638.282197","339404.963096","342481.373706","Mapping"
"Mixed","Female","done","46","M_jolt.wav","space","351.234358619","235","333288.841352","340171.459727","340938.042927","341705.396278","342472.012251","343238.720666","344005.081571","330154.800857","334055.405692","334805.253966","335571.621672","336338.368734","337104.981306","337871.520913","338638.282197","339404.963096","343248.067281","Mapping"
"Mixed","Female","done","46","M_knife.wav","None","719.695229433","235","333288.841352","340171.459727","340938.042927","341705.396278","342472.012251","343238.720666","344005.081571","344754.674776","334055.405692","334805.253966","335571.621672","336338.368734","337104.981306","337871.520913","338638.282197","339404.963096","344014.592666","Mapping"
"Mixed","Female","done","44","F_jolt.wav","None","736.854960327","235","347888.484009","340171.459727","340938.042927","341705.396278","342472.012251","343238.720666","344005.081571","344754.674776","334055.405692","334805.253966","335571.621672","336338.368734","337104.981306","337871.520913","338638.282197","339404.963096","344763.413866","Mapping"
"Mixed","Female","done","44","F_done.wav","None","721.85109416","235","347888.484009","340171.459727","340938.042927","341705.396278","342472.012251","343238.720666","344005.081571","344754.674776","348655.068446","334805.253966","335571.621672","336338.368734","337104.981306","337871.520913","338638.282197","339404.963096","347897.838045","Mapping"
"Mixed","Female","done","44","M_depth.wav","space","615.343400277","235","347888.484009","340171.459727","340938.042927","341705.396278","342472.012251","343238.720666","344005.081571","344754.674776","348655.068446","349404.640937","335571.621672","336338.368734","337104.981306","337871.520913","338638.282197","339404.963096","348663.88452","Mapping"
"Mixed","Female","done","44","M_gnash.wav","None","736.367085134","235","347888.484009","340171.459727","340938.042927","341705.396278","342472.012251","343238.720666","344005.081571","344754.674776","348655.068446","349404.640937","350171.40624","336338.368734","337104.981306","337871.520913","338638.282197","339404.963096","349413.460103","Mapping"
"Mixed","Female","done","44","M_knife.wav","None","735.228400095","235","347888.484009","340171.459727","340938.042927","341705.396278","342472.012251","343238.720666","344005.081571","344754.674776","348655.068446","349404.640937","350171.40624","350937.889577","337104.981306","337871.520913","338638.282197","339404.963096","350180.566733","Mapping"
"Mixed","Female","done","44","M_dime.wav","None","733.796000713","235","347888.484009","340171.459727","340938.042927","341705.396278","342472.012251","343238.720666","344005.081571","344754.674776","348655.068446","349404.640937","350171.40624","350937.889577","351705.01785","337871.520913","338638.282197","339404.963096","350947.054399","Mapping"
"Mixed","Female","done","44","F_cad.wav","None","731.819765642","235","347888.484009","340171.459727","340938.042927","341705.396278","342472.012251","343238.720666","344005.081571","344754.674776","348655.068446","349404.640937","350171.40624","350937.889577","351705.01785","352471.836949","338638.282197","339404.963096","351714.23554","Mapping"
"Mixed","Female","done","44","M_jaw.wav","None","729.895780794","235","347888.484009","340171.459727","340938.042927","341705.396278","342472.012251","343238.720666","344005.081571","344754.674776","348655.068446","349404.640937","350171.40624","350937.889577","351705.01785","352471.836949","353237.865184","339404.963096","352481.442961","Mapping"
"Mixed","Female","done","44","F_done.wav","None","731.960439356","235","347888.484009","340171.459727","340938.042927","341705.396278","342472.012251","343238.720666","344005.081571","344754.674776","348655.068446","349404.640937","350171.40624","350937.889577","351705.01785","352471.836949","353237.865184","354004.787547","353246.783594","Mapping"
"Mixed","Female","done","44","F_romp.wav","space","369.292855961","235","347888.484009","354771.659515","340938.042927","341705.396278","342472.012251","343238.720666","344005.081571","344754.674776","348655.068446","349404.640937","350171.40624","350937.889577","351705.01785","352471.836949","353237.865184","354004.787547","354013.797163","Mapping"
"Mixed","Female","done","44","F_greet.wav","None","727.0724111","235","347888.484009","354771.659515","355538.276415","341705.396278","342472.012251","343238.720666","344005.081571","344754.674776","348655.068446","349404.640937","350171.40624","350937.889577","351705.01785","352471.836949","353237.865184","354004.787547","354781.031482","Mapping"
"Mixed","Female","done","44","M_jaw.wav","None","725.499337888","235","347888.484009","354771.659515","355538.276415","356305.025023","342472.012251","343238.720666","344005.081571","344754.674776","348655.068446","349404.640937","350171.40624","350937.889577","351705.01785","352471.836949","353237.865184","354004.787547","355547.990637","Mapping"
"Mixed","Female","done","44","F_done.wav","None","724.46608101","235","347888.484009","354771.659515","355538.276415","356305.025023","357072.077857","343238.720666","344005.081571","344754.674776","348655.068446","349404.640937","350171.40624","350937.889577","351705.01785","352471.836949","353237.865184","354004.787547","356314.469337","Mapping"
"Mixed","Female","done","44","M_cling.wav","space","404.63877283","235","347888.484009","354771.659515","355538.276415","356305.025023","357072.077857","357838.741133","344005.081571","344754.674776","348655.068446","349404.640937","350171.40624","350937.889577","351705.01785","352471.836949","353237.865184","354004.787547","357082.417227","Mapping"
"Mixed","Female","done","44","F_done.wav","None","719.653181848","235","347888.484009","354771.659515","355538.276415","356305.025023","357072.077857","357838.741133","358588.439457","344754.674776","348655.068446","349404.640937","350171.40624","350937.889577","351705.01785","352471.836949","353237.865184","354004.787547","357848.597575","Mapping"
"Mixed","Female","done","44","M_park.wav","space","369.255755097","235","347888.484009","354771.659515","355538.276415","356305.025023","357072.077857","357838.741133","358588.439457","359354.990195","348655.068446","349404.640937","350171.40624","350937.889577","351705.01785","352471.836949","353237.865184","354004.787547","358597.79071","Mapping"
"Mixed","Male","cave","13","F_dime.wav","None","731.832750957","235","362488.400594","354771.659515","355538.276415","356305.025023","357072.077857","357838.741133","358588.439457","359354.990195","348655.068446","349404.640937","350171.40624","350937.889577","351705.01785","352471.836949","353237.865184","354004.787547","359365.607511","Mapping"
"Mixed","Male","cave","13","F_jolt.wav","None","721.190081793","235","362488.400594","354771.659515","355538.276415","356305.025023","357072.077857","357838.741133","358588.439457","359354.990195","363255.305644","349404.640937","350171.40624","350937.889577","351705.01785","352471.836949","353237.865184","354004.787547","362498.045562","Mapping"
"Mixed","Male","cave","13","M_cave.wav","None","719.851980219","235","362488.400594","354771.659515","355538.276415","356305.025023","357072.077857","357838.741133","358588.439457","359354.990195","363255.305644","364004.99964","350171.40624","350937.889577","351705.01785","352471.836949","353237.865184","354004.787547","363265.103034","Mapping"
"Mixed","Male","cave","13","F_done.wav","space","416.300476762","235","362488.400594","354771.659515","355538.276415","356305.025023","357072.077857","357838.741133","358588.439457","359354.990195","363255.305644","364004.99964","364771.467828","350937.889577","351705.01785","352471.836949","353237.865184","354004.787547","364014.610907","Mapping"
"Mixed","Male","cave","13","M_cave.wav","None","732.820559177","235","362488.400594","354771.659515","355538.276415","356305.025023","357072.077857","357838.741133","358588.439457","359354.990195","363255.305644","364004.99964","364771.467828","365538.355254","351705.01785","352471.836949","353237.865184","354004.787547","364781.307265","Mapping"
"Mixed","Male","cave","13","M_priest.wav","space","506.947585498","235","362488.400594","354771.659515","355538.276415","356305.025023","357072.077857","357838.741133","358588.439457","359354.990195","363255.305644","364004.99964","364771.467828","365538.355254","366304.796544","352471.836949","353237.865184","354004.787547","365547.947662","Mapping"
"Mixed","Male","cave","13","M_cave.wav","None","729.518280365","235","362488.400594","354771.659515","355538.276415","356305.025023","357072.077857","357838.741133","358588.439457","359354.990195","363255.305644","364004.99964","364771.467828","365538.355254","366304.796544","367071.547316","353237.865184","354004.787547","366313.799049","Mapping"
"Mixed","Male","cave","13","M_priest.wav","space","573.816183605","235","362488.400594","354771.659515","355538.276415","356305.025023","357072.077857","357838.741133","358588.439457","359354.990195","363255.305644","364004.99964","364771.467828","365538.355254","366304.796544","367071.547316","367837.960162","354004.787547","367081.071396","Mapping"
"Mixed","Male","cave","13","F_depth.wav","None","725.535201957","235","362488.400594","354771.659515","355538.276415","356305.025023","357072.077857","357838.741133","358588.439457","359354.990195","363255.305644","364004.99964","364771.467828","365538.355254","366304.796544","367071.547316","367837.960162","368605.121516","367847.355626","Mapping"
"Mixed","Male","cave","13","F_romp.wav","None","722.980194609","235","362488.400594","369371.841371","355538.276415","356305.025023","357072.077857","357838.741133","358588.439457","359354.990195","363255.305644","364004.99964","364771.467828","365538.355254","366304.796544","367071.547316","367837.960162","368605.121516","368615.270435","Mapping"
"Mixed","Male","cave","13","M_jaw.wav","None","721.668991144","235","362488.400594","369371.841371","370138.250815","356305.025023","357072.077857","357838.741133","358588.439457","359354.990195","363255.305644","364004.99964","364771.467828","365538.355254","366304.796544","367071.547316","367837.960162","368605.121516","369381.861674","Mapping"
"Mixed","Male","cave","13","F_reek.wav","None","720.843807911","235","362488.400594","369371.841371","370138.250815","370904.931714","357072.077857","357838.741133","358588.439457","359354.990195","363255.305644","364004.99964","364771.467828","365538.355254","366304.796544","367071.547316","367837.960162","368605.121516","370148.011104","Mapping"
"Mixed","Male","cave","13","M_knife.wav","None","719.844560022","235","362488.400594","369371.841371","370138.250815","370904.931714","371654.83904","357838.741133","358588.439457","359354.990195","363255.305644","364004.99964","364771.467828","365538.355254","366304.796544","367071.547316","367837.960162","368605.121516","370914.765896","Mapping"
"Mixed","Male","cave","13","F_depth.wav","None","735.856949235","235","362488.400594","369371.841371","370138.250815","370904.931714","371654.83904","372421.296407","358588.439457","359354.990195","363255.305644","364004.99964","364771.467828","365538.355254","366304.796544","367071.547316","367837.960162","368605.121516","371664.104033","Mapping"
"Mixed","Male","cave","13","M_cave.wav","None","734.49627799","235","362488.400594","369371.841371","370138.250815","370904.931714","371654.83904","372421.296407","373187.894138","359354.990195","363255.305644","364004.99964","364771.467828","365538.355254","366304.796544","367071.547316","367837.960162","368605.121516","372430.747831","Mapping"
"Mixed","Male","cave","13","F_greet.wav","space","409.399421769","235","362488.400594","369371.841371","370138.250815","370904.931714","371654.83904","372421.296407","373187.894138","373954.736734","363255.305644","364004.99964","364771.467828","365538.355254","366304.796544","367071.547316","367837.960162","368605.121516","373197.32392","Mapping"
"Mixed","Female","done","48","M_lash.wav","None","730.356448912","235","377088.329237","369371.841371","370138.250815","370904.931714","371654.83904","372421.296407","373187.894138","373954.736734","363255.305644","364004.99964","364771.467828","365538.355254","366304.796544","367071.547316","367837.960162","368605.121516","373964.292969","Mapping"
"Mixed","Female","done","48","M_greet.wav","None","720.788775012","235","377088.329237","369371.841371","370138.250815","370904.931714","371654.83904","372421.296407","373187.894138","373954.736734","377854.707456","364004.99964","364771.467828","365538.355254","366304.796544","367071.547316","367837.960162","368605.121516","377098.281213","Mapping"
"Mixed","Female","done","48","F_cave.wav","None","720.282040187","235","377088.329237","369371.841371","370138.250815","370904.931714","371654.83904","372421.296407","373187.894138","373954.736734","377854.707456","378604.744015","364771.467828","365538.355254","366304.796544","367071.547316","367837.960162","368605.121516","377864.264618","Mapping"
"Mixed","Female","done","48","F_done.wav","None","736.290719244","235","377088.329237","369371.841371","370138.250815","370904.931714","371654.83904","372421.296407","373187.894138","373954.736734","377854.707456","378604.744015","379370.870567","365538.355254","366304.796544","367071.547316","367837.960162","368605.121516","378613.652532","Mapping"
"Mixed","Female","done","48","M_greet.wav","space","410.590356914","235","377088.329237","369371.841371","370138.250815","370904.931714","371654.83904","372421.296407","373187.894138","373954.736734","377854.707456","378604.744015","379370.870567","380137.833123","366304.796544","367071.547316","367837.960162","368605.121516","379380.092894","Mapping"
"Mixed","Female","done","48","F_bluff.wav","None","732.791806106","235","377088.329237","369371.841371","370138.250815","370904.931714","371654.83904","372421.296407","373187.894138","373954.736734","377854.707456","378604.744015","379370.870567","380137.833123","380904.583276","367071.547316","367837.960162","368605.121516","380147.251775","Mapping"
"Mixed","Female","done","48","F_done.wav","None","731.699497206","235","377088.329237","369371.841371","370138.250815","370904.931714","371654.83904","372421.296407","373187.894138","373954.736734","377854.707456","378604.744015","379370.870567","380137.833123","380904.583276","381671.250572","367837.960162","368605.121516","380914.085405","Mapping"
"Mixed","Female","done","48","M_cling.wav","space","478.049784899","235","377088.329237","369371.841371","370138.250815","370904.931714","371654.83904","372421.296407","373187.894138","373954.736734","377854.707456","378604.744015","379370.870567","380137.833123","380904.583276","381671.250572","382437.983102","368605.121516","381680.59966","Mapping"
"Mixed","Female","done","48","M_jolt.wav","None","727.608517394","235","377088.329237","369371.841371","370138.250815","370904.931714","371654.83904","372421.296407","373187.894138","373954.736734","377854.707456","378604.744015","379370.870567","380137.833123","380904.583276","381671.250572","382437.983102","383204.454691","382447.602408","Mapping"
"Mixed","Female","done","48","F_done.wav","None","726.918442873","235","377088.329237","383971.183203","370138.250815","370904.931714","371654.83904","372421.296407","373187.894138","373954.736734","377854.707456","378604.744015","379370.870567","380137.833123","380904.583276","381671.250572","382437.983102","383204.454691","383213.744727","Mapping"
"Mixed","Female","done","48","F_depth.wav","space","369.837619131","235","377088.329237","383971.183203","384737.061488","370904.931714","371654.83904","372421.296407","373187.894138","373954.736734","377854.707456","378604.744015","379370.870567","380137.833123","380904.583276","381671.250572","382437.983102","383204.454691","383980.731399","Mapping"
"Mixed","Female","done","48","M_jaw.wav","None","729.262284935","235","377088.329237","383971.183203","384737.061488","385504.173993","371654.83904","372421.296407","373187.894138","373954.736734","377854.707456","378604.744015","379370.870567","380137.833123","380904.583276","381671.250572","382437.983102","383204.454691","384745.906315","Mapping"
"Mixed","Female","done","48","F_depth.wav","None","727.659221855","235","377088.329237","383971.183203","384737.061488","385504.173993","386271.136858","372421.296407","373187.894138","373954.736734","377854.707456","378604.744015","379370.870567","380137.833123","380904.583276","381671.250572","382437.983102","383204.454691","385513.067978","Mapping"
"Mixed","Female","done","48","F_done.wav","None","725.591780734","235","377088.329237","383971.183203","384737.061488","385504.173993","386271.136858","387038.536275","373187.894138","373954.736734","377854.707456","378604.744015","379370.870567","380137.833123","380904.583276","381671.250572","382437.983102","383204.454691","386280.463995","Mapping"
"Mixed","Female","done","48","M_bluff.wav","space","502.237641136","235","377088.329237","383971.183203","384737.061488","385504.173993","386271.136858","387038.536275","387804.820505","373954.736734","377854.707456","378604.744015","379370.870567","380137.833123","380904.583276","381671.250572","382437.983102","383204.454691","387048.302129","Mapping"
"Mixed","Female","done","48","M_gnash.wav","None","720.405709464","235","377088.329237","383971.183203","384737.061488","385504.173993","386271.136858","387038.536275","387804.820505","388571.066706","377854.707456","378604.744015","379370.870567","380137.833123","380904.583276","381671.250572","382437.983102","383204.454691","387815.046099","Mapping"
"Mixed","Female","ball","7","M_knife.wav","None","719.841159065","235","391688.195736","383971.183203","384737.061488","385504.173993","386271.136858","387038.536275","387804.820505","388571.066706","377854.707456","378604.744015","379370.870567","380137.833123","380904.583276","381671.250572","382437.983102","383204.454691","388581.129676","Mapping"
"Mixed","Female","ball","7","M_reek.wav","None","720.697878161","235","391688.195736","383971.183203","384737.061488","385504.173993","386271.136858","387038.536275","387804.820505","388571.066706","392454.235101","378604.744015","379370.870567","380137.833123","380904.583276","381671.250572","382437.983102","383204.454691","391698.049395","Mapping"
"Mixed","Female","ball","7","F_ball.wav","None","720.328725292","235","391688.195736","383971.183203","384737.061488","385504.173993","386271.136858","387038.536275","387804.820505","388571.066706","392454.235101","393204.376161","379370.870567","380137.833123","380904.583276","381671.250572","382437.983102","383204.454691","392463.798446","Mapping"
"Mixed","Female","ball","7","F_greet.wav","space","489.024505951","235","391688.195736","383971.183203","384737.061488","385504.173993","386271.136858","387038.536275","387804.820505","388571.066706","392454.235101","393204.376161","393970.577532","380137.833123","380904.583276","381671.250572","382437.983102","383204.454691","393213.404019","Mapping"
"Mixed","Female","ball","7","M_lash.wav","None","733.934510266","235","391688.195736","383971.183203","384737.061488","385504.173993","386271.136858","387038.536275","387804.820505","388571.066706","392454.235101","393204.376161","393970.577532","394737.652318","380904.583276","381671.250572","382437.983102","383204.454691","393979.707108","Mapping"
"Mixed","Female","ball","7","F_cad.wav","None","732.064939919","235","391688.195736","383971.183203","384737.061488","385504.173993","386271.136858","387038.536275","387804.820505","388571.066706","392454.235101","393204.376161","393970.577532","394737.652318","395504.276638","381671.250572","382437.983102","383204.454691","394746.969871","Mapping"
"Mixed","Female","ball","7","F_ball.wav","None","731.313958182","235","391688.195736","383971.183203","384737.061488","385504.173993","386271.136858","387038.536275","387804.820505","388571.066706","392454.235101","393204.376161","393970.577532","394737.652318","395504.276638","396270.50769","382437.983102","383204.454691","395513.495256","Mapping"
"Mixed","Female","ball","7","M_greet.wav","space","439.098599367","235","391688.195736","383971.183203","384737.061488","385504.173993","386271.136858","387038.536275","387804.820505","388571.066706","392454.235101","393204.376161","393970.577532","394737.652318","395504.276638","396270.50769","397037.766125","383204.454691","396279.248326","Mapping"
"Mixed","Female","ball","7","F_ball.wav","None","726.963891299","235","391688.195736","383971.183203","384737.061488","385504.173993","386271.136858","387038.536275","387804.820505","388571.066706","392454.235101","393204.376161","393970.577532","394737.652318","395504.276638","396270.50769","397037.766125","397804.284089","397047.369044","Mapping"
"Mixed","Female","ball","7","M_greet.wav","space","561.08474033","235","391688.195736","398571.299514","384737.061488","385504.173993","386271.136858","387038.536275","387804.820505","388571.066706","392454.235101","393204.376161","393970.577532","394737.652318","395504.276638","396270.50769","397037.766125","397804.284089","397813.271445","Mapping"
"Mixed","Female","ball","7","M_knife.wav","None","722.640413325","235","391688.195736","398571.299514","399338.060798","385504.173993","386271.136858","387038.536275","387804.820505","388571.066706","392454.235101","393204.376161","393970.577532","394737.652318","395504.276638","396270.50769","397037.766125","397804.284089","398581.290446","Mapping"
"Mixed","Female","ball","7","F_reek.wav","None","721.624161117","235","391688.195736","398571.299514","399338.060798","400104.567323","386271.136858","387038.536275","387804.820505","388571.066706","392454.235101","393204.376161","393970.577532","394737.652318","395504.276638","396270.50769","397037.766125","397804.284089","399347.966089","Mapping"
"Mixed","Female","ball","7","F_ball.wav","None","720.84999131","235","391688.195736","398571.299514","399338.060798","400104.567323","400871.096418","387038.536275","387804.820505","388571.066706","392454.235101","393204.376161","393970.577532","394737.652318","395504.276638","396270.50769","397037.766125","397804.284089","400114.330703","Mapping"
"Mixed","Female","ball","7","M_knife.wav","space","404.815001646","235","391688.195736","398571.299514","399338.060798","400104.567323","400871.096418","401620.763825","387804.820505","388571.066706","392454.235101","393204.376161","393970.577532","394737.652318","395504.276638","396270.50769","397037.766125","397804.284089","400881.470724","Mapping"
"Mixed","Female","ball","7","F_gnash.wav","None","734.517610865","235","391688.195736","398571.299514","399338.060798","400104.567323","400871.096418","401620.763825","402387.30034","388571.066706","392454.235101","393204.376161","393970.577532","394737.652318","395504.276638","396270.50769","397037.766125","397804.284089","401630.166709","Mapping"
"Mixed","Female","ball","7","M_priest.wav","None","733.587617986","235","391688.195736","398571.299514","399338.060798","400104.567323","400871.096418","401620.763825","402387.30034","403154.190549","392454.235101","393204.376161","393970.577532","394737.652318","395504.276638","396270.50769","397037.766125","397804.284089","402396.85812","Mapping"
"Mixed","Female","cave","20","M_gnash.wav","None","732.755632955","235","406287.902393","398571.299514","399338.060798","400104.567323","400871.096418","401620.763825","402387.30034","403154.190549","392454.235101","393204.376161","393970.577532","394737.652318","395504.276638","396270.50769","397037.766125","397804.284089","403163.193673","Mapping"
"Mixed","Female","cave","20","F_cave.wav","None","720.536489738","235","406287.902393","398571.299514","399338.060798","400104.567323","400871.096418","401620.763825","402387.30034","403154.190549","407054.228979","393204.376161","393970.577532","394737.652318","395504.276638","396270.50769","397037.766125","397804.284089","406297.851277","Mapping"
"Mixed","Female","cave","20","M_reek.wav","space","398.058021325","235","406287.902393","398571.299514","399338.060798","400104.567323","400871.096418","401620.763825","402387.30034","403154.190549","407054.228979","407804.090238","393970.577532","394737.652318","395504.276638","396270.50769","397037.766125","397804.284089","407064.085112","Mapping"
"Mixed","Female","cave","20","M_ball.wav","None","734.683946124","235","406287.902393","398571.299514","399338.060798","400104.567323","400871.096418","401620.763825","402387.30034","403154.190549","407054.228979","407804.090238","408570.734963","394737.652318","395504.276638","396270.50769","397037.766125","397804.284089","407813.136646","Mapping"
"Mixed","Female","cave","20","F_ball.wav","None","733.403041493","235","406287.902393","398571.299514","399338.060798","400104.567323","400871.096418","401620.763825","402387.30034","403154.190549","407054.228979","407804.090238","408570.734963","409337.365158","395504.276638","396270.50769","397037.766125","397804.284089","408580.134447","Mapping"
"Mixed","Female","cave","20","M_cling.wav","None","732.469029375","235","406287.902393","398571.299514","399338.060798","400104.567323","400871.096418","401620.763825","402387.30034","403154.190549","407054.228979","407804.090238","408570.734963","409337.365158","410103.970309","396270.50769","397037.766125","397804.284089","409346.724449","Mapping"
"Mixed","Female","cave","20","F_cave.wav","None","731.513065868","235","406287.902393","398571.299514","399338.060798","400104.567323","400871.096418","401620.763825","402387.30034","403154.190549","407054.228979","407804.090238","408570.734963","409337.365158","410103.970309","410870.655846","397037.766125","397804.284089","410113.446468","Mapping"
"Mixed","Female","cave","20","M_lash.wav","space","438.085129601","235","406287.902393","398571.299514","399338.060798","400104.567323","400871.096418","401620.763825","402387.30034","403154.190549","407054.228979","407804.090238","408570.734963","409337.365158","410103.970309","410870.655846","411637.044885","397804.284089","410879.99535","Mapping"
"Mixed","Female","cave","20","M_lash.wav","None","728.670218261","235","406287.902393","398571.299514","399338.060798","400104.567323","400871.096418","401620.763825","402387.30034","403154.190549","407054.228979","407804.090238","408570.734963","409337.365158","410103.970309","410870.655846","411637.044885","412404.008678","411646.109844","Mapping"
"Mixed","Female","cave","20","F_ball.wav","None","726.993571967","235","406287.902393","413170.699161","399338.060798","400104.567323","400871.096418","401620.763825","402387.30034","403154.190549","407054.228979","407804.090238","408570.734963","409337.365158","410103.970309","410870.655846","411637.044885","412404.008678","412413.392394","Mapping"
"Mixed","Female","cave","20","F_cave.wav","None","725.934653659","235","406287.902393","413170.699161","413937.241241","400104.567323","400871.096418","401620.763825","402387.30034","403154.190549","407054.228979","407804.090238","408570.734963","409337.365158","410103.970309","410870.655846","411637.044885","412404.008678","413180.023825","Mapping"
"Mixed","Female","cave","20","F_depth.wav","space","419.056137558","235","406287.902393","413170.699161","413937.241241","414704.310771","400871.096418","401620.763825","402387.30034","403154.190549","407054.228979","407804.090238","408570.734963","409337.365158","410103.970309","410870.655846","411637.044885","412404.008678","413946.916198","Mapping"
"Mixed","Female","cave","20","M_cling.wav","None","721.47977713","235","406287.902393","413170.699161","413937.241241","414704.310771","415471.035572","401620.763825","402387.30034","403154.190549","407054.228979","407804.090238","408570.734963","409337.365158","410103.970309","410870.655846","411637.044885","412404.008678","414714.469893","Mapping"
"Mixed","Female","cave","20","F_cave.wav","None","720.307083102","235","406287.902393","413170.699161","413937.241241","414704.310771","415471.035572","416237.67226","402387.30034","403154.190549","407054.228979","407804.090238","408570.734963","409337.365158","410103.970309","410870.655846","411637.044885","412404.008678","415481.037326","Mapping"
"Mixed","Female","cave","20","M_reek.wav","space","646.38037025","235","406287.902393","413170.699161","413937.241241","414704.310771","415471.035572","416237.67226","416986.856738","403154.190549","407054.228979","407804.090238","408570.734963","409337.365158","410103.970309","410870.655846","411637.044885","412404.008678","416247.573841","Mapping"
"Mixed","Female","cave","20","F_greet.wav","None","735.190681065","235","406287.902393","413170.699161","413937.241241","414704.310771","415471.035572","416237.67226","416986.856738","417753.928123","407054.228979","407804.090238","408570.734963","409337.365158","410103.970309","410870.655846","411637.044885","412404.008678","416995.800191","Mapping"
"Mixed","Male","ball","2","M_greet.wav","None","733.567212592","235","420887.402522","413170.699161","413937.241241","414704.310771","415471.035572","416237.67226","416986.856738","417753.928123","407054.228979","407804.090238","408570.734963","409337.365158","410103.970309","410870.655846","411637.044885","412404.008678","417762.916406","Mapping"
"Mixed","Male","ball","2","M_ball.wav","None","720.961293671","235","420887.402522","413170.699161","413937.241241","414704.310771","415471.035572","416237.67226","416986.856738","417753.928123","421654.282528","407804.090238","408570.734963","409337.365158","410103.970309","410870.655846","411637.044885","412404.008678","420897.086445","Mapping"
"Mixed","Male","ball","2","F_lash.wav","space","413.455155911","235","420887.402522","413170.699161","413937.241241","414704.310771","415471.035572","416237.67226","416986.856738","417753.928123","421654.282528","422403.66024","408570.734963","409337.365158","410103.970309","410870.655846","411637.044885","412404.008678","421664.437322","Mapping"
"Mixed","Male","ball","2","M_dime.wav","None","734.499369748","235","420887.402522","413170.699161","413937.241241","414704.310771","415471.035572","416237.67226","416986.856738","417753.928123","421654.282528","422403.66024","423170.322897","409337.365158","410103.970309","410870.655846","411637.044885","412404.008678","422413.337052","Mapping"
"Mixed","Male","ball","2","F_cling.wav","None","734.044575947","235","420887.402522","413170.699161","413937.241241","414704.310771","415471.035572","416237.67226","416986.856738","417753.928123","421654.282528","422403.66024","423170.322897","423936.817056","410103.970309","410870.655846","411637.044885","412404.008678","423179.525747","Mapping"
"Mixed","Male","ball","2","M_ball.wav","None","733.181055286","235","420887.402522","413170.699161","413937.241241","414704.310771","415471.035572","416237.67226","416986.856738","417753.928123","421654.282528","422403.66024","423170.322897","423936.817056","424703.487443","410870.655846","411637.044885","412404.008678","423945.941994","Mapping"
"Mixed","Male","ball","2","F_greet.wav","space","413.079201244","235","420887.402522","413170.699161","413937.241241","414704.310771","415471.035572","416237.67226","416986.856738","417753.928123","421654.282528","422403.66024","423170.322897","423936.817056","424703.487443","425470.222447","411637.044885","412404.008678","424712.762639","Mapping"
"Mixed","Male","ball","2","M_jaw.wav","None","730.408389936","235","420887.402522","413170.699161","413937.241241","414704.310771","415471.035572","416237.67226","416986.856738","417753.928123","421654.282528","422403.66024","423170.322897","423936.817056","424703.487443","425470.222447","426237.008774","412404.008678","425479.13591","Mapping"
"Mixed","Male","ball","2","F_jaw.wav","None","728.76173351","235","420887.402522","413170.699161","413937.241241","414704.310771","415471.035572","416237.67226","416986.856738","417753.928123","421654.282528","422403.66024","423170.322897","423936.817056","424703.487443","425470.222447","426237.008774","427003.674523","426246.431755","Mapping"
"Mixed","Male","ball","2","M_park.wav","None","728.001167532","235","420887.402522","427770.002656","413937.241241","414704.310771","415471.035572","416237.67226","416986.856738","417753.928123","421654.282528","422403.66024","423170.322897","423936.817056","424703.487443","425470.222447","426237.008774","427003.674523","427012.908909","Mapping"
"Mixed","Male","ball","2","M_ball.wav","None","727.933458518","235","420887.402522","427770.002656","428536.713545","414704.310771","415471.035572","416237.67226","416986.856738","417753.928123","421654.282528","422403.66024","423170.322897","423936.817056","424703.487443","425470.222447","426237.008774","427003.674523","427778.94178","Mapping"
"Mixed","Male","ball","2","F_romp.wav","space","404.076695908","235","420887.402522","427770.002656","428536.713545","429304.086064","415471.035572","416237.67226","416986.856738","417753.928123","421654.282528","422403.66024","423170.322897","423936.817056","424703.487443","425470.222447","426237.008774","427003.674523","428545.655143","Mapping"
"Mixed","Male","ball","2","F_knife.wav","None","722.804584308","235","420887.402522","427770.002656","428536.713545","429304.086064","430070.527972","416237.67226","416986.856738","417753.928123","421654.282528","422403.66024","423170.322897","423936.817056","424703.487443","425470.222447","426237.008774","427003.674523","429313.831203","Mapping"
"Mixed","Male","ball","2","M_ball.wav","None","722.393074771","235","420887.402522","427770.002656","428536.713545","429304.086064","430070.527972","430837.413234","416986.856738","417753.928123","421654.282528","422403.66024","423170.322897","423936.817056","424703.487443","425470.222447","426237.008774","427003.674523","430079.912615","Mapping"
"Mixed","Male","ball","2","F_jaw.wav","space","430.66528195","235","420887.402522","427770.002656","428536.713545","429304.086064","430070.527972","430837.413234","431586.694175","417753.928123","421654.282528","422403.66024","423170.322897","423936.817056","424703.487443","425470.222447","426237.008774","427003.674523","430847.065003","Mapping"
