"Condition","Talker","Target","Trial","current_stimulus","response_response","response_time_response","subject_nr","time_Audio1","time_Audio10","time_Audio11","time_Audio12","time_Audio13","time_Audio14","time_Audio15","time_Audio16","time_Audio2","time_Audio3","time_Audio4","time_Audio5","time_Audio6","time_Audio7","time_Audio8","time_Audio9","time_response","title"
"Blocked","Female","ball","4","F_greet.wav","NA","NA","318","207895.619418","NA","NA","NA","NA","NA","NA","NA","NA","NA","NA","NA","NA","NA","NA","NA","NA","Mapping"
"Blocked","Female","ball","4","F_ball.wav","None","715.714933816","318","207895.619418","NA","NA","NA","NA","NA","NA","NA","208645.310013","NA","NA","NA","NA","NA","NA","NA","207910.504561","Mapping"
"Blocked","Female","ball","4","F_reek.wav","space","665.099570993","318","207895.619418","NA","NA","NA","NA","NA","NA","NA","208645.310013","209411.737389","NA","NA","NA","NA","NA","NA","208655.009085","Mapping"
"Blocked","Female","ball","4","F_depth.wav","None","732.641547918","318","207895.619418","NA","NA","NA","NA","NA","NA","NA","208645.310013","209411.737389","210178.484761","NA","NA","NA","NA","NA","209421.701423","Mapping"
"Blocked","Female","ball","4","F_knife.wav","None","729.819724336","318","207895.619418","NA","NA","NA","NA","NA","NA","NA","208645.310013","209411.737389","210178.484761","210945.093932","NA","NA","NA","NA","210188.688095","Mapping"
"Blocked","Female","ball","4","F_bluff.wav","None","727.702815086","318","207895.619418","NA","NA","NA","NA","NA","NA","NA","208645.310013","209411.737389","210178.484761","210945.093932","211711.785342","NA","NA","NA","210954.993967","Mapping"
"Blocked","Female","ball","4","F_ball.wav","None","725.154609419","318","207895.619418","NA","NA","NA","NA","NA","NA","NA","208645.310013","209411.737389","210178.484761","210945.093932","211711.785342","212479.348003","NA","NA","211721.630345","Mapping"
"Blocked","Female","ball","4","F_park.wav","space","422.402937431","318","207895.619418","NA","NA","NA","NA","NA","NA","NA","208645.310013","209411.737389","210178.484761","210945.093932","211711.785342","212479.348003","213245.713855","NA","212489.638215","Mapping"
"Blocked","Female","ball","4","F_priest.wav","None","718.859534245","318","207895.619418","NA","NA","NA","NA","NA","NA","NA","208645.310013","209411.737389","210178.484761","210945.093932","211711.785342","212479.348003","213245.713855","213995.288509","213256.408774","Mapping"
"Blocked","Female","ball","4","F_jaw.wav","None","734.585319646","318","207895.619418","214762.045465","NA","NA","NA","NA","NA","NA","208645.310013","209411.737389","210178.484761","210945.093932","211711.785342","212479.348003","213245.713855","213995.288509","214005.367556","Mapping"
"Blocked","Female","ball","4","F_cling.wav","None","731.62529571","318","207895.619418","214762.045465","215528.920834","NA","NA","NA","NA","NA","208645.310013","209411.737389","210178.484761","210945.093932","211711.785342","212479.348003","213245.713855","213995.288509","214772.505104","Mapping"
"Blocked","Female","ball","4","F_ball.wav","None","730.267406907","318","207895.619418","214762.045465","215528.920834","216295.603588","NA","NA","NA","NA","208645.310013","209411.737389","210178.484761","210945.093932","211711.785342","212479.348003","213245.713855","213995.288509","215538.047009","Mapping"
"Blocked","Female","ball","4","F_greet.wav","space","406.137026381","318","207895.619418","214762.045465","215528.920834","216295.603588","217062.280159","NA","NA","NA","208645.310013","209411.737389","210178.484761","210945.093932","211711.785342","212479.348003","213245.713855","213995.288509","216305.834129","Mapping"
"Blocked","Female","ball","4","F_ball.wav","None","724.492360838","318","207895.619418","214762.045465","215528.920834","216295.603588","217062.280159","217829.261883","NA","NA","208645.310013","209411.737389","210178.484761","210945.093932","211711.785342","212479.348003","213245.713855","213995.288509","217071.954188","Mapping"
"Blocked","Female","ball","4","F_cad.wav","space","480.497200042","318","207895.619418","214762.045465","215528.920834","216295.603588","217062.280159","217829.261883","218595.962878","NA","208645.310013","209411.737389","210178.484761","210945.093932","211711.785342","212479.348003","213245.713855","213995.288509","217839.459342","Mapping"
"Blocked","Female","ball","4","F_park.wav","None","717.932942323","318","207895.619418","214762.045465","215528.920834","216295.603588","217062.280159","217829.261883","218595.962878","219345.449419","208645.310013","209411.737389","210178.484761","210945.093932","211711.785342","212479.348003","213245.713855","213995.288509","218606.640484","Mapping"
"Blocked","Female","cave","7","F_depth.wav","None","733.033270575","318","222529.504244","214762.045465","215528.920834","216295.603588","217062.280159","217829.261883","218595.962878","219345.449419","208645.310013","209411.737389","210178.484761","210945.093932","211711.785342","212479.348003","213245.713855","213995.288509","219355.788789","Mapping"
"Blocked","Female","cave","7","F_cave.wav","None","720.100864768","318","222529.504244","214762.045465","215528.920834","216295.603588","217062.280159","217829.261883","218595.962878","219345.449419","223279.303977","209411.737389","210178.484761","210945.093932","211711.785342","212479.348003","213245.713855","213995.288509","222539.821972","Mapping"
"Blocked","Female","cave","7","F_knife.wav","space","564.676405396","318","222529.504244","214762.045465","215528.920834","216295.603588","217062.280159","217829.261883","218595.962878","219345.449419","223279.303977","224045.437948","210178.484761","210945.093932","211711.785342","212479.348003","213245.713855","213995.288509","223283.134014","Mapping"
"Blocked","Female","cave","7","F_bluff.wav","None","732.923204545","318","222529.504244","214762.045465","215528.920834","216295.603588","217062.280159","217829.261883","218595.962878","219345.449419","223279.303977","224045.437948","224812.384427","210945.093932","211711.785342","212479.348003","213245.713855","213995.288509","224055.393326","Mapping"
"Blocked","Female","cave","7","F_priest.wav","None","730.600077193","318","222529.504244","214762.045465","215528.920834","216295.603588","217062.280159","217829.261883","218595.962878","219345.449419","223279.303977","224045.437948","224812.384427","225578.70483","211711.785342","212479.348003","213245.713855","213995.288509","224821.994149","Mapping"
"Blocked","Female","cave","7","F_cave.wav","None","728.212951217","318","222529.504244","214762.045465","215528.920834","216295.603588","217062.280159","217829.261883","218595.962878","219345.449419","223279.303977","224045.437948","224812.384427","225578.70483","226345.423139","212479.348003","213245.713855","213995.288509","225588.727607","Mapping"
"Blocked","Female","cave","7","F_knife.wav","space","523.833388928","318","222529.504244","214762.045465","215528.920834","216295.603588","217062.280159","217829.261883","218595.962878","219345.449419","223279.303977","224045.437948","224812.384427","225578.70483","226345.423139","227112.490505","213245.713855","213995.288509","226355.954197","Mapping"
"Blocked","Female","cave","7","F_park.wav","None","722.747386899","318","222529.504244","214762.045465","215528.920834","216295.603588","217062.280159","217829.261883","218595.962878","219345.449419","223279.303977","224045.437948","224812.384427","225578.70483","226345.423139","227112.490505","227879.058864","213995.288509","227122.700331","Mapping"
"Blocked","Female","cave","7","F_dime.wav","None","720.365516841","318","222529.504244","214762.045465","215528.920834","216295.603588","217062.280159","217829.261883","218595.962878","219345.449419","223279.303977","224045.437948","224812.384427","225578.70483","226345.423139","227112.490505","227879.058864","228628.91363","227889.332381","Mapping"
"Blocked","Female","cave","7","F_jaw.wav","None","734.965912532","318","222529.504244","229395.323694","215528.920834","216295.603588","217062.280159","217829.261883","218595.962878","219345.449419","223279.303977","224045.437948","224812.384427","225578.70483","226345.423139","227112.490505","227879.058864","228628.91363","228639.146954","Mapping"
"Blocked","Female","cave","7","F_depth.wav","None","733.163123019","318","222529.504244","229395.323694","230161.69882","216295.603588","217062.280159","217829.261883","218595.962878","219345.449419","223279.303977","224045.437948","224812.384427","225578.70483","226345.423139","227112.490505","227879.058864","228628.91363","229405.066669","Mapping"
"Blocked","Female","cave","7","F_cave.wav","None","731.288915034","318","222529.504244","229395.323694","230161.69882","230928.799267","217062.280159","217829.261883","218595.962878","219345.449419","223279.303977","224045.437948","224812.384427","225578.70483","226345.423139","227112.490505","227879.058864","228628.91363","230171.141588","Mapping"
"Blocked","Female","cave","7","F_priest.wav","space","557.258412708","318","222529.504244","229395.323694","230161.69882","230928.799267","231695.326816","217829.261883","218595.962878","219345.449419","223279.303977","224045.437948","224812.384427","225578.70483","226345.423139","227112.490505","227879.058864","228628.91363","230938.452273","Mapping"
"Blocked","Female","cave","7","F_knife.wav","None","725.233758334","318","222529.504244","229395.323694","230161.69882","230928.799267","231695.326816","232462.213933","218595.962878","219345.449419","223279.303977","224045.437948","224812.384427","225578.70483","226345.423139","227112.490505","227879.058864","228628.91363","231705.413592","Mapping"
"Blocked","Female","cave","7","F_cave.wav","None","723.059651908","318","222529.504244","229395.323694","230161.69882","230928.799267","231695.326816","232462.213933","233229.088993","219345.449419","223279.303977","224045.437948","224812.384427","225578.70483","226345.423139","227112.490505","227879.058864","228628.91363","232471.868485","Mapping"
"Blocked","Female","cave","7","F_reek.wav","space","624.410831835","318","222529.504244","229395.323694","230161.69882","230928.799267","231695.326816","232462.213933","233229.088993","233978.548017","223279.303977","224045.437948","224812.384427","225578.70483","226345.423139","227112.490505","227879.058864","228628.91363","233239.245024","Mapping"
"Blocked","Female","cave","11","F_greet.wav","None","734.990645666","318","237112.335609","229395.323694","230161.69882","230928.799267","231695.326816","232462.213933","233229.088993","233978.548017","223279.303977","224045.437948","224812.384427","225578.70483","226345.423139","227112.490505","227879.058864","228628.91363","233988.559664","Mapping"
"Blocked","Female","cave","11","F_cave.wav","None","719.995127525","318","237112.335609","229395.323694","230161.69882","230928.799267","231695.326816","232462.213933","233229.088993","233978.548017","237861.708683","224045.437948","224812.384427","225578.70483","226345.423139","227112.490505","227879.058864","228628.91363","237122.512663","Mapping"
"Blocked","Female","cave","11","F_cad.wav","space","432.172810659","318","237112.335609","229395.323694","230161.69882","230928.799267","231695.326816","232462.213933","233229.088993","233978.548017","237861.708683","238628.49099","224812.384427","225578.70483","226345.423139","227112.490505","227879.058864","228628.91363","237871.403118","Mapping"
"Blocked","Female","cave","11","F_jaw.wav","None","738.371455111","318","237112.335609","229395.323694","230161.69882","230928.799267","231695.326816","232462.213933","233229.088993","233978.548017","237861.708683","238628.49099","239395.183638","225578.70483","226345.423139","227112.490505","227879.058864","228628.91363","238632.526628","Mapping"
"Blocked","Female","cave","11","F_reek.wav","None","730.07942969","318","237112.335609","229395.323694","230161.69882","230928.799267","231695.326816","232462.213933","233229.088993","233978.548017","237861.708683","238628.49099","239395.183638","240161.662647","226345.423139","227112.490505","227879.058864","228628.91363","239405.029259","Mapping"
"Blocked","Female","cave","11","F_bluff.wav","None","727.9884913","318","237112.335609","229395.323694","230161.69882","230928.799267","231695.326816","232462.213933","233229.088993","233978.548017","237861.708683","238628.49099","239395.183638","240161.662647","240928.478964","227112.490505","227879.058864","228628.91363","240171.487862","Mapping"
"Blocked","Female","cave","11","F_cad.wav","None","725.186454598","318","237112.335609","229395.323694","230161.69882","230928.799267","231695.326816","232462.213933","233229.088993","233978.548017","237861.708683","238628.49099","239395.183638","240161.662647","240928.478964","241695.499644","227879.058864","228628.91363","240938.562957","Mapping"
"Blocked","Female","cave","11","F_greet.wav","None","722.445015796","318","237112.335609","229395.323694","230161.69882","230928.799267","231695.326816","232462.213933","233229.088993","233978.548017","237861.708683","238628.49099","239395.183638","240161.662647","240928.478964","241695.499644","242462.180852","228628.91363","241705.663404","Mapping"
"Blocked","Female","cave","11","F_cave.wav","None","720.201036893","318","237112.335609","229395.323694","230161.69882","230928.799267","231695.326816","232462.213933","233229.088993","233978.548017","237861.708683","238628.49099","239395.183638","240161.662647","240928.478964","241695.499644","242462.180852","243211.91875","242472.448803","Mapping"
"Blocked","Female","cave","11","F_dime.wav","space","377.89498223","318","237112.335609","243978.437333","230161.69882","230928.799267","231695.326816","232462.213933","233229.088993","233978.548017","237861.708683","238628.49099","239395.183638","240161.662647","240928.478964","241695.499644","242462.180852","243211.91875","243221.609784","Mapping"
"Blocked","Female","cave","11","F_park.wav","None","732.532100752","318","237112.335609","243978.437333","244745.15286","230928.799267","231695.326816","232462.213933","233229.088993","233978.548017","237861.708683","238628.49099","239395.183638","240161.662647","240928.478964","241695.499644","242462.180852","243211.91875","243988.457637","Mapping"
"Blocked","Female","cave","11","F_cave.wav","None","730.058406014","318","237112.335609","243978.437333","244745.15286","245511.671443","231695.326816","232462.213933","233229.088993","233978.548017","237861.708683","238628.49099","239395.183638","240161.662647","240928.478964","241695.499644","242462.180852","243211.91875","244755.32002","Mapping"
"Blocked","Female","cave","11","F_dime.wav","space","590.061689261","318","237112.335609","243978.437333","244745.15286","245511.671443","246278.69707","232462.213933","233229.088993","233978.548017","237861.708683","238628.49099","239395.183638","240161.662647","240928.478964","241695.499644","242462.180852","243211.91875","245521.383191","Mapping"
"Blocked","Female","cave","11","F_cave.wav","None","725.274260156","318","237112.335609","243978.437333","244745.15286","245511.671443","246278.69707","247045.287072","233229.088993","233978.548017","237861.708683","238628.49099","239395.183638","240161.662647","240928.478964","241695.499644","242462.180852","243211.91875","246288.44932","Mapping"
"Blocked","Female","cave","11","F_jolt.wav","space","639.657399151","318","237112.335609","243978.437333","244745.15286","245511.671443","246278.69707","247045.287072","247812.025477","233978.548017","237861.708683","238628.49099","239395.183638","240161.662647","240928.478964","241695.499644","242462.180852","243211.91875","247055.763406","Mapping"
"Blocked","Female","cave","11","F_dime.wav","None","720.06747406","318","237112.335609","243978.437333","244745.15286","245511.671443","246278.69707","247045.287072","247812.025477","248561.970212","237861.708683","238628.49099","239395.183638","240161.662647","240928.478964","241695.499644","242462.180852","243211.91875","247822.538603","Mapping"
"Blocked","Female","ball","6","F_gnash.wav","None","735.287452117","318","251695.192017","243978.437333","244745.15286","245511.671443","246278.69707","247045.287072","247812.025477","248561.970212","237861.708683","238628.49099","239395.183638","240161.662647","240928.478964","241695.499644","242462.180852","243211.91875","248571.771003","Mapping"
"Blocked","Female","ball","6","F_cad.wav","None","716.602879111","318","251695.192017","243978.437333","244745.15286","245511.671443","246278.69707","247045.287072","247812.025477","248561.970212","252461.809844","238628.49099","239395.183638","240161.662647","240928.478964","241695.499644","242462.180852","243211.91875","251709.426351","Mapping"
"Blocked","Female","ball","6","F_dime.wav","None","718.397320248","318","251695.192017","243978.437333","244745.15286","245511.671443","246278.69707","247045.287072","247812.025477","248561.970212","252461.809844","253211.423764","239395.183638","240161.662647","240928.478964","241695.499644","242462.180852","243211.91875","252472.249696","Mapping"
"Blocked","Female","ball","6","F_priest.wav","None","733.637704048","318","251695.192017","243978.437333","244745.15286","245511.671443","246278.69707","247045.287072","247812.025477","248561.970212","252461.809844","253211.423764","253978.437333","240161.662647","240928.478964","241695.499644","242462.180852","243211.91875","253221.351625","Mapping"
"Blocked","Female","ball","6","F_jolt.wav","None","729.407596402","318","251695.192017","243978.437333","244745.15286","245511.671443","246278.69707","247045.287072","247812.025477","248561.970212","252461.809844","253211.423764","253978.437333","254744.881406","240928.478964","241695.499644","242462.180852","243211.91875","253989.98588","Mapping"
"Blocked","Female","ball","6","F_jaw.wav","None","729.172006249","318","251695.192017","243978.437333","244745.15286","245511.671443","246278.69707","247045.287072","247812.025477","248561.970212","252461.809844","253211.423764","253978.437333","254744.881406","255511.487485","241695.499644","242462.180852","243211.91875","254754.631801","Mapping"
"Blocked","Female","ball","6","F_knife.wav","None","727.072720416","318","251695.192017","243978.437333","244745.15286","245511.671443","246278.69707","247045.287072","247812.025477","248561.970212","252461.809844","253211.423764","253978.437333","254744.881406","255511.487485","256278.210122","242462.180852","243211.91875","255521.313936","Mapping"
"Blocked","Female","ball","6","F_ball.wav","None","724.745573476","318","251695.192017","243978.437333","244745.15286","245511.671443","246278.69707","247045.287072","247812.025477","248561.970212","252461.809844","253211.423764","253978.437333","254744.881406","255511.487485","256278.210122","257045.293564","243211.91875","256288.001637","Mapping"
"Blocked","Female","ball","6","F_cad.wav","space","343.501318712","318","251695.192017","243978.437333","244745.15286","245511.671443","246278.69707","247045.287072","247812.025477","248561.970212","252461.809844","253211.423764","253978.437333","254744.881406","255511.487485","256278.210122","257045.293564","257811.800399","257055.746092","Mapping"
"Blocked","Female","ball","6","F_ball.wav","None","719.433977734","318","251695.192017","258561.267462","244745.15286","245511.671443","246278.69707","247045.287072","247812.025477","248561.970212","252461.809844","253211.423764","253978.437333","254744.881406","255511.487485","256278.210122","257045.293564","257811.800399","257822.018264","Mapping"
"Blocked","Female","ball","6","F_lash.wav","space","547.882426064","318","251695.192017","258561.267462","259327.608579","245511.671443","246278.69707","247045.287072","247812.025477","248561.970212","252461.809844","253211.423764","253978.437333","254744.881406","255511.487485","256278.210122","257045.293564","257811.800399","258571.349909","Mapping"
"Blocked","Female","ball","6","F_ball.wav","None","725.53025512","318","251695.192017","258561.267462","259327.608579","260094.537435","246278.69707","247045.287072","247812.025477","248561.970212","252461.809844","253211.423764","253978.437333","254744.881406","255511.487485","256278.210122","257045.293564","257811.800399","259344.555908","Mapping"
"Blocked","Female","ball","6","F_greet.wav","space","495.055238251","318","251695.192017","258561.267462","259327.608579","260094.537435","260861.430427","247045.287072","247812.025477","248561.970212","252461.809844","253211.423764","253978.437333","254744.881406","255511.487485","256278.210122","257045.293564","257811.800399","260104.153649","Mapping"
"Blocked","Female","ball","6","F_reek.wav","None","727.401989978","318","251695.192017","258561.267462","259327.608579","260094.537435","260861.430427","261628.382162","247812.025477","248561.970212","252461.809844","253211.423764","253978.437333","254744.881406","255511.487485","256278.210122","257045.293564","257811.800399","260871.239565","Mapping"
"Blocked","Female","ball","6","F_ball.wav","None","725.104833022","318","251695.192017","258561.267462","259327.608579","260094.537435","260861.430427","261628.382162","262395.027815","248561.970212","252461.809844","253211.423764","253978.437333","254744.881406","255511.487485","256278.210122","257045.293564","257811.800399","261638.082471","Mapping"
"Blocked","Female","ball","6","F_romp.wav","space","562.202401459","318","251695.192017","258561.267462","259327.608579","260094.537435","260861.430427","261628.382162","262395.027815","263161.752617","252461.809844","253211.423764","253978.437333","254744.881406","255511.487485","256278.210122","257045.293564","257811.800399","262404.960004","Mapping"
"Blocked","Female","ball","2","F_bluff.wav","None","719.883206766","318","266277.830457","258561.267462","259327.608579","260094.537435","260861.430427","261628.382162","262395.027815","263161.752617","252461.809844","253211.423764","253978.437333","254744.881406","255511.487485","256278.210122","257045.293564","257811.800399","263171.903082","Mapping"
"Blocked","Female","ball","2","F_gnash.wav","None","722.628046293","318","266277.830457","258561.267462","259327.608579","260094.537435","260861.430427","261628.382162","262395.027815","263161.752617","267044.904934","253211.423764","253978.437333","254744.881406","255511.487485","256278.210122","257045.293564","257811.800399","266286.963434","Mapping"
"Blocked","Female","ball","2","F_jaw.wav","None","718.569838908","318","266277.830457","258561.267462","259327.608579","260094.537435","260861.430427","261628.382162","262395.027815","263161.752617","267044.904934","267794.263168","253978.437333","254744.881406","255511.487485","256278.210122","257045.293564","257811.800399","267055.551313","Mapping"
"Blocked","Female","ball","2","F_ball.wav","None","734.996829648","318","266277.830457","258561.267462","259327.608579","260094.537435","260861.430427","261628.382162","262395.027815","263161.752617","267044.904934","267794.263168","268561.284157","254744.881406","255511.487485","256278.210122","257045.293564","257811.800399","267803.750147","Mapping"
"Blocked","Female","ball","2","F_cad.wav","space","443.990337662","318","266277.830457","258561.267462","259327.608579","260094.537435","260861.430427","261628.382162","262395.027815","263161.752617","267044.904934","267794.263168","268561.284157","269327.638878","255511.487485","256278.210122","257045.293564","257811.800399","268571.069489","Mapping"
"Blocked","Female","ball","2","F_ball.wav","None","735.403391998","318","266277.830457","258561.267462","259327.608579","260094.537435","260861.430427","261628.382162","262395.027815","263161.752617","267044.904934","267794.263168","268561.284157","269327.638878","270094.635443","256278.210122","257045.293564","257811.800399","269331.963593","Mapping"
"Blocked","Female","ball","2","F_jaw.wav","space","350.431126542","318","266277.830457","258561.267462","259327.608579","260094.537435","260861.430427","261628.382162","262395.027815","263161.752617","267044.904934","267794.263168","268561.284157","269327.638878","270094.635443","270861.301502","257045.293564","257811.800399","270104.585255","Mapping"
"Blocked","Female","ball","2","F_cling.wav","None","724.870170467","318","266277.830457","258561.267462","259327.608579","260094.537435","260861.430427","261628.382162","262395.027815","263161.752617","267044.904934","267794.263168","268561.284157","269327.638878","270094.635443","270861.301502","271628.227884","257811.800399","270871.100128","Mapping"
"Blocked","Female","ball","2","F_dime.wav","None","721.806264017","318","266277.830457","258561.267462","259327.608579","260094.537435","260861.430427","261628.382162","262395.027815","263161.752617","267044.904934","267794.263168","268561.284157","269327.638878","270094.635443","270861.301502","271628.227884","272394.769964","271638.681339","Mapping"
"Blocked","Female","ball","2","F_lash.wav","None","720.758475829","318","266277.830457","273144.333798","259327.608579","260094.537435","260861.430427","261628.382162","262395.027815","263161.752617","267044.904934","267794.263168","268561.284157","269327.638878","270094.635443","270861.301502","271628.227884","272394.769964","272404.418951","Mapping"
"Blocked","Female","ball","2","F_ball.wav","None","735.71967613","318","266277.830457","273144.333798","273911.087662","260094.537435","260861.430427","261628.382162","262395.027815","263161.752617","267044.904934","267794.263168","268561.284157","269327.638878","270094.635443","270861.301502","271628.227884","272394.769964","273154.090686","Mapping"
"Blocked","Female","ball","2","F_bluff.wav","space","381.914542522","318","266277.830457","273144.333798","273911.087662","274678.269731","260861.430427","261628.382162","262395.027815","263161.752617","267044.904934","267794.263168","268561.284157","269327.638878","270094.635443","270861.301502","271628.227884","272394.769964","273920.979349","Mapping"
"Blocked","Female","ball","2","F_ball.wav","None","730.427867733","318","266277.830457","273144.333798","273911.087662","274678.269731","275444.504493","261628.382162","262395.027815","263161.752617","267044.904934","267794.263168","268561.284157","269327.638878","270094.635443","270861.301502","271628.227884","272394.769964","274688.093709","Mapping"
"Blocked","Female","ball","2","F_bluff.wav","space","360.171937384","318","266277.830457","273144.333798","273911.087662","274678.269731","275444.504493","276211.166841","262395.027815","263161.752617","267044.904934","267794.263168","268561.284157","269327.638878","270094.635443","270861.301502","271628.227884","272394.769964","275454.748947","Mapping"
"Blocked","Female","ball","2","F_bluff.wav","None","726.403978653","318","266277.830457","273144.333798","273911.087662","274678.269731","275444.504493","276211.166841","276977.792707","263161.752617","267044.904934","267794.263168","268561.284157","269327.638878","270094.635443","270861.301502","271628.227884","272394.769964","276220.946608","Mapping"
"Blocked","Female","ball","2","F_cling.wav","None","724.514930509","318","266277.830457","273144.333798","273911.087662","274678.269731","275444.504493","276211.166841","276977.792707","277744.870894","267044.904934","267794.263168","268561.284157","269327.638878","270094.635443","270861.301502","271628.227884","272394.769964","276987.443858","Mapping"
"Blocked","Female","done","23","F_greet.wav","None","721.212341916","318","280861.489788","273144.333798","273911.087662","274678.269731","275444.504493","276211.166841","276977.792707","277744.870894","267044.904934","267794.263168","268561.284157","269327.638878","270094.635443","270861.301502","271628.227884","272394.769964","277755.317238","Mapping"
"Blocked","Female","done","23","F_greet.wav","None","720.105502289","318","280861.489788","273144.333798","273911.087662","274678.269731","275444.504493","276211.166841","276977.792707","277744.870894","281611.381655","267794.263168","268561.284157","269327.638878","270094.635443","270861.301502","271628.227884","272394.769964","280871.735788","Mapping"
"Blocked","Female","done","23","F_done.wav","None","735.193463974","318","280861.489788","273144.333798","273911.087662","274678.269731","275444.504493","276211.166841","276977.792707","277744.870894","281611.381655","282377.474506","268561.284157","269327.638878","270094.635443","270861.301502","271628.227884","272394.769964","281621.294675","Mapping"
"Blocked","Female","done","23","F_lash.wav","space","523.712502327","318","280861.489788","273144.333798","273911.087662","274678.269731","275444.504493","276211.166841","276977.792707","277744.870894","281611.381655","282377.474506","283144.394706","269327.638878","270094.635443","270861.301502","271628.227884","272394.769964","282387.072789","Mapping"
"Blocked","Female","done","23","F_gnash.wav","None","730.76857673","318","280861.489788","273144.333798","273911.087662","274678.269731","275444.504493","276211.166841","276977.792707","277744.870894","281611.381655","282377.474506","283144.394706","283910.78931","270094.635443","270861.301502","271628.227884","272394.769964","283154.374507","Mapping"
"Blocked","Female","done","23","F_done.wav","None","729.564038105","318","280861.489788","273144.333798","273911.087662","274678.269731","275444.504493","276211.166841","276977.792707","277744.870894","281611.381655","282377.474506","283144.394706","283910.78931","284677.612119","270861.301502","271628.227884","272394.769964","283920.255575","Mapping"
"Blocked","Female","done","23","F_dime.wav","space","503.091268241","318","280861.489788","273144.333798","273911.087662","274678.269731","275444.504493","276211.166841","276977.792707","277744.870894","281611.381655","282377.474506","283144.394706","283910.78931","284677.612119","285444.361036","271628.227884","272394.769964","284687.64108","Mapping"
"Blocked","Female","done","23","F_done.wav","None","724.102184176","318","280861.489788","273144.333798","273911.087662","274678.269731","275444.504493","276211.166841","276977.792707","277744.870894","281611.381655","282377.474506","283144.394706","283910.78931","284677.612119","285444.361036","286211.498893","272394.769964","285454.454614","Mapping"
"Blocked","Female","done","23","F_park.wav","space","632.765928283","318","280861.489788","273144.333798","273911.087662","274678.269731","275444.504493","276211.166841","276977.792707","277744.870894","281611.381655","282377.474506","283144.394706","283910.78931","284677.612119","285444.361036","286211.498893","286977.743549","286221.944001","Mapping"
"Blocked","Female","done","23","F_romp.wav","None","719.556101598","318","280861.489788","287727.380657","273911.087662","274678.269731","275444.504493","276211.166841","276977.792707","277744.870894","281611.381655","282377.474506","283144.394706","283910.78931","284677.612119","285444.361036","286211.498893","286977.743549","286987.619778","Mapping"
"Blocked","Female","done","23","F_romp.wav","None","734.586556908","318","280861.489788","287727.380657","288494.273339","274678.269731","275444.504493","276211.166841","276977.792707","277744.870894","281611.381655","282377.474506","283144.394706","283910.78931","284677.612119","285444.361036","286211.498893","286977.743549","287737.350256","Mapping"
"Blocked","Female","done","23","F_greet.wav","None","725.328365341","318","280861.489788","287727.380657","288494.273339","289260.956093","275444.504493","276211.166841","276977.792707","277744.870894","281611.381655","282377.474506","283144.394706","283910.78931","284677.612119","285444.361036","286211.498893","286977.743549","288511.36227","Mapping"
"Blocked","Female","done","23","F_done.wav","None","729.6870891","318","280861.489788","287727.380657","288494.273339","289260.956093","290027.568356","276211.166841","276977.792707","277744.870894","281611.381655","282377.474506","283144.394706","283910.78931","284677.612119","285444.361036","286211.498893","286977.743549","289271.585777","Mapping"
"Blocked","Female","done","23","F_dime.wav","space","649.395427201","318","280861.489788","287727.380657","288494.273339","289260.956093","290027.568356","290794.252965","276977.792707","277744.870894","281611.381655","282377.474506","283144.394706","283910.78931","284677.612119","285444.361036","286211.498893","286977.743549","290037.228782","Mapping"
"Blocked","Female","done","23","F_dime.wav","None","725.817476865","318","280861.489788","287727.380657","288494.273339","289260.956093","290027.568356","290794.252965","291561.058461","277744.870894","281611.381655","282377.474506","283144.394706","283910.78931","284677.612119","285444.361036","286211.498893","286977.743549","290804.182062","Mapping"
"Blocked","Female","done","23","F_greet.wav","None","723.174973857","318","280861.489788","287727.380657","288494.273339","289260.956093","290027.568356","290794.252965","291561.058461","292327.318266","281611.381655","282377.474506","283144.394706","283910.78931","284677.612119","285444.361036","286211.498893","286977.743549","291571.36815","Mapping"
"Blocked","Female","ball","3","F_cad.wav","None","721.637146547","318","295444.559526","287727.380657","288494.273339","289260.956093","290027.568356","290794.252965","291561.058461","292327.318266","281611.381655","282377.474506","283144.394706","283910.78931","284677.612119","285444.361036","286211.498893","286977.743549","292337.530565","Mapping"
"Blocked","Female","ball","3","F_depth.wav","None","719.915979076","318","295444.559526","287727.380657","288494.273339","289260.956093","290027.568356","290794.252965","291561.058461","292327.318266","296194.213638","282377.474506","283144.394706","283910.78931","284677.612119","285444.361036","286211.498893","286977.743549","295454.654031","Mapping"
"Blocked","Female","ball","3","F_cad.wav","None","734.139183071","318","295444.559526","287727.380657","288494.273339","289260.956093","290027.568356","290794.252965","291561.058461","292327.318266","296194.213638","296960.606697","283144.394706","283910.78931","284677.612119","285444.361036","286211.498893","286977.743549","296205.082931","Mapping"
"Blocked","Female","ball","3","F_jaw.wav","None","733.390056062","318","295444.559526","287727.380657","288494.273339","289260.956093","290027.568356","290794.252965","291561.058461","292327.318266","296194.213638","296960.606697","297727.440018","283910.78931","284677.612119","285444.361036","286211.498893","286977.743549","296970.623599","Mapping"
"Blocked","Female","ball","3","F_reek.wav","None","732.027839404","318","295444.559526","287727.380657","288494.273339","289260.956093","290027.568356","290794.252965","291561.058461","292327.318266","296194.213638","296960.606697","297727.440018","298493.788556","284677.612119","285444.361036","286211.498893","286977.743549","297736.806111","Mapping"
"Blocked","Female","ball","3","F_ball.wav","None","730.117458384","318","295444.559526","287727.380657","288494.273339","289260.956093","290027.568356","290794.252965","291561.058461","292327.318266","296194.213638","296960.606697","297727.440018","298493.788556","299260.110814","285444.361036","286211.498893","286977.743549","298503.183402","Mapping"
"Blocked","Female","ball","3","F_dime.wav","space","353.343847208","318","295444.559526","287727.380657","288494.273339","289260.956093","290027.568356","290794.252965","291561.058461","292327.318266","296194.213638","296960.606697","297727.440018","298493.788556","299260.110814","300027.723561","286211.498893","286977.743549","299269.155367","Mapping"
"Blocked","Female","ball","3","F_park.wav","None","726.963581983","318","295444.559526","287727.380657","288494.273339","289260.956093","290027.568356","290794.252965","291561.058461","292327.318266","296194.213638","296960.606697","297727.440018","298493.788556","299260.110814","300027.723561","300794.051075","286977.743549","300037.58464","Mapping"
"Blocked","Female","ball","3","F_bluff.wav","None","725.219226908","318","295444.559526","287727.380657","288494.273339","289260.956093","290027.568356","290794.252965","291561.058461","292327.318266","296194.213638","296960.606697","297727.440018","298493.788556","299260.110814","300027.723561","300794.051075","301560.796591","300804.129812","Mapping"
"Blocked","Female","ball","3","F_ball.wav","None","723.021314945","318","295444.559526","302327.419984","288494.273339","289260.956093","290027.568356","290794.252965","291561.058461","292327.318266","296194.213638","296960.606697","297727.440018","298493.788556","299260.110814","300027.723561","300794.051075","301560.796591","301571.029605","Mapping"
"Blocked","Female","ball","3","F_knife.wav","space","413.270579185","318","295444.559526","302327.419984","303077.576193","289260.956093","290027.568356","290794.252965","291561.058461","292327.318266","296194.213638","296960.606697","297727.440018","298493.788556","299260.110814","300027.723561","300794.051075","301560.796591","302337.149355","Mapping"
"Blocked","Female","ball","3","F_ball.wav","None","735.401537269","318","295444.559526","302327.419984","303077.576193","303843.938644","290027.568356","290794.252965","291561.058461","292327.318266","296194.213638","296960.606697","297727.440018","298493.788556","299260.110814","300027.723561","300794.051075","301560.796591","303087.338646","Mapping"
"Blocked","Female","ball","3","F_romp.wav","space","600.579143036","318","295444.559526","302327.419984","303077.576193","303843.938644","304610.327065","290794.252965","291561.058461","292327.318266","296194.213638","296960.606697","297727.440018","298493.788556","299260.110814","300027.723561","300794.051075","301560.796591","303853.817037","Mapping"
"Blocked","Female","ball","3","F_depth.wav","None","732.53271915","318","295444.559526","302327.419984","303077.576193","303843.938644","304610.327065","305376.977356","291561.058461","292327.318266","296194.213638","296960.606697","297727.440018","298493.788556","299260.110814","300027.723561","300794.051075","301560.796591","304619.661622","Mapping"
"Blocked","Female","ball","3","F_ball.wav","None","731.176685076","318","295444.559526","302327.419984","303077.576193","303843.938644","304610.327065","305376.977356","306143.949187","292327.318266","296194.213638","296960.606697","297727.440018","298493.788556","299260.110814","300027.723561","300794.051075","301560.796591","305386.355198","Mapping"
"Blocked","Female","ball","3","F_dime.wav","space","556.40911404","318","295444.559526","302327.419984","303077.576193","303843.938644","304610.327065","305376.977356","306143.949187","306910.711708","296194.213638","296960.606697","297727.440018","298493.788556","299260.110814","300027.723561","300794.051075","301560.796591","306153.965471","Mapping"
"Blocked","Female","ball","5","F_lash.wav","None","725.972682238","318","310044.37934","302327.419984","303077.576193","303843.938644","304610.327065","305376.977356","306143.949187","306910.711708","296194.213638","296960.606697","297727.440018","298493.788556","299260.110814","300027.723561","300794.051075","301560.796591","306920.609887","Mapping"
"Blocked","Female","ball","5","F_park.wav","None","720.073039178","318","310044.37934","302327.419984","303077.576193","303843.938644","304610.327065","305376.977356","306143.949187","306910.711708","310794.155266","296960.606697","297727.440018","298493.788556","299260.110814","300027.723561","300794.051075","301560.796591","310054.3746","Mapping"
"Blocked","Female","ball","5","F_ball.wav","None","735.376494471","318","310044.37934","302327.419984","303077.576193","303843.938644","304610.327065","305376.977356","306143.949187","306910.711708","310794.155266","311560.218437","297727.440018","298493.788556","299260.110814","300027.723561","300794.051075","301560.796591","310803.871343","Mapping"
"Blocked","Female","ball","5","F_cad.wav","space","492.70397611","318","310044.37934","302327.419984","303077.576193","303843.938644","304610.327065","305376.977356","306143.949187","306910.711708","310794.155266","311560.218437","312326.624481","298493.788556","299260.110814","300027.723561","300794.051075","301560.796591","311569.557013","Mapping"
"Blocked","Female","ball","5","F_knife.wav","None","731.463288888","318","310044.37934","302327.419984","303077.576193","303843.938644","304610.327065","305376.977356","306143.949187","306910.711708","310794.155266","311560.218437","312326.624481","313093.805313","299260.110814","300027.723561","300794.051075","301560.796591","312336.662407","Mapping"
"Blocked","Female","ball","5","F_cad.wav","None","728.681657929","318","310044.37934","302327.419984","303077.576193","303843.938644","304610.327065","305376.977356","306143.949187","306910.711708","310794.155266","311560.218437","312326.624481","313093.805313","313860.33348","300027.723561","300794.051075","301560.796591","313104.32153","Mapping"
"Blocked","Female","ball","5","F_greet.wav","None","727.667260449","318","310044.37934","302327.419984","303077.576193","303843.938644","304610.327065","305376.977356","306143.949187","306910.711708","310794.155266","311560.218437","312326.624481","313093.805313","313860.33348","314627.155671","300794.051075","301560.796591","313870.15344","Mapping"
"Blocked","Female","ball","5","F_jolt.wav","None","726.31153604","318","310044.37934","302327.419984","303077.576193","303843.938644","304610.327065","305376.977356","306143.949187","306910.711708","310794.155266","311560.218437","312326.624481","313093.805313","313860.33348","314627.155671","315394.184081","301560.796591","314636.303488","Mapping"
"Blocked","Female","ball","5","F_depth.wav","None","723.150239792","318","310044.37934","302327.419984","303077.576193","303843.938644","304610.327065","305376.977356","306143.949187","306910.711708","310794.155266","311560.218437","312326.624481","313093.805313","313860.33348","314627.155671","315394.184081","316160.600019","315404.313214","Mapping"
"Blocked","Female","ball","5","F_ball.wav","None","720.952327363","318","310044.37934","316927.459002","303077.576193","303843.938644","304610.327065","305376.977356","306143.949187","306910.711708","310794.155266","311560.218437","312326.624481","313093.805313","313860.33348","314627.155671","315394.184081","316160.600019","316171.33173","Mapping"
"Blocked","Female","ball","5","F_greet.wav","space","476.849574596","318","310044.37934","316927.459002","317676.857428","303843.938644","304610.327065","305376.977356","306143.949187","306910.711708","310794.155266","311560.218437","312326.624481","313093.805313","313860.33348","314627.155671","315394.184081","316160.600019","316937.319153","Mapping"
"Blocked","Female","ball","5","F_jaw.wav","None","734.59552275","318","310044.37934","316927.459002","317676.857428","318443.510192","304610.327065","305376.977356","306143.949187","306910.711708","310794.155266","311560.218437","312326.624481","313093.805313","313860.33348","314627.155671","315394.184081","316160.600019","317686.612151","Mapping"
"Blocked","Female","ball","5","F_ball.wav","None","733.108090237","318","310044.37934","316927.459002","317676.857428","318443.510192","319210.270857","305376.977356","306143.949187","306910.711708","310794.155266","311560.218437","312326.624481","313093.805313","313860.33348","314627.155671","315394.184081","316160.600019","318452.925752","Mapping"
"Blocked","Female","ball","5","F_cling.wav","space","521.926408634","318","310044.37934","316927.459002","317676.857428","318443.510192","319210.270857","319977.01792","306143.949187","306910.711708","310794.155266","311560.218437","312326.624481","313093.805313","313860.33348","314627.155671","315394.184081","316160.600019","319220.16811","Mapping"
"Blocked","Female","ball","5","F_ball.wav","None","728.371247649","318","310044.37934","316927.459002","317676.857428","318443.510192","319210.270857","319977.01792","320743.381916","306910.711708","310794.155266","311560.218437","312326.624481","313093.805313","313860.33348","314627.155671","315394.184081","316160.600019","319986.572299","Mapping"
"Blocked","Female","ball","5","F_bluff.wav","space","525.355139747","318","310044.37934","316927.459002","317676.857428","318443.510192","319210.270857","319977.01792","320743.381916","321510.76031","310794.155266","311560.218437","312326.624481","313093.805313","313860.33348","314627.155671","315394.184081","316160.600019","320752.701014","Mapping"
"Blocked","Female","cave","12","F_priest.wav","None","722.811695188","318","324627.318297","316927.459002","317676.857428","318443.510192","319210.270857","319977.01792","320743.381916","321510.76031","310794.155266","311560.218437","312326.624481","313093.805313","313860.33348","314627.155671","315394.184081","316160.600019","321520.988377","Mapping"
"Blocked","Female","cave","12","F_jolt.wav","None","720.581938047","318","324627.318297","316927.459002","317676.857428","318443.510192","319210.270857","319977.01792","320743.381916","321510.76031","325394.011563","311560.218437","312326.624481","313093.805313","313860.33348","314627.155671","315394.184081","316160.600019","324637.606344","Mapping"
"Blocked","Female","cave","12","F_cave.wav","None","718.869736884","318","324627.318297","316927.459002","317676.857428","318443.510192","319210.270857","319977.01792","320743.381916","321510.76031","325394.011563","326143.410607","312326.624481","313093.805313","313860.33348","314627.155671","315394.184081","316160.600019","325404.148424","Mapping"
"Blocked","Female","cave","12","F_reek.wav","space","468.719247263","318","324627.318297","316927.459002","317676.857428","318443.510192","319210.270857","319977.01792","320743.381916","321510.76031","325394.011563","326143.410607","326910.098926","313093.805313","313860.33348","314627.155671","315394.184081","316160.600019","326153.25901","Mapping"
"Blocked","Female","cave","12","F_cave.wav","None","731.944671832","318","324627.318297","316927.459002","317676.857428","318443.510192","319210.270857","319977.01792","320743.381916","321510.76031","325394.011563","326143.410607","326910.098926","327676.877524","313860.33348","314627.155671","315394.184081","316160.600019","326919.848394","Mapping"
"Blocked","Female","cave","12","F_cad.wav","space","383.83017946","318","324627.318297","316927.459002","317676.857428","318443.510192","319210.270857","319977.01792","320743.381916","321510.76031","325394.011563","326143.410607","326910.098926","327676.877524","328443.249559","314627.155671","315394.184081","316160.600019","327686.132315","Mapping"
"Blocked","Female","cave","12","F_priest.wav","None","727.757229935","318","324627.318297","316927.459002","317676.857428","318443.510192","319210.270857","319977.01792","320743.381916","321510.76031","325394.011563","326143.410607","326910.098926","327676.877524","328443.249559","329210.057837","315394.184081","316160.600019","328452.709331","Mapping"
"Blocked","Female","cave","12","F_park.wav","None","725.560245104","318","324627.318297","316927.459002","317676.857428","318443.510192","319210.270857","319977.01792","320743.381916","321510.76031","325394.011563","326143.410607","326910.098926","327676.877524","328443.249559","329210.057837","329977.355537","316160.600019","329219.910259","Mapping"
"Blocked","Female","cave","12","F_greet.wav","None","723.126742523","318","324627.318297","316927.459002","317676.857428","318443.510192","319210.270857","319977.01792","320743.381916","321510.76031","325394.011563","326143.410607","326910.098926","327676.877524","328443.249559","329210.057837","329977.355537","330743.616269","329987.191264","Mapping"
"Blocked","Female","cave","12","F_park.wav","None","721.943227574","318","324627.318297","331510.37508","317676.857428","318443.510192","319210.270857","319977.01792","320743.381916","321510.76031","325394.011563","326143.410607","326910.098926","327676.877524","328443.249559","329210.057837","329977.355537","330743.616269","330753.382432","Mapping"
"Blocked","Female","cave","12","F_reek.wav","None","720.034392551","318","324627.318297","331510.37508","332260.043723","318443.510192","319210.270857","319977.01792","320743.381916","321510.76031","325394.011563","326143.410607","326910.098926","327676.877524","328443.249559","329210.057837","329977.355537","330743.616269","331520.257492","Mapping"
"Blocked","Female","cave","12","F_priest.wav","None","734.209674411","318","324627.318297","331510.37508","332260.043723","333026.939498","319210.270857","319977.01792","320743.381916","321510.76031","325394.011563","326143.410607","326910.098926","327676.877524","328443.249559","329210.057837","329977.355537","330743.616269","332270.858911","Mapping"
"Blocked","Female","cave","12","F_cave.wav","None","733.34337119","318","324627.318297","331510.37508","332260.043723","333026.939498","333793.467356","319977.01792","320743.381916","321510.76031","325394.011563","326143.410607","326910.098926","327676.877524","328443.249559","329210.057837","329977.355537","330743.616269","333036.590339","Mapping"
"Blocked","Female","cave","12","F_knife.wav","space","522.566706408","318","324627.318297","331510.37508","332260.043723","333026.939498","333793.467356","334559.94049","320743.381916","321510.76031","325394.011563","326143.410607","326910.098926","327676.877524","328443.249559","329210.057837","329977.355537","330743.616269","333803.290098","Mapping"
"Blocked","Female","cave","12","F_cave.wav","None","728.841190692","318","324627.318297","331510.37508","332260.043723","333026.939498","333793.467356","334559.94049","335326.560791","321510.76031","325394.011563","326143.410607","326910.098926","327676.877524","328443.249559","329210.057837","329977.355537","330743.616269","334569.860313","Mapping"
"Blocked","Female","cave","12","F_priest.wav","None","726.760764606","318","324627.318297","331510.37508","332260.043723","333026.939498","333793.467356","334559.94049","335326.560791","336093.390093","325394.011563","326143.410607","326910.098926","327676.877524","328443.249559","329210.057837","329977.355537","330743.616269","335336.739392","Mapping"
"Blocked","Female","ball","1","F_bluff.wav","space","118.458165787","318","339210.268384","331510.37508","332260.043723","333026.939498","333793.467356","334559.94049","335326.560791","336093.390093","325394.011563","326143.410607","326910.098926","327676.877524","328443.249559","329210.057837","329977.355537","330743.616269","336103.350726","Mapping"
"Blocked","Female","ball","1","F_depth.wav","None","720.104574692","318","339210.268384","331510.37508","332260.043723","333026.939498","333793.467356","334559.94049","335326.560791","336093.390093","339977.094594","326143.410607","326910.098926","327676.877524","328443.249559","329210.057837","329977.355537","330743.616269","339220.683811","Mapping"
"Blocked","Female","ball","1","F_greet.wav","None","718.5723125","318","339210.268384","331510.37508","332260.043723","333026.939498","333793.467356","334559.94049","335326.560791","336093.390093","339977.094594","340726.491475","326910.098926","327676.877524","328443.249559","329210.057837","329977.355537","330743.616269","339987.246296","Mapping"
"Blocked","Female","ball","1","F_greet.wav","None","734.572025482","318","339210.268384","331510.37508","332260.043723","333026.939498","333793.467356","334559.94049","335326.560791","336093.390093","339977.094594","340726.491475","341493.350767","327676.877524","328443.249559","329210.057837","329977.355537","330743.616269","340736.35781","Mapping"
"Blocked","Female","ball","1","F_knife.wav","None","732.546322513","318","339210.268384","331510.37508","332260.043723","333026.939498","333793.467356","334559.94049","335326.560791","336093.390093","339977.094594","340726.491475","341493.350767","342259.6823","328443.249559","329210.057837","329977.355537","330743.616269","341503.380345","Mapping"
"Blocked","Female","ball","1","F_ball.wav","None","731.714646798","318","339210.268384","331510.37508","332260.043723","333026.939498","333793.467356","334559.94049","335326.560791","336093.390093","339977.094594","340726.491475","341493.350767","342259.6823","343026.885701","329210.057837","329977.355537","330743.616269","342269.170207","Mapping"
"Blocked","Female","ball","1","F_dime.wav","space","433.016544208","318","339210.268384","331510.37508","332260.043723","333026.939498","333793.467356","334559.94049","335326.560791","336093.390093","339977.094594","340726.491475","341493.350767","342259.6823","343026.885701","343793.292673","329977.355537","330743.616269","343036.649391","Mapping"
"Blocked","Female","ball","1","F_reek.wav","None","726.798174437","318","339210.268384","331510.37508","332260.043723","333026.939498","333793.467356","334559.94049","335326.560791","336093.390093","339977.094594","340726.491475","341493.350767","342259.6823","343026.885701","343793.292673","344559.624515","330743.616269","343803.213113","Mapping"
"Blocked","Female","ball","1","F_ball.wav","None","726.205798332","318","339210.268384","331510.37508","332260.043723","333026.939498","333793.467356","334559.94049","335326.560791","336093.390093","339977.094594","340726.491475","341493.350767","342259.6823","343026.885701","343793.292673","344559.624515","345326.25842","344569.026782","Mapping"
"Blocked","Female","ball","1","F_cad.wav","space","429.451468401","318","339210.268384","346093.289922","332260.043723","333026.939498","333793.467356","334559.94049","335326.560791","336093.390093","339977.094594","340726.491475","341493.350767","342259.6823","343026.885701","343793.292673","344559.624515","345326.25842","345336.21256","Mapping"
"Blocked","Female","ball","1","F_depth.wav","None","721.087126993","318","339210.268384","346093.289922","346860.258351","333026.939498","333793.467356","334559.94049","335326.560791","336093.390093","339977.094594","340726.491475","341493.350767","342259.6823","343026.885701","343793.292673","344559.624515","345326.25842","346103.163677","Mapping"
"Blocked","Female","ball","1","F_dime.wav","None","724.682502449","318","339210.268384","346093.289922","346860.258351","347609.583194","333793.467356","334559.94049","335326.560791","336093.390093","339977.094594","340726.491475","341493.350767","342259.6823","343026.885701","343793.292673","344559.624515","345326.25842","346864.981281","Mapping"
"Blocked","Female","ball","1","F_ball.wav","None","735.415449832","318","339210.268384","346093.289922","346860.258351","347609.583194","348376.51947","334559.94049","335326.560791","336093.390093","339977.094594","340726.491475","341493.350767","342259.6823","343026.885701","343793.292673","344559.624515","345326.25842","347619.301126","Mapping"
"Blocked","Female","ball","1","F_gnash.wav","space","363.137217704","318","339210.268384","346093.289922","346860.258351","347609.583194","348376.51947","349143.188621","335326.560791","336093.390093","339977.094594","340726.491475","341493.350767","342259.6823","343026.885701","343793.292673","344559.624515","345326.25842","348386.497417","Mapping"
"Blocked","Female","ball","1","F_ball.wav","None","730.714162346","318","339210.268384","346093.289922","346860.258351","347609.583194","348376.51947","349143.188621","349909.816033","336093.390093","339977.094594","340726.491475","341493.350767","342259.6823","343026.885701","343793.292673","344559.624515","345326.25842","349153.119573","Mapping"
"Blocked","Female","ball","1","F_greet.wav","space","509.990468156","318","339210.268384","346093.289922","346860.258351","347609.583194","348376.51947","349143.188621","349909.816033","350676.626475","339977.094594","340726.491475","341493.350767","342259.6823","343026.885701","343793.292673","344559.624515","345326.25842","349919.584051","Mapping"
"Blocked","Female","cave","8","F_jaw.wav","None","726.327612996","318","353810.082014","346093.289922","346860.258351","347609.583194","348376.51947","349143.188621","349909.816033","350676.626475","339977.094594","340726.491475","341493.350767","342259.6823","343026.885701","343793.292673","344559.624515","345326.25842","350686.58278","Mapping"
"Blocked","Female","cave","8","F_cave.wav","None","720.187123865","318","353810.082014","346093.289922","346860.258351","347609.583194","348376.51947","349143.188621","349909.816033","350676.626475","354576.720866","340726.491475","341493.350767","342259.6823","343026.885701","343793.292673","344559.624515","345326.25842","353820.246702","Mapping"
"Blocked","Female","cave","8","F_jolt.wav","space","570.381578524","318","353810.082014","346093.289922","346860.258351","347609.583194","348376.51947","349143.188621","349909.816033","350676.626475","354576.720866","355325.896378","341493.350767","342259.6823","343026.885701","343793.292673","344559.624515","345326.25842","354587.082806","Mapping"
"Blocked","Female","cave","8","F_depth.wav","None","733.431794681","318","353810.082014","346093.289922","346860.258351","347609.583194","348376.51947","349143.188621","349909.816033","350676.626475","354576.720866","355325.896378","356093.046911","342259.6823","343026.885701","343793.292673","344559.624515","345326.25842","355336.038496","Mapping"
"Blocked","Female","cave","8","F_cling.wav","None","731.066619977","318","353810.082014","346093.289922","346860.258351","347609.583194","348376.51947","349143.188621","349909.816033","350676.626475","354576.720866","355325.896378","356093.046911","356859.774186","343026.885701","343793.292673","344559.624515","345326.25842","356103.483362","Mapping"
"Blocked","Female","cave","8","F_cave.wav","None","729.914331343","318","353810.082014","346093.289922","346860.258351","347609.583194","348376.51947","349143.188621","349909.816033","350676.626475","354576.720866","355325.896378","356093.046911","356859.774186","357626.40098","343793.292673","344559.624515","345326.25842","356869.659999","Mapping"
"Blocked","Female","cave","8","F_romp.wav","space","401.440066751","318","353810.082014","346093.289922","346860.258351","347609.583194","348376.51947","349143.188621","349909.816033","350676.626475","354576.720866","355325.896378","356093.046911","356859.774186","357626.40098","358393.080333","344559.624515","345326.25842","357635.998025","Mapping"
"Blocked","Female","cave","8","F_priest.wav","None","725.787178148","318","353810.082014","346093.289922","346860.258351","347609.583194","348376.51947","349143.188621","349909.816033","350676.626475","354576.720866","355325.896378","356093.046911","356859.774186","357626.40098","358393.080333","359159.489159","345326.25842","358402.865665","Mapping"
"Blocked","Female","cave","8","F_lash.wav","None","724.102802575","318","353810.082014","346093.289922","346860.258351","347609.583194","348376.51947","349143.188621","349909.816033","350676.626475","354576.720866","355325.896378","356093.046911","356859.774186","357626.40098","358393.080333","359159.489159","359926.5995","359169.516264","Mapping"
"Blocked","Female","cave","8","F_cave.wav","None","722.47624211","318","353810.082014","360693.499912","346860.258351","347609.583194","348376.51947","349143.188621","349909.816033","350676.626475","354576.720866","355325.896378","356093.046911","356859.774186","357626.40098","358393.080333","359159.489159","359926.5995","359936.214477","Mapping"
"Blocked","Female","cave","8","F_lash.wav","space","365.051617846","318","353810.082014","360693.499912","361442.610188","347609.583194","348376.51947","349143.188621","349909.816033","350676.626475","354576.720866","355325.896378","356093.046911","356859.774186","357626.40098","358393.080333","359159.489159","359926.5995","360704.342925","Mapping"
"Blocked","Female","cave","8","F_dime.wav","None","735.326098744","318","353810.082014","360693.499912","361442.610188","362209.421868","348376.51947","349143.188621","349909.816033","350676.626475","354576.720866","355325.896378","356093.046911","356859.774186","357626.40098","358393.080333","359159.489159","359926.5995","361452.371405","Mapping"
"Blocked","Female","cave","8","F_cave.wav","None","733.762301039","318","353810.082014","360693.499912","361442.610188","362209.421868","362976.283324","349143.188621","349909.816033","350676.626475","354576.720866","355325.896378","356093.046911","356859.774186","357626.40098","358393.080333","359159.489159","359926.5995","362219.291604","Mapping"
"Blocked","Female","cave","8","F_reek.wav","space","475.568051916","318","353810.082014","360693.499912","361442.610188","362209.421868","362976.283324","363742.905789","349909.816033","350676.626475","354576.720866","355325.896378","356093.046911","356859.774186","357626.40098","358393.080333","359159.489159","359926.5995","362985.777724","Mapping"
"Blocked","Female","cave","8","F_cad.wav","None","729.379152413","318","353810.082014","360693.499912","361442.610188","362209.421868","362976.283324","363742.905789","364509.435812","350676.626475","354576.720866","355325.896378","356093.046911","356859.774186","357626.40098","358393.080333","359159.489159","359926.5995","363752.707198","Mapping"
"Blocked","Female","cave","8","F_cling.wav","None","727.985399775","318","353810.082014","360693.499912","361442.610188","362209.421868","362976.283324","363742.905789","364509.435812","365276.474424","354576.720866","355325.896378","356093.046911","356859.774186","357626.40098","358393.080333","359159.489159","359926.5995","364519.096856","Mapping"
"Blocked","Female","tile","18","F_dime.wav","None","726.021840703","318","368409.704885","360693.499912","361442.610188","362209.421868","362976.283324","363742.905789","364509.435812","365276.474424","354576.720866","355325.896378","356093.046911","356859.774186","357626.40098","358393.080333","359159.489159","359926.5995","365286.211215","Mapping"
"Blocked","Female","tile","18","F_priest.wav","None","719.561357517","318","368409.704885","360693.499912","361442.610188","362209.421868","362976.283324","363742.905789","364509.435812","365276.474424","369176.250675","355325.896378","356093.046911","356859.774186","357626.40098","358393.080333","359159.489159","359926.5995","368420.835429","Mapping"
"Blocked","Female","tile","18","F_tile.wav","None","719.301652163","318","368409.704885","360693.499912","361442.610188","362209.421868","362976.283324","363742.905789","364509.435812","365276.474424","369176.250675","369926.703691","356093.046911","356859.774186","357626.40098","358393.080333","359159.489159","359926.5995","369186.372696","Mapping"
"Blocked","Female","tile","18","F_knife.wav","space","540.678999852","318","368409.704885","360693.499912","361442.610188","362209.421868","362976.283324","363742.905789","364509.435812","365276.474424","369176.250675","369926.703691","370692.807982","356859.774186","357626.40098","358393.080333","359159.489159","359926.5995","369936.519322","Mapping"
"Blocked","Female","tile","18","F_tile.wav","None","732.251680456","318","368409.704885","360693.499912","361442.610188","362209.421868","362976.283324","363742.905789","364509.435812","365276.474424","369176.250675","369926.703691","370692.807982","371459.411897","357626.40098","358393.080333","359159.489159","359926.5995","370702.670916","Mapping"
"Blocked","Female","tile","18","F_jolt.wav","space","560.162785463","318","368409.704885","360693.499912","361442.610188","362209.421868","362976.283324","363742.905789","364509.435812","365276.474424","369176.250675","369926.703691","370692.807982","371459.411897","372226.309217","358393.080333","359159.489159","359926.5995","371469.006778","Mapping"
"Blocked","Female","tile","18","F_romp.wav","None","727.661076933","318","368409.704885","360693.499912","361442.610188","362209.421868","362976.283324","363742.905789","364509.435812","365276.474424","369176.250675","369926.703691","370692.807982","371459.411897","372226.309217","372992.748342","359159.489159","359926.5995","372236.675486","Mapping"
"Blocked","Female","tile","18","F_dime.wav","None","727.0909613","318","368409.704885","360693.499912","361442.610188","362209.421868","362976.283324","363742.905789","364509.435812","365276.474424","369176.250675","369926.703691","370692.807982","371459.411897","372226.309217","372992.748342","373759.222095","359926.5995","373002.492245","Mapping"
"Blocked","Female","tile","18","F_tile.wav","None","726.210127119","318","368409.704885","360693.499912","361442.610188","362209.421868","362976.283324","363742.905789","364509.435812","365276.474424","369176.250675","369926.703691","370692.807982","371459.411897","372226.309217","372992.748342","373759.222095","374526.999013","373768.625908","Mapping"
"Blocked","Female","tile","18","F_jaw.wav","space","556.021101773","318","368409.704885","375293.205332","361442.610188","362209.421868","362976.283324","363742.905789","364509.435812","365276.474424","369176.250675","369926.703691","370692.807982","371459.411897","372226.309217","372992.748342","373759.222095","374526.999013","374537.101248","Mapping"
"Blocked","Female","tile","18","F_bluff.wav","None","720.722611994","318","368409.704885","375293.205332","376059.541193","362209.421868","362976.283324","363742.905789","364509.435812","365276.474424","369176.250675","369926.703691","370692.807982","371459.411897","372226.309217","372992.748342","373759.222095","374526.999013","375303.545938","Mapping"
"Blocked","Female","tile","18","F_tile.wav","None","720.06407287","318","368409.704885","375293.205332","376059.541193","376809.344327","362976.283324","363742.905789","364509.435812","365276.474424","369176.250675","369926.703691","370692.807982","371459.411897","372226.309217","372992.748342","373759.222095","374526.999013","376069.482658","Mapping"
"Blocked","Female","tile","18","F_depth.wav","space","602.506529074","318","368409.704885","375293.205332","376059.541193","376809.344327","377576.15075","363742.905789","364509.435812","365276.474424","369176.250675","369926.703691","370692.807982","371459.411897","372226.309217","372992.748342","373759.222095","374526.999013","376818.572838","Mapping"
"Blocked","Female","tile","18","F_park.wav","None","733.154775575","318","368409.704885","375293.205332","376059.541193","376809.344327","377576.15075","378342.668406","364509.435812","365276.474424","369176.250675","369926.703691","370692.807982","371459.411897","372226.309217","372992.748342","373759.222095","374526.999013","377585.776549","Mapping"
"Blocked","Female","tile","18","F_greet.wav","None","732.066794764","318","368409.704885","375293.205332","376059.541193","376809.344327","377576.15075","378342.668406","379109.165038","365276.474424","369176.250675","369926.703691","370692.807982","371459.411897","372226.309217","372992.748342","373759.222095","374526.999013","378352.706951","Mapping"
"Blocked","Female","tile","18","F_jolt.wav","None","731.112377252","318","368409.704885","375293.205332","376059.541193","376809.344327","377576.15075","378342.668406","379109.165038","379875.950746","369176.250675","369926.703691","370692.807982","371459.411897","372226.309217","372992.748342","373759.222095","374526.999013","379119.031373","Mapping"
"Blocked","Female","cave","10","F_jolt.wav","None","729.982040357","318","383009.392991","375293.205332","376059.541193","376809.344327","377576.15075","378342.668406","379109.165038","379875.950746","369176.250675","369926.703691","370692.807982","371459.411897","372226.309217","372992.748342","373759.222095","374526.999013","379885.53326","Mapping"
"Blocked","Female","cave","10","F_priest.wav","None","720.426423941","318","383009.392991","375293.205332","376059.541193","376809.344327","377576.15075","378342.668406","379109.165038","379875.950746","383776.566094","369926.703691","370692.807982","371459.411897","372226.309217","372992.748342","373759.222095","374526.999013","383019.626933","Mapping"
"Blocked","Female","cave","10","F_jolt.wav","None","718.443387188","318","383009.392991","375293.205332","376059.541193","376809.344327","377576.15075","378342.668406","379109.165038","379875.950746","383776.566094","384526.096228","370692.807982","371459.411897","372226.309217","372992.748342","373759.222095","374526.999013","383786.984921","Mapping"
"Blocked","Female","cave","10","F_dime.wav","None","734.496278223","318","383009.392991","375293.205332","376059.541193","376809.344327","377576.15075","378342.668406","379109.165038","379875.950746","383776.566094","384526.096228","385292.480939","371459.411897","372226.309217","372992.748342","373759.222095","374526.999013","384535.97462","Mapping"
"Blocked","Female","cave","10","F_cave.wav","None","733.303487767","318","383009.392991","375293.205332","376059.541193","376809.344327","377576.15075","378342.668406","379109.165038","379875.950746","383776.566094","384526.096228","385292.480939","386059.210687","372226.309217","372992.748342","373759.222095","374526.999013","385302.386539","Mapping"
"Blocked","Female","cave","10","F_reek.wav","space","504.037956242","318","383009.392991","375293.205332","376059.541193","376809.344327","377576.15075","378342.668406","379109.165038","379875.950746","383776.566094","384526.096228","385292.480939","386059.210687","386825.558297","372992.748342","373759.222095","374526.999013","386068.876987","Mapping"
"Blocked","Female","cave","10","F_cave.wav","None","729.913094547","318","383009.392991","375293.205332","376059.541193","376809.344327","377576.15075","378342.668406","379109.165038","379875.950746","383776.566094","384526.096228","385292.480939","386059.210687","386825.558297","387592.502612","373759.222095","374526.999013","386834.973858","Mapping"
"Blocked","Female","cave","10","F_bluff.wav","space","594.350849278","318","383009.392991","375293.205332","376059.541193","376809.344327","377576.15075","378342.668406","379109.165038","379875.950746","383776.566094","384526.096228","385292.480939","386059.210687","386825.558297","387592.502612","388358.901236","374526.999013","387602.542084","Mapping"
"Blocked","Female","cave","10","F_dime.wav","None","726.229914464","318","383009.392991","375293.205332","376059.541193","376809.344327","377576.15075","378342.668406","379109.165038","379875.950746","383776.566094","384526.096228","385292.480939","386059.210687","386825.558297","387592.502612","388358.901236","389126.210374","388367.891992","Mapping"
"Blocked","Female","cave","10","F_cave.wav","None","722.812313586","318","383009.392991","389892.565405","376059.541193","376809.344327","377576.15075","378342.668406","379109.165038","379875.950746","383776.566094","384526.096228","385292.480939","386059.210687","386825.558297","387592.502612","388358.901236","389126.210374","389136.43535","Mapping"
"Blocked","Female","cave","10","F_bluff.wav","space","566.796714906","318","383009.392991","389892.565405","390659.2664","376809.344327","377576.15075","378342.668406","379109.165038","379875.950746","383776.566094","384526.096228","385292.480939","386059.210687","386825.558297","387592.502612","388358.901236","389126.210374","389902.049911","Mapping"
"Blocked","Female","cave","10","F_cave.wav","None","718.826143537","318","383009.392991","389892.565405","390659.2664","391408.822196","377576.15075","378342.668406","379109.165038","379875.950746","383776.566094","384526.096228","385292.480939","386059.210687","386825.558297","387592.502612","388358.901236","389126.210374","390669.70316","Mapping"
"Blocked","Female","cave","10","F_jaw.wav","space","457.91055169","318","383009.392991","389892.565405","390659.2664","391408.822196","392175.785061","378342.668406","379109.165038","379875.950746","383776.566094","384526.096228","385292.480939","386059.210687","386825.558297","387592.502612","388358.901236","389126.210374","391418.878672","Mapping"
"Blocked","Female","cave","10","F_park.wav","None","732.232820708","318","383009.392991","389892.565405","390659.2664","391408.822196","392175.785061","392942.418347","379109.165038","379875.950746","383776.566094","384526.096228","385292.480939","386059.210687","386825.558297","387592.502612","388358.901236","389126.210374","392185.548132","Mapping"
"Blocked","Female","cave","10","F_depth.wav","None","730.573797598","318","383009.392991","389892.565405","390659.2664","391408.822196","392175.785061","392942.418347","393708.833666","379875.950746","383776.566094","384526.096228","385292.480939","386059.210687","386825.558297","387592.502612","388358.901236","389126.210374","392952.342497","Mapping"
"Blocked","Female","cave","10","F_romp.wav","None","729.718933813","318","383009.392991","389892.565405","390659.2664","391408.822196","392175.785061","392942.418347","393708.833666","394474.965473","383776.566094","384526.096228","385292.480939","386059.210687","386825.558297","387592.502612","388358.901236","389126.210374","393718.491","Mapping"
"Blocked","Female","done","21","F_dime.wav","None","734.942724463","318","397609.422424","389892.565405","390659.2664","391408.822196","392175.785061","392942.418347","393708.833666","394474.965473","383776.566094","384526.096228","385292.480939","386059.210687","386825.558297","387592.502612","388358.901236","389126.210374","394484.063822","Mapping"
"Blocked","Female","done","21","F_reek.wav","None","720.393342897","318","397609.422424","389892.565405","390659.2664","391408.822196","392175.785061","392942.418347","393708.833666","394474.965473","398376.008716","384526.096228","385292.480939","386059.210687","386825.558297","387592.502612","388358.901236","389126.210374","397619.454785","Mapping"
"Blocked","Female","done","21","F_jaw.wav","None","719.044419471","318","397609.422424","389892.565405","390659.2664","391408.822196","392175.785061","392942.418347","393708.833666","394474.965473","398376.008716","399125.283782","385292.480939","386059.210687","386825.558297","387592.502612","388358.901236","389126.210374","398386.216379","Mapping"
"Blocked","Female","done","21","F_done.wav","None","735.810882412","318","397609.422424","389892.565405","390659.2664","391408.822196","392175.785061","392942.418347","393708.833666","394474.965473","398376.008716","399125.283782","399892.179247","386059.210687","386825.558297","387592.502612","388358.901236","389126.210374","399134.811882","Mapping"
"Blocked","Female","done","21","F_cad.wav","space","318.396454677","318","397609.422424","389892.565405","390659.2664","391408.822196","392175.785061","392942.418347","393708.833666","394474.965473","398376.008716","399125.283782","399892.179247","400658.721328","386825.558297","387592.502612","388358.901236","389126.210374","399902.26726","Mapping"
"Blocked","Female","done","21","F_done.wav","None","730.721273459","318","397609.422424","389892.565405","390659.2664","391408.822196","392175.785061","392942.418347","393708.833666","394474.965473","398376.008716","399125.283782","399892.179247","400658.721328","401425.751902","387592.502612","388358.901236","389126.210374","400669.23167","Mapping"
"Blocked","Female","done","21","F_greet.wav","space","473.108578939","318","397609.422424","389892.565405","390659.2664","391408.822196","392175.785061","392942.418347","393708.833666","394474.965473","398376.008716","399125.283782","399892.179247","400658.721328","401425.751902","402192.214215","388358.901236","389126.210374","401435.551146","Mapping"
"Blocked","Female","done","21","F_lash.wav","None","727.221433073","318","397609.422424","389892.565405","390659.2664","391408.822196","392175.785061","392942.418347","393708.833666","394474.965473","398376.008716","399125.283782","399892.179247","400658.721328","401425.751902","402192.214215","402958.720122","389126.210374","402202.049942","Mapping"
"Blocked","Female","done","21","F_park.wav","None","726.148292422","318","397609.422424","389892.565405","390659.2664","391408.822196","392175.785061","392942.418347","393708.833666","394474.965473","398376.008716","399125.283782","399892.179247","400658.721328","401425.751902","402192.214215","402958.720122","403725.512323","402968.571308","Mapping"
"Blocked","Female","done","21","F_romp.wav","None","724.702289328","318","397609.422424","404492.493738","390659.2664","391408.822196","392175.785061","392942.418347","393708.833666","394474.965473","398376.008716","399125.283782","399892.179247","400658.721328","401425.751902","402192.214215","402958.720122","403725.512323","403735.402156","Mapping"
"Blocked","Female","done","21","F_done.wav","None","722.591563594","318","397609.422424","404492.493738","405259.081267","391408.822196","392175.785061","392942.418347","393708.833666","394474.965473","398376.008716","399125.283782","399892.179247","400658.721328","401425.751902","402192.214215","402958.720122","403725.512323","404502.732009","Mapping"
"Blocked","Female","done","21","F_gnash.wav","space","510.640040971","318","397609.422424","404492.493738","405259.081267","406026.140594","392175.785061","392942.418347","393708.833666","394474.965473","398376.008716","399125.283782","399892.179247","400658.721328","401425.751902","402192.214215","402958.720122","403725.512323","405269.938812","Mapping"
"Blocked","Female","done","21","F_cling.wav","None","718.480178621","318","397609.422424","404492.493738","405259.081267","406026.140594","406774.943553","392942.418347","393708.833666","394474.965473","398376.008716","399125.283782","399892.179247","400658.721328","401425.751902","402192.214215","402958.720122","403725.512323","406036.388449","Mapping"
"Blocked","Female","done","21","F_done.wav","None","735.196555033","318","397609.422424","404492.493738","405259.081267","406026.140594","406774.943553","407542.064405","393708.833666","394474.965473","398376.008716","399125.283782","399892.179247","400658.721328","401425.751902","402192.214215","402958.720122","403725.512323","406785.095564","Mapping"
"Blocked","Female","done","21","F_cling.wav","space","508.648965973","318","397609.422424","404492.493738","405259.081267","406026.140594","406774.943553","407542.064405","408308.672648","394474.965473","398376.008716","399125.283782","399892.179247","400658.721328","401425.751902","402192.214215","402958.720122","403725.512323","407551.903224","Mapping"
"Blocked","Female","done","21","F_cling.wav","None","730.920998845","318","397609.422424","404492.493738","405259.081267","406026.140594","406774.943553","407542.064405","408308.672648","409075.681271","398376.008716","399125.283782","399892.179247","400658.721328","401425.751902","402192.214215","402958.720122","403725.512323","408318.626171","Mapping"
"Blocked","Female","tile","14","F_cling.wav","None","729.056993499","318","412208.971093","404492.493738","405259.081267","406026.140594","406774.943553","407542.064405","408308.672648","409075.681271","398376.008716","399125.283782","399892.179247","400658.721328","401425.751902","402192.214215","402958.720122","403725.512323","409085.739294","Mapping"
"Blocked","Female","tile","14","F_dime.wav","None","720.727867913","318","412208.971093","404492.493738","405259.081267","406026.140594","406774.943553","407542.064405","408308.672648","409075.681271","412975.919736","399125.283782","399892.179247","400658.721328","401425.751902","402192.214215","402958.720122","403725.512323","412218.910084","Mapping"
"Blocked","Female","tile","14","F_tile.wav","None","718.821815215","318","412208.971093","404492.493738","405259.081267","406026.140594","406774.943553","407542.064405","408308.672648","409075.681271","412975.919736","413725.627336","399892.179247","400658.721328","401425.751902","402192.214215","402958.720122","403725.512323","412986.311047","Mapping"
"Blocked","Female","tile","14","F_lash.wav","space","493.049322627","318","412208.971093","404492.493738","405259.081267","406026.140594","406774.943553","407542.064405","408308.672648","409075.681271","412975.919736","413725.627336","414491.99597","400658.721328","401425.751902","402192.214215","402958.720122","403725.512323","413735.3632","Mapping"
"Blocked","Female","tile","14","F_jaw.wav","None","732.953503728","318","412208.971093","404492.493738","405259.081267","406026.140594","406774.943553","407542.064405","408308.672648","409075.681271","412975.919736","413725.627336","414491.99597","415258.45581","401425.751902","402192.214215","402958.720122","403725.512323","414501.921666","Mapping"
"Blocked","Female","tile","14","F_tile.wav","None","732.254154049","318","412208.971093","404492.493738","405259.081267","406026.140594","406774.943553","407542.064405","408308.672648","409075.681271","412975.919736","413725.627336","414491.99597","415258.45581","416025.311701","402192.214215","402958.720122","403725.512323","415268.04729","Mapping"
"Blocked","Female","tile","14","F_greet.wav","space","529.332652688","318","412208.971093","404492.493738","405259.081267","406026.140594","406774.943553","407542.064405","408308.672648","409075.681271","412975.919736","413725.627336","414491.99597","415258.45581","416025.311701","416791.983015","402958.720122","403725.512323","416035.086211","Mapping"
"Blocked","Female","tile","14","F_gnash.wav","None","727.722293232","318","412208.971093","404492.493738","405259.081267","406026.140594","406774.943553","407542.064405","408308.672648","409075.681271","412975.919736","413725.627336","414491.99597","415258.45581","416025.311701","416791.983015","417558.41503","403725.512323","416802.274464","Mapping"
"Blocked","Female","tile","14","F_park.wav","None","727.411883418","318","412208.971093","404492.493738","405259.081267","406026.140594","406774.943553","407542.064405","408308.672648","409075.681271","412975.919736","413725.627336","414491.99597","415258.45581","416025.311701","416791.983015","417558.41503","418324.988646","417568.218912","Mapping"
"Blocked","Female","tile","14","F_knife.wav","None","725.823042449","318","412208.971093","419091.925231","405259.081267","406026.140594","406774.943553","407542.064405","408308.672648","409075.681271","412975.919736","413725.627336","414491.99597","415258.45581","416025.311701","416791.983015","417558.41503","418324.988646","418335.218878","Mapping"
"Blocked","Female","tile","14","F_cling.wav","None","724.825958256","318","412208.971093","419091.925231","419858.797199","406026.140594","406774.943553","407542.064405","408308.672648","409075.681271","412975.919736","413725.627336","414491.99597","415258.45581","416025.311701","416791.983015","417558.41503","418324.988646","419101.84629","Mapping"
"Blocked","Female","tile","14","F_tile.wav","None","722.825917415","318","412208.971093","419091.925231","419858.797199","420625.961954","406774.943553","407542.064405","408308.672648","409075.681271","412975.919736","413725.627336","414491.99597","415258.45581","416025.311701","416791.983015","417558.41503","418324.988646","419869.233649","Mapping"
"Blocked","Female","tile","14","F_gnash.wav","space","552.242696285","318","412208.971093","419091.925231","419858.797199","420625.961954","421392.274937","407542.064405","408308.672648","409075.681271","412975.919736","413725.627336","414491.99597","415258.45581","416025.311701","416791.983015","417558.41503","418324.988646","420636.072845","Mapping"
"Blocked","Female","tile","14","F_tile.wav","None","719.498904422","318","412208.971093","419091.925231","419858.797199","420625.961954","421392.274937","422141.992739","408308.672648","409075.681271","412975.919736","413725.627336","414491.99597","415258.45581","416025.311701","416791.983015","417558.41503","418324.988646","421402.324302","Mapping"
"Blocked","Female","tile","14","F_bluff.wav","space","580.397244077","318","412208.971093","419091.925231","419858.797199","420625.961954","421392.274937","422141.992739","422908.326127","409075.681271","412975.919736","413725.627336","414491.99597","415258.45581","416025.311701","416791.983015","417558.41503","418324.988646","422151.886899","Mapping"
"Blocked","Female","tile","14","F_cad.wav","None","733.311835676","318","412208.971093","419091.925231","419858.797199","420625.961954","421392.274937","422141.992739","422908.326127","423674.841309","412975.919736","413725.627336","414491.99597","415258.45581","416025.311701","416791.983015","417558.41503","418324.988646","422918.176385","Mapping"
"Blocked","Female","tile","17","F_park.wav","None","732.21272463","318","426808.4907","419091.925231","419858.797199","420625.961954","421392.274937","422141.992739","422908.326127","423674.841309","412975.919736","413725.627336","414491.99597","415258.45581","416025.311701","416791.983015","417558.41503","418324.988646","423684.842135","Mapping"
"Blocked","Female","tile","17","F_knife.wav","None","720.394270029","318","426808.4907","419091.925231","419858.797199","420625.961954","421392.274937","422141.992739","422908.326127","423674.841309","427575.626084","413725.627336","414491.99597","415258.45581","416025.311701","416791.983015","417558.41503","418324.988646","426818.959923","Mapping"
"Blocked","Female","tile","17","F_jaw.wav","None","719.176745974","318","426808.4907","419091.925231","419858.797199","420625.961954","421392.274937","422141.992739","422908.326127","423674.841309","427575.626084","428341.5863","414491.99597","415258.45581","416025.311701","416791.983015","417558.41503","418324.988646","427585.74254","Mapping"
"Blocked","Female","tile","17","F_lash.wav","None","719.510653056","318","426808.4907","419091.925231","419858.797199","420625.961954","421392.274937","422141.992739","422908.326127","423674.841309","427575.626084","428341.5863","429091.431481","415258.45581","416025.311701","416791.983015","417558.41503","418324.988646","428351.385853","Mapping"
"Blocked","Female","tile","17","F_jolt.wav","None","734.946125187","318","426808.4907","419091.925231","419858.797199","420625.961954","421392.274937","422141.992739","422908.326127","423674.841309","427575.626084","428341.5863","429091.431481","429858.125675","416025.311701","416791.983015","417558.41503","418324.988646","429101.549483","Mapping"
"Blocked","Female","tile","17","F_gnash.wav","None","734.679926652","318","426808.4907","419091.925231","419858.797199","420625.961954","421392.274937","422141.992739","422908.326127","423674.841309","427575.626084","428341.5863","429091.431481","429858.125675","430625.26044","416791.983015","417558.41503","418324.988646","429867.238864","Mapping"
"Blocked","Female","tile","17","F_romp.wav","None","732.48665221","318","426808.4907","419091.925231","419858.797199","420625.961954","421392.274937","422141.992739","422908.326127","423674.841309","427575.626084","428341.5863","429091.431481","429858.125675","430625.26044","431391.467376","417558.41503","418324.988646","430635.046081","Mapping"
"Blocked","Female","tile","17","F_tile.wav","None","732.183971908","318","426808.4907","419091.925231","419858.797199","420625.961954","421392.274937","422141.992739","422908.326127","423674.841309","427575.626084","428341.5863","429091.431481","429858.125675","430625.26044","431391.467376","432158.215675","418324.988646","431400.972906","Mapping"
"Blocked","Female","tile","17","F_knife.wav","space","532.063270453","318","426808.4907","419091.925231","419858.797199","420625.961954","421392.274937","422141.992739","422908.326127","423674.841309","427575.626084","428341.5863","429091.431481","429858.125675","430625.26044","431391.467376","432158.215675","432925.021789","432168.051711","Mapping"
"Blocked","Female","tile","17","F_tile.wav","None","728.144005407","318","426808.4907","433691.719074","419858.797199","420625.961954","421392.274937","422141.992739","422908.326127","423674.841309","427575.626084","428341.5863","429091.431481","429858.125675","430625.26044","431391.467376","432158.215675","432925.021789","432934.772184","Mapping"
"Blocked","Female","tile","17","F_cling.wav","space","622.1544859","318","426808.4907","433691.719074","434458.120171","420625.961954","421392.274937","422141.992739","422908.326127","423674.841309","427575.626084","428341.5863","429091.431481","429858.125675","430625.26044","431391.467376","432158.215675","432925.021789","433701.939722","Mapping"
"Blocked","Female","tile","17","F_tile.wav","None","724.883774295","318","426808.4907","433691.719074","434458.120171","435225.221855","421392.274937","422141.992739","422908.326127","423674.841309","427575.626084","428341.5863","429091.431481","429858.125675","430625.26044","431391.467376","432158.215675","432925.021789","434467.729893","Mapping"
"Blocked","Female","tile","17","F_jolt.wav","space","520.499265287","318","426808.4907","433691.719074","434458.120171","435225.221855","435992.026114","422141.992739","422908.326127","423674.841309","427575.626084","428341.5863","429091.431481","429858.125675","430625.26044","431391.467376","432158.215675","432925.021789","435235.547621","Mapping"
"Blocked","Female","tile","17","F_tile.wav","None","720.20196449","318","426808.4907","433691.719074","434458.120171","435225.221855","435992.026114","436757.977673","422908.326127","423674.841309","427575.626084","428341.5863","429091.431481","429858.125675","430625.26044","431391.467376","432158.215675","432925.021789","436002.463183","Mapping"
"Blocked","Female","tile","17","F_jaw.wav","space","548.115851823","318","426808.4907","433691.719074","434458.120171","435225.221855","435992.026114","436757.977673","437507.728248","423674.841309","427575.626084","428341.5863","429091.431481","429858.125675","430625.26044","431391.467376","432158.215675","432925.021789","436767.871834","Mapping"
"Blocked","Female","tile","17","F_depth.wav","None","735.227472614","318","426808.4907","433691.719074","434458.120171","435225.221855","435992.026114","436757.977673","437507.728248","438275.085927","427575.626084","428341.5863","429091.431481","429858.125675","430625.26044","431391.467376","432158.215675","432925.021789","437517.122166","Mapping"
"Blocked","Female","done","20","F_lash.wav","None","732.958450448","318","441408.433256","433691.719074","434458.120171","435225.221855","435992.026114","436757.977673","437507.728248","438275.085927","427575.626084","428341.5863","429091.431481","429858.125675","430625.26044","431391.467376","432158.215675","432925.021789","438284.94917","Mapping"
"Blocked","Female","done","20","F_done.wav","None","720.474655274","318","441408.433256","433691.719074","434458.120171","435225.221855","435992.026114","436757.977673","437507.728248","438275.085927","442175.301204","428341.5863","429091.431481","429858.125675","430625.26044","431391.467376","432158.215675","432925.021789","441418.642464","Mapping"
"Blocked","Female","done","20","F_gnash.wav","space","546.064488124","318","441408.433256","433691.719074","434458.120171","435225.221855","435992.026114","436757.977673","437507.728248","438275.085927","442175.301204","442924.951916","429091.431481","429858.125675","430625.26044","431391.467376","432158.215675","432925.021789","442185.834735","Mapping"
"Blocked","Female","done","20","F_gnash.wav","None","734.224823769","318","441408.433256","433691.719074","434458.120171","435225.221855","435992.026114","436757.977673","437507.728248","438275.085927","442175.301204","442924.951916","443691.465552","429858.125675","430625.26044","431391.467376","432158.215675","432925.021789","442934.458064","Mapping"
"Blocked","Female","done","20","F_done.wav","None","733.146118466","318","441408.433256","433691.719074","434458.120171","435225.221855","435992.026114","436757.977673","437507.728248","438275.085927","442175.301204","442924.951916","443691.465552","444457.794612","430625.26044","431391.467376","432158.215675","432925.021789","443701.243464","Mapping"
"Blocked","Female","done","20","F_priest.wav","space","424.722354859","318","441408.433256","433691.719074","434458.120171","435225.221855","435992.026114","436757.977673","437507.728248","438275.085927","442175.301204","442924.951916","443691.465552","444457.794612","445224.990593","431391.467376","432158.215675","432925.021789","444467.128241","Mapping"
"Blocked","Female","done","20","F_jolt.wav","None","731.245940086","318","441408.433256","433691.719074","434458.120171","435225.221855","435992.026114","436757.977673","437507.728248","438275.085927","442175.301204","442924.951916","443691.465552","444457.794612","445224.990593","445991.441467","432158.215675","432925.021789","445234.790456","Mapping"
"Blocked","Female","done","20","F_park.wav","None","730.16661685","318","441408.433256","433691.719074","434458.120171","435225.221855","435992.026114","436757.977673","437507.728248","438275.085927","442175.301204","442924.951916","443691.465552","444457.794612","445224.990593","445991.441467","446757.79959","432925.021789","446001.531953","Mapping"
"Blocked","Female","done","20","F_done.wav","None","730.282865465","318","441408.433256","433691.719074","434458.120171","435225.221855","435992.026114","436757.977673","437507.728248","438275.085927","442175.301204","442924.951916","443691.465552","444457.794612","445224.990593","445991.441467","446757.79959","447524.798319","446767.019444","Mapping"
"Blocked","Female","done","20","F_gnash.wav","space","483.020053245","318","441408.433256","448291.362968","434458.120171","435225.221855","435992.026114","436757.977673","437507.728248","438275.085927","442175.301204","442924.951916","443691.465552","444457.794612","445224.990593","445991.441467","446757.79959","447524.798319","447528.785416","Mapping"
"Blocked","Female","done","20","F_priest.wav","None","725.73400056","318","441408.433256","448291.362968","449057.901957","435225.221855","435992.026114","436757.977673","437507.728248","438275.085927","442175.301204","442924.951916","443691.465552","444457.794612","445224.990593","445991.441467","446757.79959","447524.798319","448301.372451","Mapping"
"Blocked","Female","done","20","F_priest.wav","None","725.154300686","318","441408.433256","448291.362968","449057.901957","449825.078151","435992.026114","436757.977673","437507.728248","438275.085927","442175.301204","442924.951916","443691.465552","444457.794612","445224.990593","445991.441467","446757.79959","447524.798319","449067.575059","Mapping"
"Blocked","Female","done","20","F_done.wav","None","721.529244445","318","441408.433256","448291.362968","449057.901957","449825.078151","450591.748848","436757.977673","437507.728248","438275.085927","442175.301204","442924.951916","443691.465552","444457.794612","445224.990593","445991.441467","446757.79959","447524.798319","449836.801381","Mapping"
"Blocked","Female","done","20","F_greet.wav","space","391.883832403","318","441408.433256","448291.362968","449057.901957","449825.078151","450591.748848","451358.338231","437507.728248","438275.085927","442175.301204","442924.951916","443691.465552","444457.794612","445224.990593","445991.441467","446757.79959","447524.798319","450627.862441","Mapping"
"Blocked","Female","done","20","F_priest.wav","None","720.116632525","318","441408.433256","448291.362968","449057.901957","449825.078151","450591.748848","451358.338231","452125.055613","438275.085927","442175.301204","442924.951916","443691.465552","444457.794612","445224.990593","445991.441467","446757.79959","447524.798319","451368.024318","Mapping"
"Blocked","Female","done","20","F_gnash.wav","None","718.86942815","318","441408.433256","448291.362968","449057.901957","449825.078151","450591.748848","451358.338231","452125.055613","452874.099726","442175.301204","442924.951916","443691.465552","444457.794612","445224.990593","445991.441467","446757.79959","447524.798319","452134.99955","Mapping"
"Blocked","Female","done","22","F_dime.wav","None","736.250218004","318","456008.205457","448291.362968","449057.901957","449825.078151","450591.748848","451358.338231","452125.055613","452874.099726","442175.301204","442924.951916","443691.465552","444457.794612","445224.990593","445991.441467","446757.79959","447524.798319","452883.192819","Mapping"
"Blocked","Female","done","22","F_done.wav","None","720.852464903","318","456008.205457","448291.362968","449057.901957","449825.078151","450591.748848","451358.338231","452125.055613","452874.099726","456774.942935","442924.951916","443691.465552","444457.794612","445224.990593","445991.441467","446757.79959","447524.798319","456017.906075","Mapping"
"Blocked","Female","done","22","F_greet.wav","None","719.263314269","318","456008.205457","448291.362968","449057.901957","449825.078151","450591.748848","451358.338231","452125.055613","452874.099726","456774.942935","457541.733281","443691.465552","444457.794612","445224.990593","445991.441467","446757.79959","447524.798319","456785.128955","Mapping"
"Blocked","Female","done","22","F_priest.wav","space","28.0042900704","318","456008.205457","448291.362968","449057.901957","449825.078151","450591.748848","451358.338231","452125.055613","452874.099726","456774.942935","457541.733281","458290.944966","444457.794612","445224.990593","445991.441467","446757.79959","447524.798319","457551.65403","Mapping"
"Blocked","Female","done","22","F_cling.wav","None","734.511118382","318","456008.205457","448291.362968","449057.901957","449825.078151","450591.748848","451358.338231","452125.055613","452874.099726","456774.942935","457541.733281","458290.944966","459057.718617","445224.990593","445991.441467","446757.79959","447524.798319","458300.066812","Mapping"
"Blocked","Female","done","22","F_priest.wav","None","738.375165034","318","456008.205457","448291.362968","449057.901957","449825.078151","450591.748848","451358.338231","452125.055613","452874.099726","456774.942935","457541.733281","458290.944966","459057.718617","459824.530296","445991.441467","446757.79959","447524.798319","459061.751163","Mapping"
"Blocked","Female","done","22","F_knife.wav","None","731.714028399","318","456008.205457","448291.362968","449057.901957","449825.078151","450591.748848","451358.338231","452125.055613","452874.099726","456774.942935","457541.733281","458290.944966","459057.718617","459824.530296","460591.173476","446757.79959","447524.798319","459834.156404","Mapping"
"Blocked","Female","done","22","F_done.wav","None","730.821445584","318","456008.205457","448291.362968","449057.901957","449825.078151","450591.748848","451358.338231","452125.055613","452874.099726","456774.942935","457541.733281","458290.944966","459057.718617","459824.530296","460591.173476","461357.703499","447524.798319","460600.64005","Mapping"
"Blocked","Female","done","22","F_lash.wav","space","412.422208115","318","456008.205457","448291.362968","449057.901957","449825.078151","450591.748848","451358.338231","452125.055613","452874.099726","456774.942935","457541.733281","458290.944966","459057.718617","459824.530296","460591.173476","461357.703499","462124.544549","461367.134518","Mapping"
"Blocked","Female","done","22","F_cad.wav","None","727.399825584","318","456008.205457","462891.159594","449057.901957","449825.078151","450591.748848","451358.338231","452125.055613","452874.099726","456774.942935","457541.733281","458290.944966","459057.718617","459824.530296","460591.173476","461357.703499","462124.544549","462134.104494","Mapping"
"Blocked","Female","done","22","F_park.wav","None","726.404287852","318","456008.205457","462891.159594","463657.501639","449825.078151","450591.748848","451358.338231","452125.055613","452874.099726","456774.942935","457541.733281","458290.944966","459057.718617","459824.530296","460591.173476","461357.703499","462124.544549","462900.70779","Mapping"
"Blocked","Female","done","22","F_done.wav","None","725.877456833","318","456008.205457","462891.159594","463657.501639","464425.22909","450591.748848","451358.338231","452125.055613","452874.099726","456774.942935","457541.733281","458290.944966","459057.718617","459824.530296","460591.173476","461357.703499","462124.544549","463666.99573","Mapping"
"Blocked","Female","done","22","F_romp.wav","space","480.435983744","318","456008.205457","462891.159594","463657.501639","464425.22909","465191.36739","451358.338231","452125.055613","452874.099726","456774.942935","457541.733281","458290.944966","459057.718617","459824.530296","460591.173476","461357.703499","462124.544549","464435.07471","Mapping"
