"Condition","Talker","Target","Trial","current_stimulus","response_response","response_time_response","subject_nr","time_Audio1","time_Audio10","time_Audio11","time_Audio12","time_Audio13","time_Audio14","time_Audio15","time_Audio16","time_Audio2","time_Audio3","time_Audio4","time_Audio5","time_Audio6","time_Audio7","time_Audio8","time_Audio9","time_response"
"Mixed","Female","ball","8","M_cling.wav","NA","NA","416","193770.061638","NA","NA","NA","NA","NA","NA","NA","NA","NA","NA","NA","NA","NA","NA","NA","NA"
"Mixed","Female","ball","8","F_ball.wav","None","739.797200622","416","193770.061638","NA","NA","NA","NA","NA","NA","NA","194536.702958","NA","NA","NA","NA","NA","NA","NA","193777.141322"
"Mixed","Female","ball","8","M_gnash.wav","None","738.485650096","416","193770.061638","NA","NA","NA","NA","NA","NA","NA","194536.702958","195303.395712","NA","NA","NA","NA","NA","NA","194542.158108"
"Mixed","Female","ball","8","M_reek.wav","space","0.0219176217797","416","193770.061638","NA","NA","NA","NA","NA","NA","NA","194536.702958","195303.395712","196070.093141","NA","NA","NA","NA","NA","195308.496965"
"Mixed","Female","ball","8","M_depth.wav","None","733.11291024","416","193770.061638","NA","NA","NA","NA","NA","NA","NA","194536.702958","195303.395712","196070.093141","196836.76573","NA","NA","NA","NA","196075.126596"
"Mixed","Female","ball","8","F_ball.wav","None","729.846892256","416","193770.061638","NA","NA","NA","NA","NA","NA","NA","194536.702958","195303.395712","196070.093141","196836.76573","197603.904434","NA","NA","NA","196842.139055"
"Mixed","Female","ball","8","F_depth.wav","space","400.750576287","416","193770.061638","NA","NA","NA","NA","NA","NA","NA","194536.702958","195303.395712","196070.093141","196836.76573","197603.904434","198353.47105","NA","NA","197609.334745"
"Mixed","Female","ball","8","F_cling.wav","None","740.941884986","416","193770.061638","NA","NA","NA","NA","NA","NA","NA","194536.702958","195303.395712","196070.093141","196836.76573","197603.904434","198353.47105","199120.143055","NA","198358.512395"
"Mixed","Female","ball","8","M_knife.wav","None","738.268519515","416","193770.061638","NA","NA","NA","NA","NA","NA","NA","194536.702958","195303.395712","196070.093141","196836.76573","197603.904434","198353.47105","199120.143055","199886.815936","199125.120985"
"Mixed","Female","ball","8","F_ball.wav","None","735.126701393","416","193770.061638","200653.486772","NA","NA","NA","NA","NA","NA","194536.702958","195303.395712","196070.093141","196836.76573","197603.904434","198353.47105","199120.143055","199886.815936","199892.157992"
"Mixed","Female","ball","8","F_dime.wav","space","391.241834955","416","193770.061638","200653.486772","201420.23242","NA","NA","NA","NA","NA","194536.702958","195303.395712","196070.093141","196836.76573","197603.904434","198353.47105","199120.143055","199886.815936","200658.792883"
"Mixed","Female","ball","8","M_cad.wav","None","729.712464172","416","193770.061638","200653.486772","201420.23242","202170.223069","NA","NA","NA","NA","194536.702958","195303.395712","196070.093141","196836.76573","197603.904434","198353.47105","199120.143055","199886.815936","201425.14226"
"Mixed","Female","ball","8","F_ball.wav","None","743.900471783","416","193770.061638","200653.486772","201420.23242","202170.223069","202936.897411","NA","NA","NA","194536.702958","195303.395712","196070.093141","196836.76573","197603.904434","198353.47105","199120.143055","199886.815936","202175.122388"
"Mixed","Female","ball","8","M_dime.wav","space","363.864386611","416","193770.061638","200653.486772","201420.23242","202170.223069","202936.897411","203703.58695","NA","NA","194536.702958","195303.395712","196070.093141","196836.76573","197603.904434","198353.47105","199120.143055","199886.815936","202942.152088"
"Mixed","Female","ball","8","M_priest.wav","None","737.885691709","416","193770.061638","200653.486772","201420.23242","202170.223069","202936.897411","203703.58695","204470.285549","NA","194536.702958","195303.395712","196070.093141","196836.76573","197603.904434","198353.47105","199120.143055","199886.815936","203708.587091"
"Mixed","Female","ball","8","F_cad.wav","None","734.866612273","416","193770.061638","200653.486772","201420.23242","202170.223069","202936.897411","203703.58695","204470.285549","205236.992914","194536.702958","195303.395712","196070.093141","196836.76573","197603.904434","198353.47105","199120.143055","199886.815936","204475.476518"
"Mixed","Male","cave","15","F_gnash.wav","None","732.030179688","416","208337.053874","200653.486772","201420.23242","202170.223069","202936.897411","203703.58695","204470.285549","205236.992914","194536.702958","195303.395712","196070.093141","196836.76573","197603.904434","198353.47105","199120.143055","199886.815936","205242.108195"
"Mixed","Male","cave","15","F_cad.wav","space","0.0201642123866","416","208337.053874","200653.486772","201420.23242","202170.223069","202936.897411","203703.58695","204470.285549","205236.992914","209103.703377","195303.395712","196070.093141","196836.76573","197603.904434","198353.47105","199120.143055","199886.815936","208342.10048"
"Mixed","Male","cave","15","F_jaw.wav","None","738.01339839","416","208337.053874","200653.486772","201420.23242","202170.223069","202936.897411","203703.58695","204470.285549","205236.992914","209103.703377","209870.43003","196070.093141","196836.76573","197603.904434","198353.47105","199120.143055","199886.815936","209109.085176"
"Mixed","Male","cave","15","F_jolt.wav","None","735.434717046","416","208337.053874","200653.486772","201420.23242","202170.223069","202936.897411","203703.58695","204470.285549","205236.992914","209103.703377","209870.43003","210637.114601","196836.76573","197603.904434","198353.47105","199120.143055","199886.815936","209875.350097"
"Mixed","Male","cave","15","M_cave.wav","None","732.435801823","416","208337.053874","200653.486772","201420.23242","202170.223069","202936.897411","203703.58695","204470.285549","205236.992914","209103.703377","209870.43003","210637.114601","211403.762642","197603.904434","198353.47105","199120.143055","199886.815936","210642.070906"
"Mixed","Male","cave","15","F_gnash.wav","space","553.356552376","416","208337.053874","200653.486772","201420.23242","202170.223069","202936.897411","203703.58695","204470.285549","205236.992914","209103.703377","209870.43003","210637.114601","211403.762642","212153.767026","198353.47105","199120.143055","199886.815936","211408.626309"
"Mixed","Male","cave","15","F_knife.wav","None","742.7698147","416","208337.053874","200653.486772","201420.23242","202170.223069","202936.897411","203703.58695","204470.285549","205236.992914","209103.703377","209870.43003","210637.114601","211403.762642","212153.767026","212920.465916","199120.143055","199886.815936","212158.998616"
"Mixed","Male","cave","15","F_romp.wav","None","740.298675824","416","208337.053874","200653.486772","201420.23242","202170.223069","202936.897411","203703.58695","204470.285549","205236.992914","209103.703377","209870.43003","210637.114601","211403.762642","212153.767026","212920.465916","213687.138505","199886.815936","212925.454075"
"Mixed","Male","cave","15","M_depth.wav","None","737.514553301","416","208337.053874","200653.486772","201420.23242","202170.223069","202936.897411","203703.58695","204470.285549","205236.992914","209103.703377","209870.43003","210637.114601","211403.762642","212153.767026","212920.465916","213687.138505","214453.866035","213692.03987"
"Mixed","Male","cave","15","M_cad.wav","None","734.769882498","416","208337.053874","215220.519337","201420.23242","202170.223069","202936.897411","203703.58695","204470.285549","205236.992914","209103.703377","209870.43003","210637.114601","211403.762642","212153.767026","212920.465916","213687.138505","214453.866035","214458.923453"
"Mixed","Male","cave","15","M_cave.wav","None","732.02784181","416","208337.053874","215220.519337","215987.220857","202170.223069","202936.897411","203703.58695","204470.285549","205236.992914","209103.703377","209870.43003","210637.114601","211403.762642","212153.767026","212920.465916","213687.138505","214453.866035","215225.398199"
"Mixed","Male","cave","15","F_gnash.wav","space","521.480146726","416","208337.053874","215220.519337","215987.220857","216737.249204","202936.897411","203703.58695","204470.285549","205236.992914","209103.703377","209870.43003","210637.114601","211403.762642","212153.767026","212920.465916","213687.138505","214453.866035","215992.421178"
"Mixed","Male","cave","15","M_cave.wav","None","742.459753401","416","208337.053874","215220.519337","215987.220857","216737.249204","217503.935236","203703.58695","204470.285549","205236.992914","209103.703377","209870.43003","210637.114601","211403.762642","212153.767026","212920.465916","213687.138505","214453.866035","216742.255481"
"Mixed","Male","cave","15","M_jolt.wav","space","676.953532302","416","208337.053874","215220.519337","215987.220857","216737.249204","217503.935236","218270.635003","204470.285549","205236.992914","209103.703377","209870.43003","210637.114601","211403.762642","212153.767026","212920.465916","213687.138505","214453.866035","217508.97775"
"Mixed","Male","cave","15","M_cave.wav","None","736.603656911","416","208337.053874","215220.519337","215987.220857","216737.249204","217503.935236","218270.635003","219037.2772","205236.992914","209103.703377","209870.43003","210637.114601","211403.762642","212153.767026","212920.465916","213687.138505","214453.866035","218275.593938"
"Mixed","Male","cave","15","M_cad.wav","space","455.959606114","416","208337.053874","215220.519337","215987.220857","216737.249204","217503.935236","218270.635003","219037.2772","219803.980182","209103.703377","209870.43003","210637.114601","211403.762642","212153.767026","212920.465916","213687.138505","214453.866035","219041.945069"
"Mixed","Male","done","41","M_lash.wav","None","731.154059262","416","222904.158036","215220.519337","215987.220857","216737.249204","217503.935236","218270.635003","219037.2772","219803.980182","209103.703377","209870.43003","210637.114601","211403.762642","212153.767026","212920.465916","213687.138505","214453.866035","219808.869273"
"Mixed","Male","done","41","M_done.wav","None","741.178887543","416","222904.158036","215220.519337","215987.220857","216737.249204","217503.935236","218270.635003","219037.2772","219803.980182","223670.724252","209870.43003","210637.114601","211403.762642","212153.767026","212920.465916","213687.138505","214453.866035","222909.196459"
"Mixed","Male","done","41","F_park.wav","space","629.935556344","416","222904.158036","215220.519337","215987.220857","216737.249204","217503.935236","218270.635003","219037.2772","219803.980182","223670.724252","224437.391581","210637.114601","211403.762642","212153.767026","212920.465916","213687.138505","214453.866035","223675.965486"
"Mixed","Male","done","41","F_bluff.wav","None","735.793873821","416","222904.158036","215220.519337","215987.220857","216737.249204","217503.935236","218270.635003","219037.2772","219803.980182","223670.724252","224437.391581","225204.085211","211403.762642","212153.767026","212920.465916","213687.138505","214453.866035","224442.360744"
"Mixed","Male","done","41","F_priest.wav","None","733.222790586","416","222904.158036","215220.519337","215987.220857","216737.249204","217503.935236","218270.635003","219037.2772","219803.980182","223670.724252","224437.391581","225204.085211","225970.804266","212153.767026","212920.465916","213687.138505","214453.866035","225208.968457"
"Mixed","Male","done","41","M_done.wav","None","730.29079717","416","222904.158036","215220.519337","215987.220857","216737.249204","217503.935236","218270.635003","219037.2772","219803.980182","223670.724252","224437.391581","225204.085211","225970.804266","226737.94034","212920.465916","213687.138505","214453.866035","225975.779274"
"Mixed","Male","done","41","F_jaw.wav","space","482.509445033","416","222904.158036","215220.519337","215987.220857","216737.249204","217503.935236","218270.635003","219037.2772","219803.980182","223670.724252","224437.391581","225204.085211","225970.804266","226737.94034","227487.49848","213687.138505","214453.866035","226743.273628"
"Mixed","Male","done","41","M_done.wav","None","741.061116853","416","222904.158036","215220.519337","215987.220857","216737.249204","217503.935236","218270.635003","219037.2772","219803.980182","223670.724252","224437.391581","225204.085211","225970.804266","226737.94034","227487.49848","228254.167271","214453.866035","227492.330586"
"Mixed","Male","done","41","F_cling.wav","space","542.597629857","416","222904.158036","215220.519337","215987.220857","216737.249204","217503.935236","218270.635003","219037.2772","219803.980182","223670.724252","224437.391581","225204.085211","225970.804266","226737.94034","227487.49848","228254.167271","229020.880773","228259.132927"
"Mixed","Male","done","41","M_reek.wav","None","734.89466683","416","222904.158036","229787.534659","215987.220857","216737.249204","217503.935236","218270.635003","219037.2772","219803.980182","223670.724252","224437.391581","225204.085211","225970.804266","226737.94034","227487.49848","228254.167271","229020.880773","229025.963031"
"Mixed","Male","done","41","M_jaw.wav","space","321.017188091","416","222904.158036","229787.534659","230554.224782","216737.249204","217503.935236","218270.635003","219037.2772","219803.980182","223670.724252","224437.391581","225204.085211","225970.804266","226737.94034","227487.49848","228254.167271","229020.880773","229792.752514"
"Mixed","Male","done","41","F_priest.wav","None","729.63882096","416","222904.158036","229787.534659","230554.224782","231304.271832","217503.935236","218270.635003","219037.2772","219803.980182","223670.724252","224437.391581","225204.085211","225970.804266","226737.94034","227487.49848","228254.167271","229020.880773","230559.10423"
"Mixed","Male","done","41","M_depth.wav","None","743.271582136","416","222904.158036","229787.534659","230554.224782","231304.271832","232070.956988","218270.635003","219037.2772","219803.980182","223670.724252","224437.391581","225204.085211","225970.804266","226737.94034","227487.49848","228254.167271","229020.880773","231309.230475"
"Mixed","Male","done","41","F_jaw.wav","None","740.50557818","416","222904.158036","229787.534659","230554.224782","231304.271832","232070.956988","232837.575221","219037.2772","219803.980182","223670.724252","224437.391581","225204.085211","225970.804266","226737.94034","227487.49848","228254.167271","229020.880773","232075.89985"
"Mixed","Male","done","41","M_done.wav","space","495.170524948","416","222904.158036","229787.534659","230554.224782","231304.271832","232070.956988","232837.575221","233604.283755","219803.980182","223670.724252","224437.391581","225204.085211","225970.804266","226737.94034","227487.49848","228254.167271","229020.880773","232842.569225"
"Mixed","Male","done","41","F_priest.wav","space","704.175511646","416","222904.158036","229787.534659","230554.224782","231304.271832","232070.956988","232837.575221","233604.283755","234370.997258","223670.724252","224437.391581","225204.085211","225970.804266","226737.94034","227487.49848","228254.167271","229020.880773","233609.550122"
"Mixed","Male","cave","14","M_cad.wav","None","731.869742693","416","237471.036592","229787.534659","230554.224782","231304.271832","232070.956988","232837.575221","233604.283755","234370.997258","223670.724252","224437.391581","225204.085211","225970.804266","226737.94034","227487.49848","228254.167271","229020.880773","234375.861801"
"Mixed","Male","cave","14","M_cave.wav","None","742.365361506","416","237471.036592","229787.534659","230554.224782","231304.271832","232070.956988","232837.575221","233604.283755","234370.997258","238237.753894","224437.391581","225204.085211","225970.804266","226737.94034","227487.49848","228254.167271","229020.880773","237476.020368"
"Mixed","Male","cave","14","F_greet.wav","None","739.729986581","416","237471.036592","229787.534659","230554.224782","231304.271832","232070.956988","232837.575221","233604.283755","234370.997258","238237.753894","239004.425314","225204.085211","225970.804266","226737.94034","227487.49848","228254.167271","229020.880773","238242.711075"
"Mixed","Male","cave","14","F_lash.wav","space","120.507764099","416","237471.036592","229787.534659","230554.224782","231304.271832","232070.956988","232837.575221","233604.283755","234370.997258","238237.753894","239004.425314","239771.099365","225970.804266","226737.94034","227487.49848","228254.167271","229020.880773","239009.217968"
"Mixed","Male","cave","14","F_priest.wav","None","733.97500339","416","237471.036592","229787.534659","230554.224782","231304.271832","232070.956988","232837.575221","233604.283755","234370.997258","238237.753894","239004.425314","239771.099365","240537.794456","226737.94034","227487.49848","228254.167271","229020.880773","239776.306699"
"Mixed","Male","cave","14","M_cave.wav","None","731.499773226","416","237471.036592","229787.534659","230554.224782","231304.271832","232070.956988","232837.575221","233604.283755","234370.997258","238237.753894","239004.425314","239771.099365","240537.794456","241305.018493","227487.49848","228254.167271","229020.880773","240542.766542"
"Mixed","Male","cave","14","F_cad.wav","space","515.332691975","416","237471.036592","229787.534659","230554.224782","231304.271832","232070.956988","232837.575221","233604.283755","234370.997258","238237.753894","239004.425314","239771.099365","240537.794456","241305.018493","242054.460908","228254.167271","229020.880773","241310.361132"
"Mixed","Male","cave","14","F_depth.wav","None","741.90129238","416","237471.036592","229787.534659","230554.224782","231304.271832","232070.956988","232837.575221","233604.283755","234370.997258","238237.753894","239004.425314","239771.099365","240537.794456","241305.018493","242054.460908","242821.229058","229020.880773","242059.779877"
"Mixed","Male","cave","14","M_cave.wav","None","739.068658851","416","237471.036592","229787.534659","230554.224782","231304.271832","232070.956988","232837.575221","233604.283755","234370.997258","238237.753894","239004.425314","239771.099365","240537.794456","241305.018493","242054.460908","242821.229058","243587.922104","242826.496594"
"Mixed","Male","cave","14","M_depth.wav","space","504.936725285","416","237471.036592","244354.555826","230554.224782","231304.271832","232070.956988","232837.575221","233604.283755","234370.997258","238237.753894","239004.425314","239771.099365","240537.794456","241305.018493","242054.460908","242821.229058","243587.922104","243592.724401"
"Mixed","Male","cave","14","M_park.wav","None","733.76430198","416","237471.036592","244354.555826","245121.235137","231304.271832","232070.956988","232837.575221","233604.283755","234370.997258","238237.753894","239004.425314","239771.099365","240537.794456","241305.018493","242054.460908","242821.229058","243587.922104","244359.743581"
"Mixed","Male","cave","14","F_romp.wav","None","731.247282214","416","237471.036592","244354.555826","245121.235137","245888.313348","232070.956988","232837.575221","233604.283755","234370.997258","238237.753894","239004.425314","239771.099365","240537.794456","241305.018493","242054.460908","242821.229058","243587.922104","245126.248428"
"Mixed","Male","cave","14","F_bluff.wav","None","727.724974167","416","237471.036592","244354.555826","245121.235137","245888.313348","246637.937826","232837.575221","233604.283755","234370.997258","238237.753894","239004.425314","239771.099365","240537.794456","241305.018493","242054.460908","242821.229058","243587.922104","245893.782234"
"Mixed","Male","cave","14","M_cave.wav","None","742.490145836","416","237471.036592","244354.555826","245121.235137","245888.313348","246637.937826","247404.644899","233604.283755","234370.997258","238237.753894","239004.425314","239771.099365","240537.794456","241305.018493","242054.460908","242821.229058","243587.922104","246643.137855"
"Mixed","Male","cave","14","M_priest.wav","space","423.880973867","416","237471.036592","244354.555826","245121.235137","245888.313348","246637.937826","247404.644899","248171.314566","234370.997258","238237.753894","239004.425314","239771.099365","240537.794456","241305.018493","242054.460908","242821.229058","243587.922104","247409.699103"
"Mixed","Male","cave","14","F_dime.wav","None","736.887417064","416","237471.036592","244354.555826","245121.235137","245888.313348","246637.937826","247404.644899","248171.314566","248937.999722","238237.753894","239004.425314","239771.099365","240537.794456","241305.018493","242054.460908","242821.229058","243587.922104","248176.300679"
"Mixed","Female","ball","12","M_jaw.wav","None","734.164663883","416","252021.392768","244354.555826","245121.235137","245888.313348","246637.937826","247404.644899","248171.314566","248937.999722","238237.753894","239004.425314","239771.099365","240537.794456","241305.018493","242054.460908","242821.229058","243587.922104","248943.175203"
"Mixed","Female","ball","12","F_bluff.wav","None","741.744362203","416","252021.392768","244354.555826","245121.235137","245888.313348","246637.937826","247404.644899","248171.314566","248937.999722","252788.091951","239004.425314","239771.099365","240537.794456","241305.018493","242054.460908","242821.229058","243587.922104","252026.437328"
"Mixed","Female","ball","12","F_ball.wav","None","739.098174583","416","252021.392768","244354.555826","245121.235137","245888.313348","246637.937826","247404.644899","248171.314566","248937.999722","252788.091951","253554.815389","239771.099365","240537.794456","241305.018493","242054.460908","242821.229058","243587.922104","252793.134465"
"Mixed","Female","ball","12","M_priest.wav","space","417.951818637","416","252021.392768","244354.555826","245121.235137","245888.313348","246637.937826","247404.644899","248171.314566","248937.999722","252788.091951","253554.815389","254321.480381","240537.794456","241305.018493","242054.460908","242821.229058","243587.922104","253559.666198"
"Mixed","Female","ball","12","M_priest.wav","None","733.45365621","416","252021.392768","244354.555826","245121.235137","245888.313348","246637.937826","247404.644899","248171.314566","248937.999722","252788.091951","253554.815389","254321.480381","255088.149171","241305.018493","242054.460908","242821.229058","243587.922104","254326.51968"
"Mixed","Female","ball","12","F_ball.wav","None","730.764217817","416","252021.392768","244354.555826","245121.235137","245888.313348","246637.937826","247404.644899","248171.314566","248937.999722","252788.091951","253554.815389","254321.480381","255088.149171","255855.252514","242054.460908","242821.229058","243587.922104","255093.424304"
"Mixed","Female","ball","12","F_jaw.wav","space","540.986830725","416","252021.392768","244354.555826","245121.235137","245888.313348","246637.937826","247404.644899","248171.314566","248937.999722","252788.091951","253554.815389","254321.480381","255088.149171","255855.252514","256604.808317","242821.229058","243587.922104","255860.62467"
"Mixed","Female","ball","12","M_romp.wav","None","742.526382972","416","252021.392768","244354.555826","245121.235137","245888.313348","246637.937826","247404.644899","248171.314566","248937.999722","252788.091951","253554.815389","254321.480381","255088.149171","255855.252514","256604.808317","257371.547828","243587.922104","256609.610614"
"Mixed","Female","ball","12","F_dime.wav","None","739.682644516","416","252021.392768","244354.555826","245121.235137","245888.313348","246637.937826","247404.644899","248171.314566","248937.999722","252788.091951","253554.815389","254321.480381","255088.149171","255855.252514","256604.808317","257371.547828","258138.22071","257376.596187"
"Mixed","Female","ball","12","M_gnash.wav","None","737.295669313","416","252021.392768","258904.921061","245121.235137","245888.313348","246637.937826","247404.644899","248171.314566","248937.999722","252788.091951","253554.815389","254321.480381","255088.149171","255855.252514","256604.808317","257371.547828","258138.22071","258143.219389"
"Mixed","Female","ball","12","F_ball.wav","None","734.830959607","416","252021.392768","258904.921061","259671.641285","245888.313348","246637.937826","247404.644899","248171.314566","248937.999722","252788.091951","253554.815389","254321.480381","255088.149171","255855.252514","256604.808317","257371.547828","258138.22071","258909.797586"
"Mixed","Female","ball","12","M_bluff.wav","space","445.067132216","416","252021.392768","258904.921061","259671.641285","260438.274423","246637.937826","247404.644899","248171.314566","248937.999722","252788.091951","253554.815389","254321.480381","255088.149171","255855.252514","256604.808317","257371.547828","258138.22071","259676.514011"
"Mixed","Female","ball","12","M_depth.wav","None","729.414092271","416","252021.392768","258904.921061","259671.641285","260438.274423","261188.295464","247404.644899","248171.314566","248937.999722","252788.091951","253554.815389","254321.480381","255088.149171","255855.252514","256604.808317","257371.547828","258138.22071","260443.238326"
"Mixed","Female","ball","12","F_lash.wav","None","743.462996039","416","252021.392768","258904.921061","259671.641285","260438.274423","261188.295464","261954.978281","248171.314566","248937.999722","252788.091951","253554.815389","254321.480381","255088.149171","255855.252514","256604.808317","257371.547828","258138.22071","261193.322489"
"Mixed","Female","ball","12","F_ball.wav","None","740.863566014","416","252021.392768","258904.921061","259671.641285","260438.274423","261188.295464","261954.978281","262721.783253","248937.999722","252788.091951","253554.815389","254321.480381","255088.149171","255855.252514","256604.808317","257371.547828","258138.22071","261959.994202"
"Mixed","Female","ball","12","M_reek.wav","space","514.738870525","416","252021.392768","258904.921061","259671.641285","260438.274423","261188.295464","261954.978281","262721.783253","263488.328428","252788.091951","253554.815389","254321.480381","255088.149171","255855.252514","256604.808317","257371.547828","258138.22071","262726.749786"
"Mixed","Male","ball","2","F_reek.wav","None","735.594277339","416","266588.465369","258904.921061","259671.641285","260438.274423","261188.295464","261954.978281","262721.783253","263488.328428","252788.091951","253554.815389","254321.480381","255088.149171","255855.252514","256604.808317","257371.547828","258138.22071","263493.286194"
"Mixed","Male","ball","2","M_priest.wav","space","0.0201642123866","416","266588.465369","258904.921061","259671.641285","260438.274423","261188.295464","261954.978281","262721.783253","263488.328428","267355.111657","253554.815389","254321.480381","255088.149171","255855.252514","256604.808317","257371.547828","258138.22071","266593.604613"
"Mixed","Male","ball","2","M_ball.wav","None","742.105272386","416","266588.465369","258904.921061","259671.641285","260438.274423","261188.295464","261954.978281","262721.783253","263488.328428","267355.111657","268121.783077","254321.480381","255088.149171","255855.252514","256604.808317","257371.547828","258138.22071","267356.769506"
"Mixed","Male","ball","2","M_dime.wav","space","450.879685695","416","266588.465369","258904.921061","259671.641285","260438.274423","261188.295464","261954.978281","262721.783253","263488.328428","267355.111657","268121.783077","268888.481676","255088.149171","255855.252514","256604.808317","257371.547828","258138.22071","268126.590635"
"Mixed","Male","ball","2","F_reek.wav","None","733.084271213","416","266588.465369","258904.921061","259671.641285","260438.274423","261188.295464","261954.978281","262721.783253","263488.328428","267355.111657","268121.783077","268888.481676","269655.125041","255855.252514","256604.808317","257371.547828","258138.22071","268893.571532"
"Mixed","Male","ball","2","M_ball.wav","None","731.079831579","416","266588.465369","258904.921061","259671.641285","260438.274423","261188.295464","261954.978281","262721.783253","263488.328428","267355.111657","268121.783077","268888.481676","269655.125041","270422.205591","256604.808317","257371.547828","258138.22071","269660.161419"
"Mixed","Male","ball","2","M_park.wav","space","493.930571985","416","266588.465369","258904.921061","259671.641285","260438.274423","261188.295464","261954.978281","262721.783253","263488.328428","267355.111657","268121.783077","268888.481676","269655.125041","270422.205591","271171.889685","257371.547828","258138.22071","270427.58476"
"Mixed","Male","ball","2","F_dime.wav","None","741.976104531","416","266588.465369","258904.921061","259671.641285","260438.274423","261188.295464","261954.978281","262721.783253","263488.328428","267355.111657","268121.783077","268888.481676","269655.125041","270422.205591","271171.889685","271938.577178","258138.22071","271176.862063"
"Mixed","Male","ball","2","F_jaw.wav","None","739.481002389","416","266588.465369","258904.921061","259671.641285","260438.274423","261188.295464","261954.978281","262721.783253","263488.328428","267355.111657","268121.783077","268888.481676","269655.125041","270422.205591","271171.889685","271938.577178","272705.242169","271943.543127"
"Mixed","Male","ball","2","M_ball.wav","None","736.716167374","416","266588.465369","273471.915928","259671.641285","260438.274423","261188.295464","261954.978281","262721.783253","263488.328428","267355.111657","268121.783077","268888.481676","269655.125041","270422.205591","271171.889685","271938.577178","272705.242169","272710.498892"
"Mixed","Male","ball","2","F_cling.wav","space","484.569701546","416","266588.465369","273471.915928","274238.665082","260438.274423","261188.295464","261954.978281","262721.783253","263488.328428","267355.111657","268121.783077","268888.481676","269655.125041","270422.205591","271171.889685","271938.577178","272705.242169","273476.84973"
"Mixed","Male","ball","2","F_jolt.wav","None","731.197310037","416","266588.465369","273471.915928","274238.665082","275005.295882","261188.295464","261954.978281","262721.783253","263488.328428","267355.111657","268121.783077","268888.481676","269655.125041","270422.205591","271171.889685","271938.577178","272705.242169","274243.849038"
"Mixed","Male","ball","2","F_greet.wav","None","728.916416123","416","266588.465369","273471.915928","274238.665082","275005.295882","275755.324813","261954.978281","262721.783253","263488.328428","267355.111657","268121.783077","268888.481676","269655.125041","270422.205591","271171.889685","271938.577178","272705.242169","275010.294853"
"Mixed","Male","ball","2","M_ball.wav","None","743.051236972","416","266588.465369","273471.915928","274238.665082","275005.295882","275755.324813","276521.958535","262721.783253","263488.328428","267355.111657","268121.783077","268888.481676","269655.125041","270422.205591","271171.889685","271938.577178","272705.242169","275760.385154"
"Mixed","Male","ball","2","M_cling.wav","space","498.30942072","416","266588.465369","273471.915928","274238.665082","275005.295882","275755.324813","276521.958535","277288.681974","263488.328428","267355.111657","268121.783077","268888.481676","269655.125041","270422.205591","271171.889685","271938.577178","272705.242169","276527.124373"
"Mixed","Male","ball","2","F_reek.wav","None","737.925143429","416","266588.465369","273471.915928","274238.665082","275005.295882","275755.324813","276521.958535","277288.681974","278055.369759","267355.111657","268121.783077","268888.481676","269655.125041","270422.205591","271171.889685","271938.577178","272705.242169","277293.717182"
"Mixed","Female","cave","23","M_cling.wav","None","735.776924192","416","281172.713787","273471.915928","274238.665082","275005.295882","275755.324813","276521.958535","277288.681974","278055.369759","267355.111657","268121.783077","268888.481676","269655.125041","270422.205591","271171.889685","271938.577178","272705.242169","278060.428931"
"Mixed","Female","cave","23","M_greet.wav","None","723.816331492","416","281172.713787","273471.915928","274238.665082","275005.295882","275755.324813","276521.958535","277288.681974","278055.369759","281922.183673","268121.783077","268888.481676","269655.125041","270422.205591","271171.889685","271938.577178","272705.242169","281178.080683"
"Mixed","Female","cave","23","F_cave.wav","None","738.612480071","416","281172.713787","273471.915928","274238.665082","275005.295882","275755.324813","276521.958535","277288.681974","278055.369759","281922.183673","282688.862984","268888.481676","269655.125041","270422.205591","271171.889685","271938.577178","272705.242169","281927.397145"
"Mixed","Female","cave","23","M_reek.wav","space","398.949532189","416","281172.713787","273471.915928","274238.665082","275005.295882","275755.324813","276521.958535","277288.681974","278055.369759","281922.183673","282688.862984","283455.542587","269655.125041","270422.205591","271171.889685","271938.577178","272705.242169","282690.409199"
"Mixed","Female","cave","23","M_greet.wav","None","733.748813527","416","281172.713787","273471.915928","274238.665082","275005.295882","275755.324813","276521.958535","277288.681974","278055.369759","281922.183673","282688.862984","283455.542587","284222.183907","270422.205591","271171.889685","271938.577178","272705.242169","283460.377907"
"Mixed","Female","cave","23","F_cave.wav","None","730.901568249","416","281172.713787","273471.915928","274238.665082","275005.295882","275755.324813","276521.958535","277288.681974","278055.369759","281922.183673","282688.862984","283455.542587","284222.183907","284988.868186","271171.889685","271938.577178","272705.242169","284227.438876"
"Mixed","Female","cave","23","M_bluff.wav","space","391.502508546","416","281172.713787","273471.915928","274238.665082","275005.295882","275755.324813","276521.958535","277288.681974","278055.369759","281922.183673","282688.862984","283455.542587","284222.183907","284988.868186","285738.886304","271938.577178","272705.242169","284993.822153"
"Mixed","Female","cave","23","F_cave.wav","None","742.369160562","416","281172.713787","273471.915928","274238.665082","275005.295882","275755.324813","276521.958535","277288.681974","278055.369759","281922.183673","282688.862984","283455.542587","284222.183907","284988.868186","285738.886304","286505.537853","272705.242169","285743.949859"
"Mixed","Female","cave","23","F_romp.wav","space","506.792709555","416","281172.713787","273471.915928","274238.665082","275005.295882","275755.324813","276521.958535","277288.681974","278055.369759","281922.183673","282688.862984","283455.542587","284222.183907","284988.868186","285738.886304","286505.537853","287272.25983","286510.55465"
"Mixed","Female","cave","23","F_jaw.wav","None","736.797116459","416","281172.713787","288038.96135","274238.665082","275005.295882","275755.324813","276521.958535","277288.681974","278055.369759","281922.183673","282688.862984","283455.542587","284222.183907","284988.868186","285738.886304","286505.537853","287272.25983","287277.207075"
"Mixed","Female","cave","23","M_gnash.wav","None","734.339420393","416","281172.713787","288038.96135","288805.622542","275005.295882","275755.324813","276521.958535","277288.681974","278055.369759","281922.183673","282688.862984","283455.542587","284222.183907","284988.868186","285738.886304","286505.537853","287272.25983","288043.986915"
"Mixed","Female","cave","23","F_cave.wav","None","731.946308255","416","281172.713787","288038.96135","288805.622542","289572.366729","275755.324813","276521.958535","277288.681974","278055.369759","281922.183673","282688.862984","283455.542587","284222.183907","284988.868186","285738.886304","286505.537853","287272.25983","288810.593459"
"Mixed","Female","cave","23","F_reek.wav","space","579.31403102","416","281172.713787","288038.96135","288805.622542","289572.366729","290322.338382","276521.958535","277288.681974","278055.369759","281922.183673","282688.862984","283455.542587","284222.183907","284988.868186","285738.886304","286505.537853","287272.25983","289573.971976"
"Mixed","Female","cave","23","M_gnash.wav","None","742.85573178","416","281172.713787","288038.96135","288805.622542","289572.366729","290322.338382","291088.968598","277288.681974","278055.369759","281922.183673","282688.862984","283455.542587","284222.183907","284988.868186","285738.886304","286505.537853","287272.25983","290327.530229"
"Mixed","Female","cave","23","F_jaw.wav","None","741.059071206","416","281172.713787","288038.96135","288805.622542","289572.366729","290322.338382","291088.968598","291855.696712","278055.369759","281922.183673","282688.862984","283455.542587","284222.183907","284988.868186","285738.886304","286505.537853","287272.25983","291093.936592"
"Mixed","Female","cave","23","M_bluff.wav","None","739.25335135","416","281172.713787","288038.96135","288805.622542","289572.366729","290322.338382","291088.968598","291855.696712","292622.428917","281922.183673","282688.862984","283455.542587","284222.183907","284988.868186","285738.886304","286505.537853","287272.25983","291860.704742"
"Mixed","Female","tile","36","F_greet.wav","None","737.599885912","416","295739.125645","288038.96135","288805.622542","289572.366729","290322.338382","291088.968598","291855.696712","292622.428917","281922.183673","282688.862984","283455.542587","284222.183907","284988.868186","285738.886304","286505.537853","287272.25983","292627.480783"
"Mixed","Female","tile","36","M_reek.wav","space","0.0204564476153","416","295739.125645","288038.96135","288805.622542","289572.366729","290322.338382","291088.968598","291855.696712","292622.428917","296505.848206","282688.862984","283455.542587","284222.183907","284988.868186","285738.886304","286505.537853","287272.25983","295744.193876"
"Mixed","Female","tile","36","F_tile.wav","None","738.718269127","416","295739.125645","288038.96135","288805.622542","289572.366729","290322.338382","291088.968598","291855.696712","292622.428917","296505.848206","297272.501508","283455.542587","284222.183907","284988.868186","285738.886304","286505.537853","287272.25983","296510.777918"
"Mixed","Female","tile","36","F_depth.wav","space","499.964931805","416","295739.125645","288038.96135","288805.622542","289572.366729","290322.338382","291088.968598","291855.696712","292622.428917","296505.848206","297272.501508","298039.227576","284222.183907","284988.868186","285738.886304","286505.537853","287272.25983","297277.29533"
"Mixed","Female","tile","36","F_gnash.wav","None","733.595097934","416","295739.125645","288038.96135","288805.622542","289572.366729","290322.338382","291088.968598","291855.696712","292622.428917","296505.848206","297272.501508","298039.227576","298805.86539","284988.868186","285738.886304","286505.537853","287272.25983","298044.251095"
"Mixed","Female","tile","36","M_cling.wav","None","731.413856145","416","295739.125645","288038.96135","288805.622542","289572.366729","290322.338382","291088.968598","291855.696712","292622.428917","296505.848206","297272.501508","298039.227576","298805.86539","299572.53944","285738.886304","286505.537853","287272.25983","298810.91784"
"Mixed","Female","tile","36","F_tile.wav","None","729.207189914","416","295739.125645","288038.96135","288805.622542","289572.366729","290322.338382","291088.968598","291855.696712","292622.428917","296505.848206","297272.501508","298039.227576","298805.86539","299572.53944","300322.570709","286505.537853","287272.25983","299577.515325"
"Mixed","Female","tile","36","M_lash.wav","space","409.510611635","416","295739.125645","288038.96135","288805.622542","289572.366729","290322.338382","291088.968598","291855.696712","292622.428917","296505.848206","297272.501508","298039.227576","298805.86539","299572.53944","300322.570709","301089.26317","287272.25983","300327.524676"
"Mixed","Female","tile","36","F_tile.wav","None","740.674197756","416","295739.125645","288038.96135","288805.622542","289572.366729","290322.338382","291088.968598","291855.696712","292622.428917","296505.848206","297272.501508","298039.227576","298805.86539","299572.53944","300322.570709","301089.26317","301855.931084","301094.300425"
"Mixed","Female","tile","36","M_greet.wav","space","564.289646934","416","295739.125645","302622.661828","288805.622542","289572.366729","290322.338382","291088.968598","291855.696712","292622.428917","296505.848206","297272.501508","298039.227576","298805.86539","299572.53944","300322.570709","301089.26317","301855.931084","301860.891773"
"Mixed","Female","tile","36","F_park.wav","None","735.285384979","416","295739.125645","302622.661828","303389.408353","289572.366729","290322.338382","291088.968598","291855.696712","292622.428917","296505.848206","297272.501508","298039.227576","298805.86539","299572.53944","300322.570709","301089.26317","301855.931084","302627.841985"
"Mixed","Female","tile","36","F_tile.wav","None","733.260488896","416","295739.125645","302622.661828","303389.408353","304155.994148","290322.338382","291088.968598","291855.696712","292622.428917","296505.848206","297272.501508","298039.227576","298805.86539","299572.53944","300322.570709","301089.26317","301855.931084","303394.288969"
"Mixed","Female","tile","36","M_cling.wav","space","576.182733355","416","295739.125645","302622.661828","303389.408353","304155.994148","304922.981182","291088.968598","291855.696712","292622.428917","296505.848206","297272.501508","298039.227576","298805.86539","299572.53944","300322.570709","301089.26317","301855.931084","304160.992535"
"Mixed","Female","tile","36","M_cling.wav","None","726.810278722","416","295739.125645","302622.661828","303389.408353","304155.994148","304922.981182","305672.669952","291855.696712","292622.428917","296505.848206","297272.501508","298039.227576","298805.86539","299572.53944","300322.570709","301089.26317","301855.931084","304928.760129"
"Mixed","Female","tile","36","M_cad.wav","None","742.465013629","416","295739.125645","302622.661828","303389.408353","304155.994148","304922.981182","305672.669952","306439.361537","292622.428917","296505.848206","297272.501508","298039.227576","298805.86539","299572.53944","300322.570709","301089.26317","301855.931084","305677.698147"
"Mixed","Female","tile","36","M_jolt.wav","None","740.224740379","416","295739.125645","302622.661828","303389.408353","304155.994148","304922.981182","305672.669952","306439.361537","307206.089651","296505.848206","297272.501508","298039.227576","298805.86539","299572.53944","300322.570709","301089.26317","301855.931084","306444.407558"
"Mixed","Male","done","39","F_greet.wav","None","738.042037416","416","310306.141844","302622.661828","303389.408353","304155.994148","304922.981182","305672.669952","306439.361537","307206.089651","296505.848206","297272.501508","298039.227576","298805.86539","299572.53944","300322.570709","301089.26317","301855.931084","307211.065243"
"Mixed","Male","done","39","M_done.wav","space","0.0207486827858","416","310306.141844","302622.661828","303389.408353","304155.994148","304922.981182","305672.669952","306439.361537","307206.089651","311072.828753","297272.501508","298039.227576","298805.86539","299572.53944","300322.570709","301089.26317","301855.931084","310311.305636"
"Mixed","Male","done","39","F_knife.wav","space","699.247845643","416","310306.141844","302622.661828","303389.408353","304155.994148","304922.981182","305672.669952","306439.361537","307206.089651","311072.828753","311839.512447","298039.227576","298805.86539","299572.53944","300322.570709","301089.26317","301855.931084","311077.919778"
"Mixed","Male","done","39","M_done.wav","None","736.041689072","416","310306.141844","302622.661828","303389.408353","304155.994148","304922.981182","305672.669952","306439.361537","307206.089651","311072.828753","311839.512447","312606.212214","298805.86539","299572.53944","300322.570709","301089.26317","301855.931084","311844.204571"
"Mixed","Male","done","39","M_depth.wav","space","437.949749612","416","310306.141844","302622.661828","303389.408353","304155.994148","304922.981182","305672.669952","306439.361537","307206.089651","311072.828753","311839.512447","312606.212214","313372.889771","299572.53944","300322.570709","301089.26317","301855.931084","312611.166181"
"Mixed","Male","done","39","M_gnash.wav","None","734.336790278","416","310306.141844","302622.661828","303389.408353","304155.994148","304922.981182","305672.669952","306439.361537","307206.089651","311072.828753","311839.512447","312606.212214","313372.889771","314139.751437","300322.570709","301089.26317","301855.931084","313374.16713"
"Mixed","Male","done","39","M_done.wav","space","64.393974817","416","310306.141844","302622.661828","303389.408353","304155.994148","304922.981182","305672.669952","306439.361537","307206.089651","311072.828753","311839.512447","312606.212214","313372.889771","314139.751437","314889.613794","301089.26317","301855.931084","314144.7507"
"Mixed","Male","done","39","F_bluff.wav","space","578.48612936","416","310306.141844","302622.661828","303389.408353","304155.994148","304922.981182","305672.669952","306439.361537","307206.089651","311072.828753","311839.512447","312606.212214","313372.889771","314139.751437","314889.613794","315656.305963","301855.931084","314894.614811"
"Mixed","Male","done","39","F_gnash.wav","None","738.852112741","416","310306.141844","302622.661828","303389.408353","304155.994148","304922.981182","305672.669952","306439.361537","307206.089651","311072.828753","311839.512447","312606.212214","313372.889771","314139.751437","314889.613794","315656.305963","316422.978845","315661.195638"
"Mixed","Male","done","39","F_romp.wav","None","736.435914041","416","310306.141844","317189.654941","303389.408353","304155.994148","304922.981182","305672.669952","306439.361537","307206.089651","311072.828753","311839.512447","312606.212214","313372.889771","314139.751437","314889.613794","315656.305963","316422.978845","316428.128609"
"Mixed","Male","done","39","F_dime.wav","None","734.214343827","416","310306.141844","317189.654941","317956.298891","304155.994148","304922.981182","305672.669952","306439.361537","307206.089651","311072.828753","311839.512447","312606.212214","313372.889771","314139.751437","314889.613794","315656.305963","316422.978845","317194.802952"
"Mixed","Male","done","39","M_done.wav","space","431.86570985","416","310306.141844","317189.654941","317956.298891","318723.041032","304922.981182","305672.669952","306439.361537","307206.089651","311072.828753","311839.512447","312606.212214","313372.889771","314139.751437","314889.613794","315656.305963","316422.978845","317961.17337"
"Mixed","Male","done","39","F_greet.wav","space","729.059319023","416","310306.141844","317189.654941","317956.298891","318723.041032","319473.051553","305672.669952","306439.361537","307206.089651","311072.828753","311839.512447","312606.212214","313372.889771","314139.751437","314889.613794","315656.305963","316422.978845","318728.008734"
"Mixed","Male","done","39","M_park.wav","None","743.429096783","416","310306.141844","317189.654941","317956.298891","318723.041032","319473.051553","320239.687028","306439.361537","307206.089651","311072.828753","311839.512447","312606.212214","313372.889771","314139.751437","314889.613794","315656.305963","316422.978845","319478.241646"
"Mixed","Male","done","39","F_jolt.wav","None","741.079527655","416","310306.141844","317189.654941","317956.298891","318723.041032","319473.051553","320239.687028","321006.432968","307206.089651","311072.828753","311839.512447","312606.212214","313372.889771","314139.751437","314889.613794","315656.305963","316422.978845","320244.991385"
"Mixed","Male","done","39","M_reek.wav","None","738.879875064","416","310306.141844","317189.654941","317956.298891","318723.041032","319473.051553","320239.687028","321006.432968","321773.110818","311072.828753","311839.512447","312606.212214","313372.889771","314139.751437","314889.613794","315656.305963","316422.978845","321011.497108"
"Mixed","Male","ball","1","F_park.wav","None","737.077662026","416","324873.191358","317189.654941","317956.298891","318723.041032","319473.051553","320239.687028","321006.432968","321773.110818","311072.828753","311839.512447","312606.212214","313372.889771","314139.751437","314889.613794","315656.305963","316422.978845","321778.127908"
"Mixed","Male","ball","1","F_cad.wav","space","0.0216253884137","416","324873.191358","317189.654941","317956.298891","318723.041032","319473.051553","320239.687028","321006.432968","321773.110818","325639.846705","311839.512447","312606.212214","313372.889771","314139.751437","314889.613794","315656.305963","316422.978845","324878.305762"
"Mixed","Male","ball","1","M_knife.wav","None","738.62007818","416","324873.191358","317189.654941","317956.298891","318723.041032","319473.051553","320239.687028","321006.432968","321773.110818","325639.846705","326406.492117","312606.212214","313372.889771","314139.751437","314889.613794","315656.305963","316422.978845","325644.667705"
"Mixed","Male","ball","1","M_bluff.wav","None","736.191313374","416","324873.191358","317189.654941","317956.298891","318723.041032","319473.051553","320239.687028","321006.432968","321773.110818","325639.846705","326406.492117","327173.198313","313372.889771","314139.751437","314889.613794","315656.305963","316422.978845","326411.546028"
"Mixed","Male","ball","1","M_ball.wav","None","734.202362193","416","324873.191358","317189.654941","317956.298891","318723.041032","319473.051553","320239.687028","321006.432968","321773.110818","325639.846705","326406.492117","327173.198313","327939.932564","314139.751437","314889.613794","315656.305963","316422.978845","327178.023405"
"Mixed","Male","ball","1","M_depth.wav","space","511.892209717","416","324873.191358","317189.654941","317956.298891","318723.041032","319473.051553","320239.687028","321006.432968","321773.110818","325639.846705","326406.492117","327173.198313","327939.932564","328706.610998","314889.613794","315656.305963","316422.978845","327945.006347"
"Mixed","Male","ball","1","F_dime.wav","None","728.76094712","416","324873.191358","317189.654941","317956.298891","318723.041032","319473.051553","320239.687028","321006.432968","321773.110818","325639.846705","326406.492117","327173.198313","327939.932564","328706.610998","329456.641683","315656.305963","316422.978845","328711.906003"
"Mixed","Male","ball","1","M_ball.wav","None","743.686848024","416","324873.191358","317189.654941","317956.298891","318723.041032","319473.051553","320239.687028","321006.432968","321773.110818","325639.846705","326406.492117","327173.198313","327939.932564","328706.610998","329456.641683","330223.339696","316422.978845","329461.566718"
"Mixed","Male","ball","1","F_reek.wav","space","420.807246492","416","324873.191358","317189.654941","317956.298891","318723.041032","319473.051553","320239.687028","321006.432968","321773.110818","325639.846705","326406.492117","327173.198313","327939.932564","328706.610998","329456.641683","330223.339696","330989.976341","330228.109555"
"Mixed","Male","ball","1","M_ball.wav","None","738.514873592","416","324873.191358","331756.698902","317956.298891","318723.041032","319473.051553","320239.687028","321006.432968","321773.110818","325639.846705","326406.492117","327173.198313","327939.932564","328706.610998","329456.641683","330223.339696","330989.976341","330994.817797"
"Mixed","Male","ball","1","M_park.wav","space","510.891597194","416","324873.191358","331756.698902","332523.346944","318723.041032","319473.051553","320239.687028","321006.432968","321773.110818","325639.846705","326406.492117","327173.198313","327939.932564","328706.610998","329456.641683","330223.339696","330989.976341","331762.013195"
"Mixed","Male","ball","1","F_jaw.wav","None","733.32302718","416","324873.191358","331756.698902","332523.346944","333290.084994","319473.051553","320239.687028","321006.432968","321773.110818","325639.846705","326406.492117","327173.198313","327939.932564","328706.610998","329456.641683","330223.339696","330989.976341","332528.296235"
"Mixed","Male","ball","1","M_ball.wav","None","731.270368777","416","324873.191358","331756.698902","332523.346944","333290.084994","334056.765473","320239.687028","321006.432968","321773.110818","325639.846705","326406.492117","327173.198313","327939.932564","328706.610998","329456.641683","330223.339696","330989.976341","333294.972916"
"Mixed","Male","ball","1","F_gnash.wav","space","538.893843894","416","324873.191358","331756.698902","332523.346944","333290.084994","334056.765473","334806.709364","321006.432968","321773.110818","325639.846705","326406.492117","327173.198313","327939.932564","328706.610998","329456.641683","330223.339696","330989.976341","334061.95089"
"Mixed","Male","ball","1","F_romp.wav","None","742.492775951","416","324873.191358","331756.698902","332523.346944","333290.084994","334056.765473","334806.709364","335573.379908","321773.110818","325639.846705","326406.492117","327173.198313","327939.932564","328706.610998","329456.641683","330223.339696","330989.976341","334811.918745"
"Mixed","Male","ball","1","F_cling.wav","None","740.907109026","416","324873.191358","331756.698902","332523.346944","333290.084994","334056.765473","334806.709364","335573.379908","336340.138999","325639.846705","326406.492117","327173.198313","327939.932564","328706.610998","329456.641683","330223.339696","330989.976341","335578.319848"
"Mixed","Male","cave","18","M_cling.wav","None","738.850651567","416","339440.204927","331756.698902","332523.346944","333290.084994","334056.765473","334806.709364","335573.379908","336340.138999","325639.846705","326406.492117","327173.198313","327939.932564","328706.610998","329456.641683","330223.339696","330989.976341","336345.065788"
"Mixed","Male","cave","18","M_dime.wav","space","0.0204564476153","416","339440.204927","331756.698902","332523.346944","333290.084994","334056.765473","334806.709364","335573.379908","336340.138999","340206.88453","326406.492117","327173.198313","327939.932564","328706.610998","329456.641683","330223.339696","330989.976341","339445.249779"
"Mixed","Male","cave","18","M_cave.wav","None","737.848285633","416","339440.204927","331756.698902","332523.346944","333290.084994","334056.765473","334806.709364","335573.379908","336340.138999","340206.88453","340973.573192","327173.198313","327939.932564","328706.610998","329456.641683","330223.339696","330989.976341","340212.150896"
"Mixed","Male","cave","18","F_bluff.wav","space","366.316237978","416","339440.204927","331756.698902","332523.346944","333290.084994","334056.765473","334806.709364","335573.379908","336340.138999","340206.88453","340973.573192","341740.234092","327939.932564","328706.610998","329456.641683","330223.339696","330989.976341","340978.521899"
"Mixed","Male","cave","18","F_greet.wav","None","733.061476885","416","339440.204927","331756.698902","332523.346944","333290.084994","334056.765473","334806.709364","335573.379908","336340.138999","340206.88453","340973.573192","341740.234092","342506.925969","328706.610998","329456.641683","330223.339696","330989.976341","341745.195073"
"Mixed","Male","cave","18","M_cave.wav","None","731.005311663","416","339440.204927","331756.698902","332523.346944","333290.084994","334056.765473","334806.709364","335573.379908","336340.138999","340206.88453","340973.573192","341740.234092","342506.925969","343273.990153","329456.641683","330223.339696","330989.976341","342511.783791"
"Mixed","Male","cave","18","M_jolt.wav","space","393.399113474","416","339440.204927","331756.698902","332523.346944","333290.084994","334056.765473","334806.709364","335573.379908","336340.138999","340206.88453","340973.573192","341740.234092","342506.925969","343273.990153","344023.657882","330223.339696","330989.976341","343279.374874"
"Mixed","Male","cave","18","F_jolt.wav","None","741.717184352","416","339440.204927","331756.698902","332523.346944","333290.084994","334056.765473","334806.709364","335573.379908","336340.138999","340206.88453","340973.573192","341740.234092","342506.925969","343273.990153","344023.657882","344790.279622","330989.976341","344028.945581"
"Mixed","Male","cave","18","M_cave.wav","None","739.972541603","416","339440.204927","331756.698902","332523.346944","333290.084994","334056.765473","334806.709364","335573.379908","336340.138999","340206.88453","340973.573192","341740.234092","342506.925969","343273.990153","344023.657882","344790.279622","345557.039005","344795.352237"
"Mixed","Male","cave","18","M_greet.wav","space","398.969696404","416","339440.204927","346323.676819","332523.346944","333290.084994","334056.765473","334806.709364","335573.379908","336340.138999","340206.88453","340973.573192","341740.234092","342506.925969","343273.990153","344023.657882","344790.279622","345557.039005","345561.860005"
"Mixed","Male","cave","18","M_cave.wav","None","734.566194727","416","339440.204927","346323.676819","347090.364896","333290.084994","334056.765473","334806.709364","335573.379908","336340.138999","340206.88453","340973.573192","341740.234092","342506.925969","343273.990153","344023.657882","344790.279622","345557.039005","346328.878601"
"Mixed","Male","cave","18","F_knife.wav","space","625.512580131","416","339440.204927","346323.676819","347090.364896","347857.073138","334056.765473","334806.709364","335573.379908","336340.138999","340206.88453","340973.573192","341740.234092","342506.925969","343273.990153","344023.657882","344790.279622","345557.039005","347095.215412"
"Mixed","Male","cave","18","F_cling.wav","None","729.936316155","416","339440.204927","346323.676819","347090.364896","347857.073138","348623.924283","334806.709364","335573.379908","336340.138999","340206.88453","340973.573192","341740.234092","342506.925969","343273.990153","344023.657882","344790.279622","345557.039005","347861.87076"
"Mixed","Male","cave","18","F_jolt.wav","None","726.793329095","416","339440.204927","346323.676819","347090.364896","347857.073138","348623.924283","349373.783718","335573.379908","336340.138999","340206.88453","340973.573192","341740.234092","342506.925969","343273.990153","344023.657882","344790.279622","345557.039005","348629.486683"
"Mixed","Male","cave","18","F_gnash.wav","None","742.093875222","416","339440.204927","346323.676819","347090.364896","347857.073138","348623.924283","349373.783718","350140.433513","336340.138999","340206.88453","340973.573192","341740.234092","342506.925969","343273.990153","344023.657882","344790.279622","345557.039005","349378.858378"
"Mixed","Male","cave","18","F_jaw.wav","None","740.211882039","416","339440.204927","346323.676819","347090.364896","347857.073138","348623.924283","349373.783718","350140.433513","350907.161043","340206.88453","340973.573192","341740.234092","342506.925969","343273.990153","344023.657882","344790.279622","345557.039005","350145.433069"
"Mixed","Female","done","45","M_depth.wav","None","738.059863748","416","354023.927907","346323.676819","347090.364896","347857.073138","348623.924283","349373.783718","350140.433513","350907.161043","340206.88453","340973.573192","341740.234092","342506.925969","343273.990153","344023.657882","344790.279622","345557.039005","350912.154461"
"Mixed","Female","done","45","M_depth.wav","space","0.021333153185","416","354023.927907","346323.676819","347090.364896","347857.073138","348623.924283","349373.783718","350140.433513","350907.161043","354790.531236","340973.573192","341740.234092","342506.925969","343273.990153","344023.657882","344790.279622","345557.039005","354028.851189"
"Mixed","Female","done","45","M_lash.wav","None","738.358527884","416","354023.927907","346323.676819","347090.364896","347857.073138","348623.924283","349373.783718","350140.433513","350907.161043","354790.531236","355557.295003","341740.234092","342506.925969","343273.990153","344023.657882","344790.279622","345557.039005","354795.512381"
"Mixed","Female","done","45","F_bluff.wav","None","736.240116614","416","354023.927907","346323.676819","347090.364896","347857.073138","348623.924283","349373.783718","350140.433513","350907.161043","354790.531236","355557.295003","356323.966716","342506.925969","343273.990153","344023.657882","344790.279622","345557.039005","355562.445352"
"Mixed","Female","done","45","F_done.wav","None","734.24093721","416","354023.927907","346323.676819","347090.364896","347857.073138","348623.924283","349373.783718","350140.433513","350907.161043","354790.531236","355557.295003","356323.966716","357090.618264","343273.990153","344023.657882","344790.279622","345557.039005","356329.133138"
"Mixed","Female","done","45","M_park.wav","None","732.371217895","416","354023.927907","346323.676819","347090.364896","347857.073138","348623.924283","349373.783718","350140.433513","350907.161043","354790.531236","355557.295003","356323.966716","357090.618264","357857.309556","344023.657882","344790.279622","345557.039005","357095.699646"
"Mixed","Female","done","45","M_priest.wav","space","0.0175340974238","416","354023.927907","346323.676819","347090.364896","347857.073138","348623.924283","349373.783718","350140.433513","350907.161043","354790.531236","355557.295003","356323.966716","357090.618264","357857.309556","358624.092026","344790.279622","345557.039005","357862.227286"
"Mixed","Female","done","45","F_cling.wav","None","727.603404421","416","354023.927907","346323.676819","347090.364896","347857.073138","348623.924283","349373.783718","350140.433513","350907.161043","354790.531236","355557.295003","356323.966716","357090.618264","357857.309556","358624.092026","359373.949708","345557.039005","358629.032843"
"Mixed","Female","done","45","F_done.wav","None","742.695002547","416","354023.927907","346323.676819","347090.364896","347857.073138","348623.924283","349373.783718","350140.433513","350907.161043","354790.531236","355557.295003","356323.966716","357090.618264","357857.309556","358624.092026","359373.949708","360140.700908","359378.844935"
"Mixed","Female","done","45","F_dime.wav","space","390.996942053","416","354023.927907","360907.385187","347090.364896","347857.073138","348623.924283","349373.783718","350140.433513","350907.161043","354790.531236","355557.295003","356323.966716","357090.618264","357857.309556","358624.092026","359373.949708","360140.700908","360145.723843"
"Mixed","Female","done","45","F_greet.wav","space","696.287797671","416","354023.927907","360907.385187","361674.045502","347857.073138","348623.924283","349373.783718","350140.433513","350907.161043","354790.531236","355557.295003","356323.966716","357090.618264","357857.309556","358624.092026","359373.949708","360140.700908","360912.451957"
"Mixed","Female","done","45","F_done.wav","None","734.487875756","416","354023.927907","360907.385187","361674.045502","362440.780045","348623.924283","349373.783718","350140.433513","350907.161043","354790.531236","355557.295003","356323.966716","357090.618264","357857.309556","358624.092026","359373.949708","360140.700908","361679.218646"
"Mixed","Female","done","45","M_bluff.wav","space","482.922665276","416","354023.927907","360907.385187","361674.045502","362440.780045","363207.413183","349373.783718","350140.433513","350907.161043","354790.531236","355557.295003","356323.966716","357090.618264","357857.309556","358624.092026","359373.949708","360140.700908","362445.740734"
"Mixed","Female","done","45","F_done.wav","None","729.528063908","416","354023.927907","360907.385187","361674.045502","362440.780045","363207.413183","363974.411906","350140.433513","350907.161043","354790.531236","355557.295003","356323.966716","357090.618264","357857.309556","358624.092026","359373.949708","360140.700908","363212.396373"
"Mixed","Female","done","45","M_greet.wav","space","652.76495191","416","354023.927907","360907.385187","361674.045502","362440.780045","363207.413183","363974.411906","364724.163214","350907.161043","354790.531236","355557.295003","356323.966716","357090.618264","357857.309556","358624.092026","359373.949708","360140.700908","363979.912061"
"Mixed","Female","done","45","M_depth.wav","None","741.096185049","416","354023.927907","360907.385187","361674.045502","362440.780045","363207.413183","363974.411906","364724.163214","365490.821776","354790.531236","355557.295003","356323.966716","357090.618264","357857.309556","358624.092026","359373.949708","360140.700908","364729.197838"
"Mixed","Female","ball","10","M_greet.wav","None","739.544417376","416","368607.569938","360907.385187","361674.045502","362440.780045","363207.413183","363974.411906","364724.163214","365490.821776","354790.531236","355557.295003","356323.966716","357090.618264","357857.309556","358624.092026","359373.949708","360140.700908","365495.617937"
"Mixed","Female","ball","10","F_ball.wav","space","0.0198719790205","416","368607.569938","360907.385187","361674.045502","362440.780045","363207.413183","363974.411906","364724.163214","365490.821776","369374.21418","355557.295003","356323.966716","357090.618264","357857.309556","358624.092026","359373.949708","360140.700908","368612.734606"
"Mixed","Female","ball","10","M_depth.wav","space","485.430625757","416","368607.569938","360907.385187","361674.045502","362440.780045","363207.413183","363974.411906","364724.163214","365490.821776","369374.21418","370140.877126","356323.966716","357090.618264","357857.309556","358624.092026","359373.949708","360140.700908","369379.170485"
"Mixed","Female","ball","10","M_greet.wav","None","735.811115683","416","368607.569938","360907.385187","361674.045502","362440.780045","363207.413183","363974.411906","364724.163214","365490.821776","369374.21418","370140.877126","370907.639431","357090.618264","357857.309556","358624.092026","359373.949708","360140.700908","370146.04647"
"Mixed","Female","ball","10","F_reek.wav","None","733.919478747","416","368607.569938","360907.385187","361674.045502","362440.780045","363207.413183","363974.411906","364724.163214","365490.821776","369374.21418","370140.877126","370907.639431","371674.288349","357857.309556","358624.092026","359373.949708","360140.700908","370912.722566"
"Mixed","Female","ball","10","F_ball.wav","None","732.121649233","416","368607.569938","360907.385187","361674.045502","362440.780045","363207.413183","363974.411906","364724.163214","365490.821776","369374.21418","370140.877126","370907.639431","371674.288349","372440.955386","358624.092026","359373.949708","360140.700908","371679.265695"
"Mixed","Female","ball","10","F_cad.wav","space","554.614039434","416","368607.569938","360907.385187","361674.045502","362440.780045","363207.413183","363974.411906","364724.163214","365490.821776","369374.21418","370140.877126","370907.639431","371674.288349","372440.955386","373191.013249","359373.949708","360140.700908","372446.008129"
"Mixed","Female","ball","10","F_ball.wav","None","743.429973489","416","368607.569938","360907.385187","361674.045502","362440.780045","363207.413183","363974.411906","364724.163214","365490.821776","369374.21418","370140.877126","370907.639431","371674.288349","372440.955386","373191.013249","373957.664797","360140.700908","373196.219122"
"Mixed","Female","ball","10","M_jaw.wav","space","645.87259023","416","368607.569938","360907.385187","361674.045502","362440.780045","363207.413183","363974.411906","364724.163214","365490.821776","369374.21418","370140.877126","370907.639431","371674.288349","372440.955386","373191.013249","373957.664797","374724.36135","373962.739165"
"Mixed","Female","ball","10","M_reek.wav","None","738.644625915","416","368607.569938","375491.044459","361674.045502","362440.780045","363207.413183","363974.411906","364724.163214","365490.821776","369374.21418","370140.877126","370907.639431","371674.288349","372440.955386","373191.013249","373957.664797","374724.36135","374729.412923"
"Mixed","Female","ball","10","F_knife.wav","None","736.737500527","416","368607.569938","375491.044459","376257.774619","362440.780045","363207.413183","363974.411906","364724.163214","365490.821776","369374.21418","370140.877126","370907.639431","371674.288349","372440.955386","373191.013249","373957.664797","374724.36135","375496.200361"
"Mixed","Female","ball","10","M_priest.wav","None","735.023834683","416","368607.569938","375491.044459","376257.774619","377024.415939","363207.413183","363974.411906","364724.163214","365490.821776","369374.21418","370140.877126","370907.639431","371674.288349","372440.955386","373191.013249","373957.664797","374724.36135","376262.675399"
"Mixed","Female","ball","10","M_gnash.wav","None","733.170188292","416","368607.569938","375491.044459","376257.774619","377024.415939","377791.099049","363974.411906","364724.163214","365490.821776","369374.21418","370140.877126","370907.639431","371674.288349","372440.955386","373191.013249","373957.664797","374724.36135","377029.428938"
"Mixed","Female","ball","10","F_reek.wav","None","731.629525551","416","368607.569938","375491.044459","376257.774619","377024.415939","377791.099049","378557.814012","364724.163214","365490.821776","369374.21418","370140.877126","370907.639431","371674.288349","372440.955386","373191.013249","373957.664797","374724.36135","377795.970606"
"Mixed","Female","ball","10","F_ball.wav","None","729.627716033","416","368607.569938","375491.044459","376257.774619","377024.415939","377791.099049","378557.814012","379324.57924","365490.821776","369374.21418","370140.877126","370907.639431","371674.288349","372440.955386","373191.013249","373957.664797","374724.36135","378562.782591"
"Mixed","Female","ball","10","M_gnash.wav","space","486.179039506","416","368607.569938","375491.044459","376257.774619","377024.415939","377791.099049","378557.814012","379324.57924","380074.481341","369374.21418","370140.877126","370907.639431","371674.288349","372440.955386","373191.013249","373957.664797","374724.36135","379330.368707"
"Mixed","Male","cave","16","F_jaw.wav","None","745.227803","416","383174.572402","375491.044459","376257.774619","377024.415939","377791.099049","378557.814012","379324.57924","380074.481341","369374.21418","370140.877126","370907.639431","371674.288349","372440.955386","373191.013249","373957.664797","374724.36135","380075.874718"
"Mixed","Male","cave","16","M_dime.wav","space","0.0213331513805","416","383174.572402","375491.044459","376257.774619","377024.415939","377791.099049","378557.814012","379324.57924","380074.481341","383941.230379","370140.877126","370907.639431","371674.288349","372440.955386","373191.013249","373957.664797","374724.36135","383179.553547"
"Mixed","Male","cave","16","M_cave.wav","None","738.190492777","416","383174.572402","375491.044459","376257.774619","377024.415939","377791.099049","378557.814012","379324.57924","380074.481341","383941.230379","384707.932777","370907.639431","371674.288349","372440.955386","373191.013249","373957.664797","374724.36135","383946.407322"
"Mixed","Male","cave","16","F_dime.wav","space","527.622341247","416","383174.572402","375491.044459","376257.774619","377024.415939","377791.099049","378557.814012","379324.57924","380074.481341","383941.230379","384707.932777","385474.615302","371674.288349","372440.955386","373191.013249","373957.664797","374724.36135","384712.911291"
"Mixed","Male","cave","16","F_romp.wav","None","733.595390169","416","383174.572402","375491.044459","376257.774619","377024.415939","377791.099049","378557.814012","379324.57924","380074.481341","383941.230379","384707.932777","385474.615302","386241.308348","372440.955386","373191.013249","373957.664797","374724.36135","385479.535078"
"Mixed","Male","cave","16","M_park.wav","None","731.685342429","416","383174.572402","375491.044459","376257.774619","377024.415939","377791.099049","378557.814012","379324.57924","380074.481341","383941.230379","384707.932777","385474.615302","386241.308348","387007.930673","373191.013249","373957.664797","374724.36135","386246.300013"
"Mixed","Male","cave","16","F_cling.wav","None","730.117209599","416","383174.572402","375491.044459","376257.774619","377024.415939","377791.099049","378557.814012","379324.57924","380074.481341","383941.230379","384707.932777","385474.615302","386241.308348","387007.930673","387774.787662","373957.664797","374724.36135","387012.920877"
"Mixed","Male","cave","16","M_cad.wav","None","727.25856716","416","383174.572402","375491.044459","376257.774619","377024.415939","377791.099049","378557.814012","379324.57924","380074.481341","383941.230379","384707.932777","385474.615302","386241.308348","387007.930673","387774.787662","388524.687133","374724.36135","387780.876962"
"Mixed","Male","cave","16","M_cave.wav","None","743.371526496","416","383174.572402","375491.044459","376257.774619","377024.415939","377791.099049","378557.814012","379324.57924","380074.481341","383941.230379","384707.932777","385474.615302","386241.308348","387007.930673","387774.787662","388524.687133","389291.387193","388529.548754"
"Mixed","Male","cave","16","F_knife.wav","space","527.885644951","416","383174.572402","390058.062704","376257.774619","377024.415939","377791.099049","378557.814012","379324.57924","380074.481341","383941.230379","384707.932777","385474.615302","386241.308348","387007.930673","387774.787662","388524.687133","389291.387193","389296.534912"
"Mixed","Male","cave","16","M_priest.wav","None","738.286930316","416","383174.572402","390058.062704","390824.746398","377024.415939","377791.099049","378557.814012","379324.57924","380074.481341","383941.230379","384707.932777","385474.615302","386241.308348","387007.930673","387774.787662","388524.687133","389291.387193","390063.018717"
"Mixed","Male","cave","16","M_cave.wav","None","736.207094062","416","383174.572402","390058.062704","390824.746398","391591.421033","377791.099049","378557.814012","379324.57924","380074.481341","383941.230379","384707.932777","385474.615302","386241.308348","387007.930673","387774.787662","388524.687133","389291.387193","390829.938245"
"Mixed","Male","cave","16","F_bluff.wav","space","627.981381125","416","383174.572402","390058.062704","390824.746398","391591.421033","392358.126061","378557.814012","379324.57924","380074.481341","383941.230379","384707.932777","385474.615302","386241.308348","387007.930673","387774.787662","388524.687133","389291.387193","391596.471146"
"Mixed","Male","cave","16","F_bluff.wav","None","731.497143111","416","383174.572402","390058.062704","390824.746398","391591.421033","392358.126061","393124.824951","379324.57924","380074.481341","383941.230379","384707.932777","385474.615302","386241.308348","387007.930673","387774.787662","388524.687133","389291.387193","392363.266182"
"Mixed","Male","cave","16","M_cave.wav","None","729.764774231","416","383174.572402","390058.062704","390824.746398","391591.421033","392358.126061","393124.824951","393891.754123","380074.481341","383941.230379","384707.932777","385474.615302","386241.308348","387007.930673","387774.787662","388524.687133","389291.387193","393129.851685"
"Mixed","Male","cave","16","F_bluff.wav","space","526.703554513","416","383174.572402","390058.062704","390824.746398","391591.421033","392358.126061","393124.824951","393891.754123","394641.490235","383941.230379","384707.932777","385474.615302","386241.308348","387007.930673","387774.787662","388524.687133","389291.387193","393897.693799"
"Mixed","Female","done","48","F_priest.wav","None","741.444821362","416","397758.243072","390058.062704","390824.746398","391591.421033","392358.126061","393124.824951","393891.754123","394641.490235","383941.230379","384707.932777","385474.615302","386241.308348","387007.930673","387774.787662","388524.687133","389291.387193","394646.552913"
"Mixed","Female","done","48","F_done.wav","None","741.445698068","416","397758.243072","390058.062704","390824.746398","391591.421033","392358.126061","393124.824951","393891.754123","394641.490235","398524.915661","384707.932777","385474.615302","386241.308348","387007.930673","387774.787662","388524.687133","389291.387193","397763.401603"
"Mixed","Female","done","48","M_knife.wav","space","494.493416531","416","397758.243072","390058.062704","390824.746398","391591.421033","392358.126061","393124.824951","393891.754123","394641.490235","398524.915661","399291.579191","385474.615302","386241.308348","387007.930673","387774.787662","388524.687133","389291.387193","398529.863783"
"Mixed","Female","done","48","M_reek.wav","None","737.217642576","416","397758.243072","390058.062704","390824.746398","391591.421033","392358.126061","393124.824951","393891.754123","394641.490235","398524.915661","399291.579191","400058.341496","386241.308348","387007.930673","387774.787662","388524.687133","389291.387193","399296.826854"
"Mixed","Female","done","48","M_lash.wav","None","735.613857081","416","397758.243072","390058.062704","390824.746398","391591.421033","392358.126061","393124.824951","393891.754123","394641.490235","398524.915661","399291.579191","400058.341496","400824.999474","387007.930673","387774.787662","388524.687133","389291.387193","400063.404467"
"Mixed","Female","done","48","F_done.wav","None","734.261978127","416","397758.243072","390058.062704","390824.746398","391591.421033","392358.126061","393124.824951","393891.754123","394641.490235","398524.915661","399291.579191","400058.341496","400824.999474","401591.67294","387774.787662","388524.687133","389291.387193","400829.869277"
"Mixed","Female","done","48","F_bluff.wav","space","419.811309726","416","397758.243072","390058.062704","390824.746398","391591.421033","392358.126061","393124.824951","393891.754123","394641.490235","398524.915661","399291.579191","400058.341496","400824.999474","401591.67294","402358.35868","388524.687133","389291.387193","401596.540113"
"Mixed","Female","done","48","F_done.wav","None","729.267390318","416","397758.243072","390058.062704","390824.746398","391591.421033","392358.126061","393124.824951","393891.754123","394641.490235","398524.915661","399291.579191","400058.341496","400824.999474","401591.67294","402358.35868","403125.481019","389291.387193","402363.398272"
"Mixed","Female","done","48","F_priest.wav","space","509.255081381","416","397758.243072","390058.062704","390824.746398","391591.421033","392358.126061","393124.824951","393891.754123","394641.490235","398524.915661","399291.579191","400058.341496","400824.999474","401591.67294","402358.35868","403125.481019","403875.03273","403131.046049"
"Mixed","Female","done","48","M_knife.wav","None","741.301041759","416","397758.243072","404641.746817","390824.746398","391591.421033","392358.126061","393124.824951","393891.754123","394641.490235","398524.915661","399291.579191","400058.341496","400824.999474","401591.67294","402358.35868","403125.481019","403875.03273","403880.007446"
"Mixed","Female","done","48","M_bluff.wav","None","739.386610494","416","397758.243072","404641.746817","405408.382585","391591.421033","392358.126061","393124.824951","393891.754123","394641.490235","398524.915661","399291.579191","400058.341496","400824.999474","401591.67294","402358.35868","403125.481019","403875.03273","404646.881678"
"Mixed","Female","done","48","M_lash.wav","None","737.761491848","416","397758.243072","404641.746817","405408.382585","406175.15015","392358.126061","393124.824951","393891.754123","394641.490235","398524.915661","399291.579191","400058.341496","400824.999474","401591.67294","402358.35868","403125.481019","403875.03273","405413.58992"
"Mixed","Female","done","48","M_park.wav","None","735.840923651","416","397758.243072","404641.746817","405408.382585","406175.15015","406941.831214","393124.824951","393891.754123","394641.490235","398524.915661","399291.579191","400058.341496","400824.999474","401591.67294","402358.35868","403125.481019","403875.03273","406180.428498"
"Mixed","Female","done","48","F_done.wav","None","734.523528421","416","397758.243072","404641.746817","405408.382585","406175.15015","406941.831214","407708.527767","393891.754123","394641.490235","398524.915661","399291.579191","400058.341496","400824.999474","401591.67294","402358.35868","403125.481019","403875.03273","406946.777876"
"Mixed","Female","done","48","M_priest.wav","space","462.701759021","416","397758.243072","404641.746817","405408.382585","406175.15015","406941.831214","407708.527767","408475.186913","394641.490235","398524.915661","399291.579191","400058.341496","400824.999474","401591.67294","402358.35868","403125.481019","403875.03273","407713.650061"
"Mixed","Female","done","48","F_cling.wav","None","729.611935345","416","397758.243072","404641.746817","405408.382585","406175.15015","406941.831214","407708.527767","408475.186913","409242.252267","398524.915661","399291.579191","400058.341496","400824.999474","401591.67294","402358.35868","403125.481019","403875.03273","408480.214232"
"Mixed","Female","cave","24","M_jolt.wav","None","726.73371316","416","412325.263947","404641.746817","405408.382585","406175.15015","406941.831214","407708.527767","408475.186913","409242.252267","398524.915661","399291.579191","400058.341496","400824.999474","401591.67294","402358.35868","403125.481019","403875.03273","409248.031213"
"Mixed","Female","cave","24","F_reek.wav","None","741.448328183","416","412325.263947","404641.746817","405408.382585","406175.15015","406941.831214","407708.527767","408475.186913","409242.252267","413091.949686","399291.579191","400058.341496","400824.999474","401591.67294","402358.35868","403125.481019","403875.03273","412330.35205"
"Mixed","Female","cave","24","F_cad.wav","None","739.822917301","416","412325.263947","404641.746817","405408.382585","406175.15015","406941.831214","407708.527767","408475.186913","409242.252267","413091.949686","413858.616431","400058.341496","400824.999474","401591.67294","402358.35868","403125.481019","403875.03273","413096.950996"
"Mixed","Female","cave","24","F_cave.wav","None","738.442399319","416","412325.263947","404641.746817","405408.382585","406175.15015","406941.831214","407708.527767","408475.186913","409242.252267","413091.949686","413858.616431","414625.325258","400824.999474","401591.67294","402358.35868","403125.481019","403875.03273","413863.379277"
"Mixed","Female","cave","24","M_park.wav","space","401.9700728","416","412325.263947","404641.746817","405408.382585","406175.15015","406941.831214","407708.527767","408475.186913","409242.252267","413091.949686","413858.616431","414625.325258","415392.019472","401591.67294","402358.35868","403125.481019","403875.03273","414630.278056"
"Mixed","Female","cave","24","F_cave.wav","None","733.462131024","416","412325.263947","404641.746817","405408.382585","406175.15015","406941.831214","407708.527767","408475.186913","409242.252267","413091.949686","413858.616431","414625.325258","415392.019472","416158.658454","402358.35868","403125.481019","403875.03273","415396.968471"
"Mixed","Female","cave","24","F_jolt.wav","space","524.517636964","416","412325.263947","404641.746817","405408.382585","406175.15015","406941.831214","407708.527767","408475.186913","409242.252267","413091.949686","413858.616431","414625.325258","415392.019472","416158.658454","416925.867879","403125.481019","403875.03273","416163.708275"
"Mixed","Female","cave","24","F_cave.wav","None","727.863201306","416","412325.263947","404641.746817","405408.382585","406175.15015","406941.831214","407708.527767","408475.186913","409242.252267","413091.949686","413858.616431","414625.325258","415392.019472","416158.658454","416925.867879","417675.448522","403875.03273","416931.295852"
"Mixed","Female","cave","24","F_dime.wav","space","439.934901738","416","412325.263947","404641.746817","405408.382585","406175.15015","406941.831214","407708.527767","408475.186913","409242.252267","413091.949686","413858.616431","414625.325258","415392.019472","416158.658454","416925.867879","417675.448522","418442.129586","417680.329138"
"Mixed","Female","cave","24","M_lash.wav","None","740.409432878","416","412325.263947","419208.760386","405408.382585","406175.15015","406941.831214","407708.527767","408475.186913","409242.252267","413091.949686","413858.616431","414625.325258","415392.019472","416158.658454","416925.867879","417675.448522","418442.129586","418447.17853"
"Mixed","Female","cave","24","M_park.wav","None","738.848313687","416","412325.263947","419208.760386","419975.444372","406175.15015","406941.831214","407708.527767","408475.186913","409242.252267","413091.949686","413858.616431","414625.325258","415392.019472","416158.658454","416925.867879","417675.448522","418442.129586","419213.801439"
"Mixed","Female","cave","24","F_cave.wav","None","737.535301983","416","412325.263947","419208.760386","419975.444372","420742.167811","406941.831214","407708.527767","408475.186913","409242.252267","413091.949686","413858.616431","414625.325258","415392.019472","416158.658454","416925.867879","417675.448522","418442.129586","419980.235857"
"Mixed","Female","cave","24","M_depth.wav","space","348.964786856","416","412325.263947","419208.760386","419975.444372","420742.167811","421508.819651","407708.527767","408475.186913","409242.252267","413091.949686","413858.616431","414625.325258","415392.019472","416158.658454","416925.867879","417675.448522","418442.129586","420747.224937"
"Mixed","Female","cave","24","M_park.wav","None","732.907761294","416","412325.263947","419208.760386","419975.444372","420742.167811","421508.819651","422275.486688","408475.186913","409242.252267","413091.949686","413858.616431","414625.325258","415392.019472","416158.658454","416925.867879","417675.448522","418442.129586","421513.835864"
"Mixed","Female","cave","24","M_bluff.wav","None","731.811003465","416","412325.263947","419208.760386","419975.444372","420742.167811","421508.819651","422275.486688","423042.20925","409242.252267","413091.949686","413858.616431","414625.325258","415392.019472","416158.658454","416925.867879","417675.448522","418442.129586","422280.367597"
"Mixed","Female","cave","24","M_romp.wav","None","730.069283065","416","412325.263947","419208.760386","419975.444372","420742.167811","421508.819651","422275.486688","423042.20925","423809.030586","413091.949686","413858.616431","414625.325258","415392.019472","416158.658454","416925.867879","417675.448522","418442.129586","423047.157664"
"Mixed","Male","done","37","F_romp.wav","None","728.291033296","416","426908.929649","419208.760386","419975.444372","420742.167811","421508.819651","422275.486688","423042.20925","423809.030586","413091.949686","413858.616431","414625.325258","415392.019472","416158.658454","416925.867879","417675.448522","418442.129586","423814.012024"
"Mixed","Male","done","37","M_reek.wav","None","741.7201067","416","426908.929649","419208.760386","419975.444372","420742.167811","421508.819651","422275.486688","423042.20925","423809.030586","427675.634384","413858.616431","414625.325258","415392.019472","416158.658454","416925.867879","417675.448522","418442.129586","426913.942647"
"Mixed","Male","done","37","F_reek.wav","None","740.09352688","416","426908.929649","419208.760386","419975.444372","420742.167811","421508.819651","422275.486688","423042.20925","423809.030586","427675.634384","428442.328598","414625.325258","415392.019472","416158.658454","416925.867879","417675.448522","418442.129586","427680.754633"
"Mixed","Male","done","37","M_jolt.wav","None","738.897993631","416","426908.929649","419208.760386","419975.444372","420742.167811","421508.819651","422275.486688","423042.20925","423809.030586","427675.634384","428442.328598","429209.055836","415392.019472","416158.658454","416925.867879","417675.448522","418442.129586","428447.154274"
"Mixed","Male","done","37","M_done.wav","None","736.987653658","416","426908.929649","419208.760386","419975.444372","420742.167811","421508.819651","422275.486688","423042.20925","423809.030586","427675.634384","428442.328598","429209.055836","429975.690727","416158.658454","416925.867879","417675.448522","418442.129586","429214.212906"
"Mixed","Male","done","37","F_cling.wav","None","735.785691242","416","426908.929649","419208.760386","419975.444372","420742.167811","421508.819651","422275.486688","423042.20925","423809.030586","427675.634384","428442.328598","429209.055836","429975.690727","430742.370037","416925.867879","417675.448522","418442.129586","429980.633589"
"Mixed","Male","done","37","M_done.wav","space","92.7474879482","416","426908.929649","419208.760386","419975.444372","420742.167811","421508.819651","422275.486688","423042.20925","423809.030586","427675.634384","428442.328598","429209.055836","429975.690727","430742.370037","431509.092014","417675.448522","418442.129586","430747.298872"
"Mixed","Male","done","37","F_cad.wav","space","613.624753938","416","426908.929649","419208.760386","419975.444372","420742.167811","421508.819651","422275.486688","423042.20925","423809.030586","427675.634384","428442.328598","429209.055836","429975.690727","430742.370037","431509.092014","432276.03346","418442.129586","431514.389942"
"Mixed","Male","done","37","F_gnash.wav","None","727.098422398","416","426908.929649","419208.760386","419975.444372","420742.167811","421508.819651","422275.486688","423042.20925","423809.030586","427675.634384","428442.328598","429209.055836","429975.690727","430742.370037","431509.092014","432276.03346","433025.736841","432281.531861"
"Mixed","Male","done","37","M_reek.wav","None","742.951292614","416","426908.929649","433792.444791","419975.444372","420742.167811","421508.819651","422275.486688","423042.20925","423809.030586","427675.634384","428442.328598","429209.055836","429975.690727","430742.370037","431509.092014","432276.03346","433025.736841","433030.743118"
"Mixed","Male","done","37","F_priest.wav","None","741.671887932","416","426908.929649","433792.444791","434559.168521","420742.167811","421508.819651","422275.486688","423042.20925","423809.030586","427675.634384","428442.328598","429209.055836","429975.690727","430742.370037","431509.092014","432276.03346","433025.736841","433797.384439"
"Mixed","Male","done","37","F_lash.wav","None","740.034495417","416","426908.929649","433792.444791","434559.168521","435325.815686","421508.819651","422275.486688","423042.20925","423809.030586","427675.634384","428442.328598","429209.055836","429975.690727","430742.370037","431509.092014","432276.03346","433025.736841","434564.179474"
"Mixed","Male","done","37","M_done.wav","None","738.333103442","416","426908.929649","433792.444791","434559.168521","435325.815686","436092.48623","422275.486688","423042.20925","423809.030586","427675.634384","428442.328598","429209.055836","429975.690727","430742.370037","431509.092014","432276.03346","433025.736841","435331.064226"
"Mixed","Male","done","37","F_lash.wav","space","478.581514853","416","426908.929649","433792.444791","434559.168521","435325.815686","436092.48623","436859.234508","423042.20925","423809.030586","427675.634384","428442.328598","429209.055836","429975.690727","430742.370037","431509.092014","432276.03346","433025.736841","436097.41448"
"Mixed","Male","done","37","M_done.wav","None","734.112061589","416","426908.929649","433792.444791","434559.168521","435325.815686","436092.48623","436859.234508","437625.871737","423809.030586","427675.634384","428442.328598","429209.055836","429975.690727","430742.370037","431509.092014","432276.03346","433025.736841","436864.092622"
"Mixed","Male","done","37","M_bluff.wav","space","432.933244183","416","426908.929649","433792.444791","434559.168521","435325.815686","436092.48623","436859.234508","437625.871737","438392.532929","427675.634384","428442.328598","429209.055836","429975.690727","430742.370037","431509.092014","432276.03346","433025.736841","437631.099528"
"Mixed","Female","ball","11","M_cad.wav","None","729.440685653","416","441475.99056","433792.444791","434559.168521","435325.815686","436092.48623","436859.234508","437625.871737","438392.532929","427675.634384","428442.328598","429209.055836","429975.690727","430742.370037","431509.092014","432276.03346","433025.736841","438397.485435"
"Mixed","Female","ball","11","F_ball.wav","space","0.021333153185","416","441475.99056","433792.444791","434559.168521","435325.815686","436092.48623","436859.234508","437625.871737","438392.532929","442242.647953","428442.328598","429209.055836","429975.690727","430742.370037","431509.092014","432276.03346","433025.736841","441480.955632"
"Mixed","Female","ball","11","F_jaw.wav","None","738.732004171","416","441475.99056","433792.444791","434559.168521","435325.815686","436092.48623","436859.234508","437625.871737","438392.532929","442242.647953","443009.31762","429209.055836","429975.690727","430742.370037","431509.092014","432276.03346","433025.736841","442247.709755"
"Mixed","Female","ball","11","M_cling.wav","space","9.68466678204","416","441475.99056","433792.444791","434559.168521","435325.815686","436092.48623","436859.234508","437625.871737","438392.532929","442242.647953","443009.31762","443776.032875","429975.690727","430742.370037","431509.092014","432276.03346","433025.736841","443014.263404"
"Mixed","Female","ball","11","F_ball.wav","None","734.121997579","416","441475.99056","433792.444791","434559.168521","435325.815686","436092.48623","436859.234508","437625.871737","438392.532929","442242.647953","443009.31762","443776.032875","444542.718031","430742.370037","431509.092014","432276.03346","433025.736841","443781.277616"
"Mixed","Female","ball","11","M_depth.wav","space","452.271308604","416","441475.99056","433792.444791","434559.168521","435325.815686","436092.48623","436859.234508","437625.871737","438392.532929","442242.647953","443009.31762","443776.032875","444542.718031","445309.389451","431509.092014","432276.03346","433025.736841","444547.711157"
"Mixed","Female","ball","11","F_park.wav","None","729.786399617","416","441475.99056","433792.444791","434559.168521","435325.815686","436092.48623","436859.234508","437625.871737","438392.532929","442242.647953","443009.31762","443776.032875","444542.718031","445309.389451","446076.451005","432276.03346","433025.736841","445314.410924"
"Mixed","Female","ball","11","M_greet.wav","None","727.577395508","416","441475.99056","433792.444791","434559.168521","435325.815686","436092.48623","436859.234508","437625.871737","438392.532929","442242.647953","443009.31762","443776.032875","444542.718031","445309.389451","446076.451005","446826.156724","433025.736841","446081.836603"
"Mixed","Female","ball","11","F_ball.wav","None","743.60180765","416","441475.99056","433792.444791","434559.168521","435325.815686","436092.48623","436859.234508","437625.871737","438392.532929","442242.647953","443009.31762","443776.032875","444542.718031","445309.389451","446076.451005","446826.156724","447592.776711","446831.001688"
"Mixed","Female","ball","11","F_knife.wav","space","321.879573477","416","441475.99056","448359.499565","434559.168521","435325.815686","436092.48623","436859.234508","437625.871737","438392.532929","442242.647953","443009.31762","443776.032875","444542.718031","445309.389451","446076.451005","446826.156724","447592.776711","447598.069087"
"Mixed","Female","ball","11","M_priest.wav","None","739.044111115","416","441475.99056","448359.499565","449126.163387","435325.815686","436092.48623","436859.234508","437625.871737","438392.532929","442242.647953","443009.31762","443776.032875","444542.718031","445309.389451","446076.451005","446826.156724","447592.776711","448364.386318"
"Mixed","Female","ball","11","F_ball.wav","None","737.584689692","416","441475.99056","448359.499565","449126.163387","449892.833054","436092.48623","436859.234508","437625.871737","438392.532929","442242.647953","443009.31762","443776.032875","444542.718031","445309.389451","446076.451005","446826.156724","447592.776711","449131.162066"
"Mixed","Female","ball","11","M_jaw.wav","space","557.842943579","416","441475.99056","448359.499565","449126.163387","449892.833054","450659.55357","436859.234508","437625.871737","438392.532929","442242.647953","443009.31762","443776.032875","444542.718031","445309.389451","446076.451005","446826.156724","447592.776711","449898.019056"
"Mixed","Female","ball","11","F_lash.wav","None","733.062645826","416","441475.99056","448359.499565","449126.163387","449892.833054","450659.55357","451426.171512","437625.871737","438392.532929","442242.647953","443009.31762","443776.032875","444542.718031","445309.389451","446076.451005","446826.156724","447592.776711","450664.698659"
"Mixed","Female","ball","11","M_knife.wav","None","732.095055851","416","441475.99056","448359.499565","449126.163387","449892.833054","450659.55357","451426.171512","452192.898749","438392.532929","442242.647953","443009.31762","443776.032875","444542.718031","445309.389451","446076.451005","446826.156724","447592.776711","451430.944001"
"Mixed","Female","ball","11","M_cling.wav","None","730.309792443","416","441475.99056","448359.499565","449126.163387","449892.833054","450659.55357","451426.171512","452192.898749","452959.571046","442242.647953","443009.31762","443776.032875","444542.718031","445309.389451","446076.451005","446826.156724","447592.776711","452198.024842"
"Mixed","Male","cave","13","M_cling.wav","space","315.317437309","416","456043.03832","448359.499565","449126.163387","449892.833054","450659.55357","451426.171512","452192.898749","452959.571046","442242.647953","443009.31762","443776.032875","444542.718031","445309.389451","446076.451005","446826.156724","447592.776711","452964.574985"
"Mixed","Male","cave","13","F_depth.wav","None","741.524601508","416","456043.03832","448359.499565","449126.163387","449892.833054","450659.55357","451426.171512","452192.898749","452959.571046","456809.676718","443009.31762","443776.032875","444542.718031","445309.389451","446076.451005","446826.156724","447592.776711","456047.952543"
"Mixed","Male","cave","13","F_bluff.wav","None","739.8588622","416","456043.03832","448359.499565","449126.163387","449892.833054","450659.55357","451426.171512","452192.898749","452959.571046","456809.676718","457576.349892","443776.032875","444542.718031","445309.389451","446076.451005","446826.156724","447592.776711","456814.773296"
"Mixed","Male","cave","13","M_cave.wav","None","738.984495181","416","456043.03832","448359.499565","449126.163387","449892.833054","450659.55357","451426.171512","452192.898749","452959.571046","456809.676718","457576.349892","458343.039723","444542.718031","445309.389451","446076.451005","446826.156724","447592.776711","457581.417538"
"Mixed","Male","cave","13","F_cling.wav","space","371.959002941","416","456043.03832","448359.499565","449126.163387","449892.833054","450659.55357","451426.171512","452192.898749","452959.571046","456809.676718","457576.349892","458343.039723","459109.7316","445309.389451","446076.451005","446826.156724","447592.776711","458347.966512"
"Mixed","Male","cave","13","M_lash.wav","None","734.406926669","416","456043.03832","448359.499565","449126.163387","449892.833054","450659.55357","451426.171512","452192.898749","452959.571046","456809.676718","457576.349892","458343.039723","459109.7316","459876.406527","446076.451005","446826.156724","447592.776711","459114.848342"
"Mixed","Male","cave","13","F_jaw.wav","None","733.031961156","416","456043.03832","448359.499565","449126.163387","449892.833054","450659.55357","451426.171512","452192.898749","452959.571046","456809.676718","457576.349892","458343.039723","459109.7316","459876.406527","460643.051062","446826.156724","447592.776711","459881.369846"
