"Condition","Talker","Target","Trial","current_stimulus","response_response","response_time_response","subject_nr","time_Audio1","time_Audio10","time_Audio11","time_Audio12","time_Audio13","time_Audio14","time_Audio15","time_Audio16","time_Audio2","time_Audio3","time_Audio4","time_Audio5","time_Audio6","time_Audio7","time_Audio8","time_Audio9","time_response","title"
"Blocked","Male","tile","17","M_depth.wav","NA","NA","413","143154.382076","NA","NA","NA","NA","NA","NA","NA","NA","NA","NA","NA","NA","NA","NA","NA","NA","Mapping"
"Blocked","Male","tile","17","M_cling.wav","None","719.184009258","413","143154.382076","NA","NA","NA","NA","NA","NA","NA","143921.833488","NA","NA","NA","NA","NA","NA","NA","143165.863011","Mapping"
"Blocked","Male","tile","17","M_park.wav","None","724.072646288","413","143154.382076","NA","NA","NA","NA","NA","NA","NA","143921.833488","144671.77685","NA","NA","NA","NA","NA","NA","143925.79067","Mapping"
"Blocked","Male","tile","17","M_tile.wav","None","739.683834086","413","143154.382076","NA","NA","NA","NA","NA","NA","NA","143921.833488","144671.77685","145438.593972","NA","NA","NA","NA","NA","144675.320586","Mapping"
"Blocked","Male","tile","17","M_park.wav","space","499.03969982","413","143154.382076","NA","NA","NA","NA","NA","NA","NA","143921.833488","144671.77685","145438.593972","146205.739807","NA","NA","NA","NA","145441.272957","Mapping"
"Blocked","Male","tile","17","M_tile.wav","None","736.595008722","413","143154.382076","NA","NA","NA","NA","NA","NA","NA","143921.833488","144671.77685","145438.593972","146205.739807","146973.00613","NA","NA","NA","146208.393853","Mapping"
"Blocked","Male","tile","17","M_romp.wav","space","357.532136704","413","143154.382076","NA","NA","NA","NA","NA","NA","NA","143921.833488","144671.77685","145438.593972","146205.739807","146973.00613","147740.231289","NA","NA","146975.797491","Mapping"
"Blocked","Male","tile","17","M_tile.wav","None","732.225282336","413","143154.382076","NA","NA","NA","NA","NA","NA","NA","143921.833488","144671.77685","145438.593972","146205.739807","146973.00613","147740.231289","148507.723866","NA","147742.869711","Mapping"
"Blocked","Male","tile","17","M_jolt.wav","space","468.792948344","413","143154.382076","NA","NA","NA","NA","NA","NA","NA","143921.833488","144671.77685","145438.593972","146205.739807","146973.00613","147740.231289","148507.723866","149275.021438","148510.544072","Mapping"
"Blocked","Male","tile","17","M_greet.wav","None","727.212250978","413","143154.382076","150025.276988","NA","NA","NA","NA","NA","NA","143921.833488","144671.77685","145438.593972","146205.739807","146973.00613","147740.231289","148507.723866","149275.021438","149277.895128","Mapping"
"Blocked","Male","tile","17","M_romp.wav","None","742.048528211","413","143154.382076","150025.276988","150792.474203","NA","NA","NA","NA","NA","143921.833488","144671.77685","145438.593972","146205.739807","146973.00613","147740.231289","148507.723866","149275.021438","150028.091485","Mapping"
"Blocked","Male","tile","17","M_tile.wav","None","739.887552334","413","143154.382076","150025.276988","150792.474203","151559.713184","NA","NA","NA","NA","143921.833488","144671.77685","145438.593972","146205.739807","146973.00613","147740.231289","148507.723866","149275.021438","150795.39086","Mapping"
"Blocked","Male","tile","17","M_dime.wav","space","385.577649404","413","143154.382076","150025.276988","150792.474203","151559.713184","152326.911902","NA","NA","NA","143921.833488","144671.77685","145438.593972","146205.739807","146973.00613","147740.231289","148507.723866","149275.021438","151562.750028","Mapping"
"Blocked","Male","tile","17","M_cling.wav","None","735.226971576","413","143154.382076","150025.276988","150792.474203","151559.713184","152326.911902","153094.089887","NA","NA","143921.833488","144671.77685","145438.593972","146205.739807","146973.00613","147740.231289","148507.723866","149275.021438","152329.72099","Mapping"
"Blocked","Male","tile","17","M_lash.wav","None","732.893526267","413","143154.382076","150025.276988","150792.474203","151559.713184","152326.911902","153094.089887","153861.46468","NA","143921.833488","144671.77685","145438.593972","146205.739807","146973.00613","147740.231289","148507.723866","149275.021438","153096.783595","Mapping"
"Blocked","Male","tile","17","M_knife.wav","None","730.090447298","413","143154.382076","150025.276988","150792.474203","151559.713184","152326.911902","153094.089887","153861.46468","154628.872825","143921.833488","144671.77685","145438.593972","146205.739807","146973.00613","147740.231289","148507.723866","149275.021438","153864.762332","Mapping"
"Blocked","Male","ball","5","M_romp.wav","None","728.137997179","413","157781.78861","150025.276988","150792.474203","151559.713184","152326.911902","153094.089887","153861.46468","154628.872825","143921.833488","144671.77685","145438.593972","146205.739807","146973.00613","147740.231289","148507.723866","149275.021438","154631.786477","Mapping"
"Blocked","Male","ball","5","M_ball.wav","None","726.269678491","413","157781.78861","150025.276988","150792.474203","151559.713184","152326.911902","153094.089887","153861.46468","154628.872825","158531.799577","144671.77685","145438.593972","146205.739807","146973.00613","147740.231289","148507.723866","149275.021438","157785.188121","Mapping"
"Blocked","Male","ball","5","M_lash.wav","space","610.361206276","413","157781.78861","150025.276988","150792.474203","151559.713184","152326.911902","153094.089887","153861.46468","154628.872825","158531.799577","159298.801788","145438.593972","146205.739807","146973.00613","147740.231289","148507.723866","149275.021438","158534.964722","Mapping"
"Blocked","Male","ball","5","M_ball.wav","None","739.467796591","413","157781.78861","150025.276988","150792.474203","151559.713184","152326.911902","153094.089887","153861.46468","154628.872825","158531.799577","159298.801788","160066.079529","146205.739807","146973.00613","147740.231289","148507.723866","149275.021438","159302.021017","Mapping"
"Blocked","Male","ball","5","M_cling.wav","space","661.995068696","413","157781.78861","150025.276988","150792.474203","151559.713184","152326.911902","153094.089887","153861.46468","154628.872825","158531.799577","159298.801788","160066.079529","160833.403243","146973.00613","147740.231289","148507.723866","149275.021438","160069.30597","Mapping"
"Blocked","Male","ball","5","M_jaw.wav","None","734.378145538","413","157781.78861","150025.276988","150792.474203","151559.713184","152326.911902","153094.089887","153861.46468","154628.872825","158531.799577","159298.801788","160066.079529","160833.403243","161600.287669","147740.231289","148507.723866","149275.021438","160836.869758","Mapping"
"Blocked","Male","ball","5","M_ball.wav","None","733.174164679","413","157781.78861","150025.276988","150792.474203","151559.713184","152326.911902","153094.089887","153861.46468","154628.872825","158531.799577","159298.801788","160066.079529","160833.403243","161600.287669","162367.758913","148507.723866","149275.021438","161603.045978","Mapping"
"Blocked","Male","ball","5","M_cling.wav","space","432.628452167","413","157781.78861","150025.276988","150792.474203","151559.713184","152326.911902","153094.089887","153861.46468","154628.872825","158531.799577","159298.801788","160066.079529","160833.403243","161600.287669","162367.758913","163134.960636","149275.021438","162370.719438","Mapping"
"Blocked","Male","ball","5","M_lash.wav","None","728.467311634","413","157781.78861","150025.276988","150792.474203","151559.713184","152326.911902","153094.089887","153861.46468","154628.872825","158531.799577","159298.801788","160066.079529","160833.403243","161600.287669","162367.758913","163134.960636","163902.249194","163137.653442","Mapping"
"Blocked","Male","ball","5","M_knife.wav","None","726.138974307","413","157781.78861","164652.492123","150792.474203","151559.713184","152326.911902","153094.089887","153861.46468","154628.872825","158531.799577","159298.801788","160066.079529","160833.403243","161600.287669","162367.758913","163134.960636","163902.249194","163905.209418","Mapping"
"Blocked","Male","ball","5","M_dime.wav","None","740.979157639","413","157781.78861","164652.492123","165419.680325","151559.713184","152326.911902","153094.089887","153861.46468","154628.872825","158531.799577","159298.801788","160066.079529","160833.403243","161600.287669","162367.758913","163134.960636","163902.249194","164655.452648","Mapping"
"Blocked","Male","ball","5","M_depth.wav","None","738.973223972","413","157781.78861","164652.492123","165419.680325","166186.924714","152326.911902","153094.089887","153861.46468","154628.872825","158531.799577","159298.801788","160066.079529","160833.403243","161600.287669","162367.758913","163134.960636","163902.249194","165422.580155","Mapping"
"Blocked","Male","ball","5","M_dime.wav","None","736.579684783","413","157781.78861","164652.492123","165419.680325","166186.924714","166954.174511","153094.089887","153861.46468","154628.872825","158531.799577","159298.801788","160066.079529","160833.403243","161600.287669","162367.758913","163134.960636","163902.249194","166189.802309","Mapping"
"Blocked","Male","ball","5","M_reek.wav","None","734.717976424","413","157781.78861","164652.492123","165419.680325","166186.924714","166954.174511","167721.387952","153861.46468","154628.872825","158531.799577","159298.801788","160066.079529","160833.403243","161600.287669","162367.758913","163134.960636","163902.249194","166956.95806","Mapping"
"Blocked","Male","ball","5","M_ball.wav","None","732.461451278","413","157781.78861","164652.492123","165419.680325","166186.924714","166954.174511","167721.387952","168488.722783","154628.872825","158531.799577","159298.801788","160066.079529","160833.403243","161600.287669","162367.758913","163134.960636","163902.249194","167724.321735","Mapping"
"Blocked","Male","ball","5","M_cling.wav","space","485.803121637","413","157781.78861","164652.492123","165419.680325","166186.924714","166954.174511","167721.387952","168488.722783","169256.065425","158531.799577","159298.801788","160066.079529","160833.403243","161600.287669","162367.758913","163134.960636","163902.249194","168491.501223","Mapping"
"Blocked","Male","done","23","M_priest.wav","None","727.835724971","413","172375.718047","164652.492123","165419.680325","166186.924714","166954.174511","167721.387952","168488.722783","169256.065425","158531.799577","159298.801788","160066.079529","160833.403243","161600.287669","162367.758913","163134.960636","163902.249194","169258.789781","Mapping"
"Blocked","Male","done","23","M_done.wav","None","726.965866077","413","172375.718047","164652.492123","165419.680325","166186.924714","166954.174511","167721.387952","168488.722783","169256.065425","173142.31853","159298.801788","160066.079529","160833.403243","161600.287669","162367.758913","163134.960636","163902.249194","172379.259379","Mapping"
"Blocked","Male","done","23","M_gnash.wav","space","485.203685197","413","172375.718047","164652.492123","165419.680325","166186.924714","166954.174511","167721.387952","168488.722783","169256.065425","173142.31853","173892.578286","160066.079529","160833.403243","161600.287669","162367.758913","163134.960636","163902.249194","173145.121909","Mapping"
"Blocked","Male","done","23","M_cad.wav","None","740.952115395","413","172375.718047","164652.492123","165419.680325","166186.924714","166954.174511","167721.387952","168488.722783","169256.065425","173142.31853","173892.578286","174659.820572","160833.403243","161600.287669","162367.758913","163134.960636","163902.249194","173895.330886","Mapping"
"Blocked","Male","done","23","M_gnash.wav","None","738.729543293","413","172375.718047","164652.492123","165419.680325","166186.924714","166954.174511","167721.387952","168488.722783","169256.065425","173142.31853","173892.578286","174659.820572","175426.940266","161600.287669","162367.758913","163134.960636","163902.249194","174662.439763","Mapping"
"Blocked","Male","done","23","M_cad.wav","None","736.769881909","413","172375.718047","164652.492123","165419.680325","166186.924714","166954.174511","167721.387952","168488.722783","169256.065425","173142.31853","173892.578286","174659.820572","175426.940266","176194.214702","162367.758913","163134.960636","163902.249194","175429.493054","Mapping"
"Blocked","Male","done","23","M_cling.wav","None","734.469788704","413","172375.718047","164652.492123","165419.680325","166186.924714","166954.174511","167721.387952","168488.722783","169256.065425","173142.31853","173892.578286","174659.820572","175426.940266","176194.214702","176961.443167","163134.960636","163902.249194","176197.014176","Mapping"
"Blocked","Male","done","23","M_romp.wav","None","732.403761156","413","172375.718047","164652.492123","165419.680325","166186.924714","166954.174511","167721.387952","168488.722783","169256.065425","173142.31853","173892.578286","174659.820572","175426.940266","176194.214702","176961.443167","177729.678504","163902.249194","176964.390771","Mapping"
"Blocked","Male","done","23","M_done.wav","None","728.80564017","413","172375.718047","164652.492123","165419.680325","166186.924714","166954.174511","167721.387952","168488.722783","169256.065425","173142.31853","173892.578286","174659.820572","175426.940266","176194.214702","176961.443167","177729.678504","178496.672902","177733.121583","Mapping"
"Blocked","Male","done","23","M_cad.wav","space","614.875157971","413","172375.718047","179246.731945","165419.680325","166186.924714","166954.174511","167721.387952","168488.722783","169256.065425","173142.31853","173892.578286","174659.820572","175426.940266","176194.214702","176961.443167","177729.678504","178496.672902","178500.495474","Mapping"
"Blocked","Male","done","23","M_done.wav","None","741.567176243","413","172375.718047","179246.731945","180014.027714","166186.924714","166954.174511","167721.387952","168488.722783","169256.065425","173142.31853","173892.578286","174659.820572","175426.940266","176194.214702","176961.443167","177729.678504","178496.672902","179250.17923","Mapping"
"Blocked","Male","done","23","M_cad.wav","space","677.086444444","413","172375.718047","179246.731945","180014.027714","180781.199991","166954.174511","167721.387952","168488.722783","169256.065425","173142.31853","173892.578286","174659.820572","175426.940266","176194.214702","176961.443167","177729.678504","178496.672902","180017.218399","Mapping"
"Blocked","Male","done","23","M_done.wav","None","737.033694037","413","172375.718047","179246.731945","180014.027714","180781.199991","181548.492755","167721.387952","168488.722783","169256.065425","173142.31853","173892.578286","174659.820572","175426.940266","176194.214702","176961.443167","177729.678504","178496.672902","180784.687539","Mapping"
"Blocked","Male","done","23","M_reek.wav","space","467.995803043","413","172375.718047","179246.731945","180014.027714","180781.199991","181548.492755","182315.338422","168488.722783","169256.065425","173142.31853","173892.578286","174659.820572","175426.940266","176194.214702","176961.443167","177729.678504","178496.672902","181551.334895","Mapping"
"Blocked","Male","done","23","M_knife.wav","None","733.59992981","413","172375.718047","179246.731945","180014.027714","180781.199991","181548.492755","182315.338422","183083.44005","169256.065425","173142.31853","173892.578286","174659.820572","175426.940266","176194.214702","176961.443167","177729.678504","178496.672902","182318.067285","Mapping"
"Blocked","Male","done","23","M_knife.wav","None","729.789677434","413","172375.718047","179246.731945","180014.027714","180781.199991","181548.492755","182315.338422","183083.44005","183850.060665","173142.31853","173892.578286","174659.820572","175426.940266","176194.214702","176961.443167","177729.678504","178496.672902","183086.842265","Mapping"
"Blocked","Male","cave","12","M_depth.wav","None","728.348325754","413","186969.573868","179246.731945","180014.027714","180781.199991","181548.492755","182315.338422","183083.44005","183850.060665","173142.31853","173892.578286","174659.820572","175426.940266","176194.214702","176961.443167","177729.678504","178496.672902","183853.702654","Mapping"
"Blocked","Male","cave","12","M_depth.wav","None","725.860739647","413","186969.573868","179246.731945","180014.027714","180781.199991","181548.492755","182315.338422","183083.44005","183850.060665","187719.592648","173892.578286","174659.820572","175426.940266","176194.214702","176961.443167","177729.678504","178496.672902","186973.470956","Mapping"
"Blocked","Male","cave","12","M_cave.wav","None","741.660321753","413","186969.573868","179246.731945","180014.027714","180781.199991","181548.492755","182315.338422","183083.44005","183850.060665","187719.592648","188486.855966","174659.820572","175426.940266","176194.214702","176961.443167","177729.678504","178496.672902","187722.777323","Mapping"
"Blocked","Male","cave","12","M_priest.wav","space","615.116735364","413","186969.573868","179246.731945","180014.027714","180781.199991","181548.492755","182315.338422","183083.44005","183850.060665","187719.592648","188486.855966","189253.990985","175426.940266","176194.214702","176961.443167","177729.678504","178496.672902","188490.173749","Mapping"
"Blocked","Male","cave","12","M_cave.wav","None","737.587759599","413","186969.573868","179246.731945","180014.027714","180781.199991","181548.492755","182315.338422","183083.44005","183850.060665","187719.592648","188486.855966","189253.990985","190020.881421","176194.214702","176961.443167","177729.678504","178496.672902","189257.130589","Mapping"
"Blocked","Male","cave","12","M_jolt.wav","space","551.757355341","413","186969.573868","179246.731945","180014.027714","180781.199991","181548.492755","182315.338422","183083.44005","183850.060665","187719.592648","188486.855966","189253.990985","190020.881421","190788.480064","176961.443167","177729.678504","178496.672902","190023.590453","Mapping"
"Blocked","Male","cave","12","M_cling.wav","None","732.934991043","413","186969.573868","179246.731945","180014.027714","180781.199991","181548.492755","182315.338422","183083.44005","183850.060665","187719.592648","188486.855966","189253.990985","190020.881421","190788.480064","191555.336547","177729.678504","178496.672902","190791.689678","Mapping"
"Blocked","Male","cave","12","M_bluff.wav","None","731.598803652","413","186969.573868","179246.731945","180014.027714","180781.199991","181548.492755","182315.338422","183083.44005","183850.060665","187719.592648","188486.855966","189253.990985","190020.881421","190788.480064","191555.336547","192323.395809","178496.672902","191558.43679","Mapping"
"Blocked","Male","cave","12","M_jaw.wav","None","728.108551179","413","186969.573868","179246.731945","180014.027714","180781.199991","181548.492755","182315.338422","183083.44005","183850.060665","187719.592648","188486.855966","189253.990985","190020.881421","190788.480064","191555.336547","192323.395809","193090.68617","192327.030287","Mapping"
"Blocked","Male","cave","12","M_cave.wav","None","726.33998833","413","186969.573868","193840.30202","180014.027714","180781.199991","181548.492755","182315.338422","183083.44005","183850.060665","187719.592648","188486.855966","189253.990985","190020.881421","190788.480064","191555.336547","192323.395809","193090.68617","193094.227502","Mapping"
"Blocked","Male","cave","12","M_lash.wav","space","574.368278123","413","186969.573868","193840.30202","194607.521771","180781.199991","181548.492755","182315.338422","183083.44005","183850.060665","187719.592648","188486.855966","189253.990985","190020.881421","190788.480064","191555.336547","192323.395809","193090.68617","193842.957568","Mapping"
"Blocked","Male","cave","12","M_romp.wav","None","740.623702348","413","186969.573868","193840.30202","194607.521771","195375.225277","181548.492755","182315.338422","183083.44005","183850.060665","187719.592648","188486.855966","189253.990985","190020.881421","190788.480064","191555.336547","192323.395809","193090.68617","194610.143666","Mapping"
"Blocked","Male","cave","12","M_cave.wav","None","737.600078843","413","186969.573868","193840.30202","194607.521771","195375.225277","196142.417685","182315.338422","183083.44005","183850.060665","187719.592648","188486.855966","189253.990985","190020.881421","190788.480064","191555.336547","192323.395809","193090.68617","195378.760299","Mapping"
"Blocked","Male","cave","12","M_knife.wav","space","578.517760445","413","186969.573868","193840.30202","194607.521771","195375.225277","196142.417685","196909.258243","183083.44005","183850.060665","187719.592648","188486.855966","189253.990985","190020.881421","190788.480064","191555.336547","192323.395809","193090.68617","196145.821102","Mapping"
"Blocked","Male","cave","12","M_cad.wav","None","734.326164333","413","186969.573868","193840.30202","194607.521771","195375.225277","196142.417685","196909.258243","197676.499628","183850.060665","187719.592648","188486.855966","189253.990985","190020.881421","190788.480064","191555.336547","192323.395809","193090.68617","196911.861811","Mapping"
"Blocked","Male","cave","12","M_jaw.wav","None","732.355686054","413","186969.573868","193840.30202","194607.521771","195375.225277","196142.417685","196909.258243","197676.499628","198443.858496","187719.592648","188486.855966","189253.990985","190020.881421","190788.480064","191555.336547","192323.395809","193090.68617","197678.986613","Mapping"
"Blocked","Male","ball","3","M_dime.wav","None","730.314597464","413","201563.461239","193840.30202","194607.521771","195375.225277","196142.417685","196909.258243","197676.499628","198443.858496","187719.592648","188486.855966","189253.990985","190020.881421","190788.480064","191555.336547","192323.395809","193090.68617","198446.411584","Mapping"
"Blocked","Male","ball","3","M_lash.wav","None","725.886279546","413","201563.461239","193840.30202","194607.521771","195375.225277","196142.417685","196909.258243","197676.499628","198443.858496","202313.152507","188486.855966","189253.990985","190020.881421","190788.480064","191555.336547","192323.395809","193090.68617","201567.103529","Mapping"
"Blocked","Male","ball","3","M_depth.wav","None","741.983025882","413","201563.461239","193840.30202","194607.521771","195375.225277","196142.417685","196909.258243","197676.499628","198443.858496","202313.152507","203080.32238","189253.990985","190020.881421","190788.480064","191555.336547","192323.395809","193090.68617","202315.993745","Mapping"
"Blocked","Male","ball","3","M_ball.wav","None","740.245711851","413","201563.461239","193840.30202","194607.521771","195375.225277","196142.417685","196909.258243","197676.499628","198443.858496","202313.152507","203080.32238","203847.923426","190020.881421","190788.480064","191555.336547","192323.395809","193090.68617","203083.058454","Mapping"
"Blocked","Male","ball","3","M_knife.wav","space","443.155096891","413","201563.461239","193840.30202","194607.521771","195375.225277","196142.417685","196909.258243","197676.499628","198443.858496","202313.152507","203080.32238","203847.923426","204615.217994","190788.480064","191555.336547","192323.395809","193090.68617","203851.160383","Mapping"
"Blocked","Male","ball","3","M_ball.wav","None","735.173187555","413","201563.461239","193840.30202","194607.521771","195375.225277","196142.417685","196909.258243","197676.499628","198443.858496","202313.152507","203080.32238","203847.923426","204615.217994","205382.064862","191555.336547","192323.395809","193090.68617","204618.250932","Mapping"
"Blocked","Male","ball","3","M_gnash.wav","space","465.747090104","413","201563.461239","193840.30202","194607.521771","195375.225277","196142.417685","196909.258243","197676.499628","198443.858496","202313.152507","203080.32238","203847.923426","204615.217994","205382.064862","206149.250058","192323.395809","193090.68617","205384.566269","Mapping"
"Blocked","Male","ball","3","M_dime.wav","None","731.605714447","413","201563.461239","193840.30202","194607.521771","195375.225277","196142.417685","196909.258243","197676.499628","198443.858496","202313.152507","203080.32238","203847.923426","204615.217994","205382.064862","206149.250058","206916.977602","193090.68617","206152.340386","Mapping"
"Blocked","Male","ball","3","M_dime.wav","None","728.669828006","413","201563.461239","193840.30202","194607.521771","195375.225277","196142.417685","196909.258243","197676.499628","198443.858496","202313.152507","203080.32238","203847.923426","204615.217994","205382.064862","206149.250058","206916.977602","207684.692226","206920.636418","Mapping"
"Blocked","Male","ball","3","M_dime.wav","None","726.633546927","413","201563.461239","208451.019282","194607.521771","195375.225277","196142.417685","196909.258243","197676.499628","198443.858496","202313.152507","203080.32238","203847.923426","204615.217994","205382.064862","206149.250058","206916.977602","207684.692226","207688.015117","Mapping"
"Blocked","Male","ball","3","M_bluff.wav","None","726.231518878","413","201563.461239","208451.019282","209201.400428","195375.225277","196142.417685","196909.258243","197676.499628","198443.858496","202313.152507","203080.32238","203847.923426","204615.217994","205382.064862","206149.250058","206916.977602","207684.692226","208454.083169","Mapping"
"Blocked","Male","ball","3","M_ball.wav","None","741.298857076","413","201563.461239","208451.019282","209201.400428","209968.744873","196142.417685","196909.258243","197676.499628","198443.858496","202313.152507","203080.32238","203847.923426","204615.217994","205382.064862","206149.250058","206916.977602","207684.692226","209204.46822","Mapping"
"Blocked","Male","ball","3","M_park.wav","space","513.032859933","413","201563.461239","208451.019282","209201.400428","209968.744873","210735.873281","196909.258243","197676.499628","198443.858496","202313.152507","203080.32238","203847.923426","204615.217994","205382.064862","206149.250058","206916.977602","207684.692226","209971.307276","Mapping"
"Blocked","Male","ball","3","M_ball.wav","None","737.58235115","413","201563.461239","208451.019282","209201.400428","209968.744873","210735.873281","211503.175961","197676.499628","198443.858496","202313.152507","203080.32238","203847.923426","204615.217994","205382.064862","206149.250058","206916.977602","207684.692226","210738.529431","Mapping"
"Blocked","Male","ball","3","M_jolt.wav","None","734.912981059","413","201563.461239","208451.019282","209201.400428","209968.744873","210735.873281","211503.175961","212270.386097","198443.858496","202313.152507","203080.32238","203847.923426","204615.217994","205382.064862","206149.250058","206916.977602","207684.692226","211506.128674","Mapping"
"Blocked","Male","ball","3","M_bluff.wav","space","5.20713458536","413","201563.461239","208451.019282","209201.400428","209968.744873","210735.873281","211503.175961","212270.386097","213037.961904","202313.152507","203080.32238","203847.923426","204615.217994","205382.064862","206149.250058","206916.977602","207684.692226","212273.096932","Mapping"
"Blocked","Male","ball","2","M_reek.wav","None","730.263217198","413","216157.307145","208451.019282","209201.400428","209968.744873","210735.873281","211503.175961","212270.386097","213037.961904","202313.152507","203080.32238","203847.923426","204615.217994","205382.064862","206149.250058","206916.977602","207684.692226","213040.853321","Mapping"
"Blocked","Male","ball","2","M_greet.wav","None","727.494992678","413","216157.307145","208451.019282","209201.400428","209968.744873","210735.873281","211503.175961","212270.386097","213037.961904","216923.899516","203080.32238","203847.923426","204615.217994","205382.064862","206149.250058","206916.977602","207684.692226","216160.862299","Mapping"
"Blocked","Male","ball","2","M_cad.wav","None","726.803011665","413","216157.307145","208451.019282","209201.400428","209968.744873","210735.873281","211503.175961","212270.386097","213037.961904","216923.899516","217674.282765","203847.923426","204615.217994","205382.064862","206149.250058","206916.977602","207684.692226","216926.766595","Mapping"
"Blocked","Male","ball","2","M_ball.wav","None","741.887176147","413","216157.307145","208451.019282","209201.400428","209968.744873","210735.873281","211503.175961","212270.386097","213037.961904","216923.899516","217674.282765","218441.514534","204615.217994","205382.064862","206149.250058","206916.977602","207684.692226","217677.069919","Mapping"
"Blocked","Male","ball","2","M_lash.wav","space","437.055267739","413","216157.307145","208451.019282","209201.400428","209968.744873","210735.873281","211503.175961","212270.386097","213037.961904","216923.899516","217674.282765","218441.514534","219208.775149","205382.064862","206149.250058","206916.977602","207684.692226","218444.28997","Mapping"
"Blocked","Male","ball","2","M_cad.wav","None","737.628322966","413","216157.307145","208451.019282","209201.400428","209968.744873","210735.873281","211503.175961","212270.386097","213037.961904","216923.899516","217674.282765","218441.514534","219208.775149","219975.859087","206149.250058","206916.977602","207684.692226","219211.66296","Mapping"
"Blocked","Male","ball","2","M_priest.wav","None","736.228436062","413","216157.307145","208451.019282","209201.400428","209968.744873","210735.873281","211503.175961","212270.386097","213037.961904","216923.899516","217674.282765","218441.514534","219208.775149","219975.859087","220743.179795","206916.977602","207684.692226","219978.499913","Mapping"
"Blocked","Male","ball","2","M_jaw.wav","None","734.140474249","413","216157.307145","208451.019282","209201.400428","209968.744873","210735.873281","211503.175961","212270.386097","213037.961904","216923.899516","217674.282765","218441.514534","219208.775149","219975.859087","220743.179795","221510.311809","207684.692226","220746.066405","Mapping"
"Blocked","Male","ball","2","M_romp.wav","None","731.917601677","413","216157.307145","208451.019282","209201.400428","209968.744873","210735.873281","211503.175961","212270.386097","213037.961904","216923.899516","217674.282765","218441.514534","219208.775149","219975.859087","220743.179795","221510.311809","222278.05678","221513.41085","Mapping"
"Blocked","Male","ball","2","M_cad.wav","None","729.774954434","413","216157.307145","223045.119386","209201.400428","209968.744873","210735.873281","211503.175961","212270.386097","213037.961904","216923.899516","217674.282765","218441.514534","219208.775149","219975.859087","220743.179795","221510.311809","222278.05678","222280.931371","Mapping"
"Blocked","Male","ball","2","M_ball.wav","None","728.207706079","413","216157.307145","223045.119386","223812.370385","209968.744873","210735.873281","211503.175961","212270.386097","213037.961904","216923.899516","217674.282765","218441.514534","219208.775149","219975.859087","220743.179795","221510.311809","222278.05678","223047.883704","Mapping"
"Blocked","Male","ball","2","M_jaw.wav","space","463.921738541","413","216157.307145","223045.119386","223812.370385","224562.627437","210735.873281","211503.175961","212270.386097","213037.961904","216923.899516","217674.282765","218441.514534","219208.775149","219975.859087","220743.179795","221510.311809","222278.05678","223815.418347","Mapping"
"Blocked","Male","ball","2","M_ball.wav","None","740.92927972","413","216157.307145","223045.119386","223812.370385","224562.627437","225329.813535","211503.175961","212270.386097","213037.961904","216923.899516","217674.282765","218441.514534","219208.775149","219975.859087","220743.179795","221510.311809","222278.05678","224565.40798","Mapping"
"Blocked","Male","ball","2","M_park.wav","space","537.747969878","413","216157.307145","223045.119386","223812.370385","224562.627437","225329.813535","226097.041699","212270.386097","213037.961904","216923.899516","217674.282765","218441.514534","219208.775149","219975.859087","220743.179795","221510.311809","222278.05678","225332.564332","Mapping"
"Blocked","Male","ball","2","M_ball.wav","None","736.891872482","413","216157.307145","223045.119386","223812.370385","224562.627437","225329.813535","226097.041699","226864.233506","213037.961904","216923.899516","217674.282765","218441.514534","219208.775149","219975.859087","220743.179795","221510.311809","222278.05678","226099.768158","Mapping"
"Blocked","Male","ball","2","M_gnash.wav","space","385.392560258","413","216157.307145","223045.119386","223812.370385","224562.627437","225329.813535","226097.041699","226864.233506","227631.942721","216923.899516","217674.282765","218441.514534","219208.775149","219975.859087","220743.179795","221510.311809","222278.05678","226866.90558","Mapping"
"Blocked","Male","ball","1","M_cling.wav","None","732.013751884","413","230767.990154","223045.119386","223812.370385","224562.627437","225329.813535","226097.041699","226864.233506","227631.942721","216923.899516","217674.282765","218441.514534","219208.775149","219975.859087","220743.179795","221510.311809","222278.05678","227635.057687","Mapping"
"Blocked","Male","ball","1","M_ball.wav","None","727.340851878","413","230767.990154","223045.119386","223812.370385","224562.627437","225329.813535","226097.041699","226864.233506","227631.942721","231534.649229","217674.282765","218441.514534","219208.775149","219975.859087","220743.179795","221510.311809","222278.05678","230771.462979","Mapping"
"Blocked","Male","ball","1","M_greet.wav","space","462.879109744","413","230767.990154","223045.119386","223812.370385","224562.627437","225329.813535","226097.041699","226864.233506","227631.942721","231534.649229","232284.772872","218441.514534","219208.775149","219975.859087","220743.179795","221510.311809","222278.05678","231537.428871","Mapping"
"Blocked","Male","ball","1","M_depth.wav","None","741.956584578","413","230767.990154","223045.119386","223812.370385","224562.627437","225329.813535","226097.041699","226864.233506","227631.942721","231534.649229","232284.772872","233052.019665","219208.775149","219975.859087","220743.179795","221510.311809","222278.05678","232287.462374","Mapping"
"Blocked","Male","ball","1","M_ball.wav","None","740.25081983","413","230767.990154","223045.119386","223812.370385","224562.627437","225329.813535","226097.041699","226864.233506","227631.942721","231534.649229","232284.772872","233052.019665","233819.2292","219975.859087","220743.179795","221510.311809","222278.05678","233054.656585","Mapping"
"Blocked","Male","ball","1","M_priest.wav","space","384.226739012","413","230767.990154","223045.119386","223812.370385","224562.627437","225329.813535","226097.041699","226864.233506","227631.942721","231534.649229","232284.772872","233052.019665","233819.2292","234586.548406","220743.179795","221510.311809","222278.05678","233822.065631","Mapping"
"Blocked","Male","ball","1","M_depth.wav","None","735.938783568","413","230767.990154","223045.119386","223812.370385","224562.627437","225329.813535","226097.041699","226864.233506","227631.942721","231534.649229","232284.772872","233052.019665","233819.2292","234586.548406","235353.765152","221510.311809","222278.05678","234588.930828","Mapping"
"Blocked","Male","ball","1","M_gnash.wav","None","733.735141037","413","230767.990154","223045.119386","223812.370385","224562.627437","225329.813535","226097.041699","226864.233506","227631.942721","231534.649229","232284.772872","233052.019665","233819.2292","234586.548406","235353.765152","236120.994518","222278.05678","235356.47809","Mapping"
"Blocked","Male","ball","1","M_priest.wav","None","732.120718987","413","230767.990154","223045.119386","223812.370385","224562.627437","225329.813535","226097.041699","226864.233506","227631.942721","231534.649229","232284.772872","233052.019665","233819.2292","234586.548406","235353.765152","236120.994518","236888.27917","236123.625428","Mapping"
"Blocked","Male","ball","1","M_greet.wav","None","729.248832526","413","230767.990154","237655.595371","223812.370385","224562.627437","225329.813535","226097.041699","226864.233506","227631.942721","231534.649229","232284.772872","233052.019665","233819.2292","234586.548406","235353.765152","236120.994518","236888.27917","236892.012502","Mapping"
"Blocked","Male","ball","1","M_gnash.wav","None","728.464306942","413","230767.990154","237655.595371","238422.808812","224562.627437","225329.813535","226097.041699","226864.233506","227631.942721","231534.649229","232284.772872","233052.019665","233819.2292","234586.548406","235353.765152","236120.994518","236888.27917","237658.358788","Mapping"
"Blocked","Male","ball","1","M_reek.wav","None","726.920795667","413","230767.990154","237655.595371","238422.808812","239173.209488","225329.813535","226097.041699","226864.233506","227631.942721","231534.649229","232284.772872","233052.019665","233819.2292","234586.548406","235353.765152","236120.994518","236888.27917","238425.736886","Mapping"
"Blocked","Male","ball","1","M_ball.wav","None","742.066856843","413","230767.990154","237655.595371","238422.808812","239173.209488","239940.425032","226097.041699","226864.233506","227631.942721","231534.649229","232284.772872","233052.019665","233819.2292","234586.548406","235353.765152","236120.994518","236888.27917","239176.037806","Mapping"
"Blocked","Male","ball","1","M_reek.wav","space","490.929429954","413","230767.990154","237655.595371","238422.808812","239173.209488","239940.425032","240707.641478","226864.233506","227631.942721","231534.649229","232284.772872","233052.019665","233819.2292","234586.548406","235353.765152","236120.994518","236888.27917","239943.404787","Mapping"
"Blocked","Male","ball","1","M_ball.wav","None","737.995496564","413","230767.990154","237655.595371","238422.808812","239173.209488","239940.425032","240707.641478","241475.292101","227631.942721","231534.649229","232284.772872","233052.019665","233819.2292","234586.548406","235353.765152","236120.994518","236888.27917","240710.470096","Mapping"
"Blocked","Male","ball","1","M_jolt.wav","space","451.841366583","413","230767.990154","237655.595371","238422.808812","239173.209488","239940.425032","240707.641478","241475.292101","242242.483908","231534.649229","232284.772872","233052.019665","233819.2292","234586.548406","235353.765152","236120.994518","236888.27917","241478.439819","Mapping"
"Blocked","Male","cave","9","M_dime.wav","None","733.319591867","413","245378.602853","237655.595371","238422.808812","239173.209488","239940.425032","240707.641478","241475.292101","242242.483908","231534.649229","232284.772872","233052.019665","233819.2292","234586.548406","235353.765152","236120.994518","236888.27917","242245.706743","Mapping"
"Blocked","Male","cave","9","M_cave.wav","None","726.821340299","413","245378.602853","237655.595371","238422.808812","239173.209488","239940.425032","240707.641478","241475.292101","242242.483908","246145.032971","232284.772872","233052.019665","233819.2292","234586.548406","235353.765152","236120.994518","236888.27917","245382.029406","Mapping"
"Blocked","Male","cave","9","M_park.wav","space","623.242329166","413","245378.602853","237655.595371","238422.808812","239173.209488","239940.425032","240707.641478","241475.292101","242242.483908","246145.032971","246895.511468","233052.019665","233819.2292","234586.548406","235353.765152","236120.994518","236888.27917","246148.081233","Mapping"
"Blocked","Male","cave","9","M_bluff.wav","None","740.735176494","413","245378.602853","237655.595371","238422.808812","239173.209488","239940.425032","240707.641478","241475.292101","242242.483908","246145.032971","246895.511468","247663.159688","233819.2292","234586.548406","235353.765152","236120.994518","236888.27917","246898.312444","Mapping"
"Blocked","Male","cave","9","M_romp.wav","None","738.297167836","413","245378.602853","237655.595371","238422.808812","239173.209488","239940.425032","240707.641478","241475.292101","242242.483908","246145.032971","246895.511468","247663.159688","248430.313335","234586.548406","235353.765152","236120.994518","236888.27917","247666.446222","Mapping"
"Blocked","Male","cave","9","M_park.wav","None","737.094088385","413","245378.602853","237655.595371","238422.808812","239173.209488","239940.425032","240707.641478","241475.292101","242242.483908","246145.032971","246895.511468","247663.159688","248430.313335","249197.158401","235353.765152","236120.994518","236888.27917","248433.352884","Mapping"
"Blocked","Male","cave","9","M_cave.wav","None","735.879591099","413","245378.602853","237655.595371","238422.808812","239173.209488","239940.425032","240707.641478","241475.292101","242242.483908","246145.032971","246895.511468","247663.159688","248430.313335","249197.158401","249964.388067","236120.994518","236888.27917","249199.936541","Mapping"
"Blocked","Male","cave","9","M_reek.wav","space","406.335877909","413","245378.602853","237655.595371","238422.808812","239173.209488","239940.425032","240707.641478","241475.292101","242242.483908","246145.032971","246895.511468","247663.159688","248430.313335","249197.158401","249964.388067","250731.490034","236888.27917","249966.985925","Mapping"
"Blocked","Male","cave","9","M_knife.wav","None","732.293789359","413","245378.602853","237655.595371","238422.808812","239173.209488","239940.425032","240707.641478","241475.292101","242242.483908","246145.032971","246895.511468","247663.159688","248430.313335","249197.158401","249964.388067","250731.490034","251499.242517","250734.186446","Mapping"
"Blocked","Male","cave","9","M_cad.wav","None","730.021940275","413","245378.602853","252266.81592","238422.808812","239173.209488","239940.425032","240707.641478","241475.292101","242242.483908","246145.032971","246895.511468","247663.159688","248430.313335","249197.158401","249964.388067","250731.490034","251499.242517","251502.146253","Mapping"
"Blocked","Male","cave","9","M_romp.wav","None","727.068626607","413","245378.602853","252266.81592","253033.991502","239173.209488","239940.425032","240707.641478","241475.292101","242242.483908","246145.032971","246895.511468","247663.159688","248430.313335","249197.158401","249964.388067","250731.490034","251499.242517","252270.460614","Mapping"
"Blocked","Male","cave","9","M_dime.wav","None","725.830993179","413","245378.602853","252266.81592","253033.991502","253783.78553","239940.425032","240707.641478","241475.292101","242242.483908","246145.032971","246895.511468","247663.159688","248430.313335","249197.158401","249964.388067","250731.490034","251499.242517","253037.566486","Mapping"
"Blocked","Male","cave","9","M_cave.wav","None","742.278387297","413","245378.602853","252266.81592","253033.991502","253783.78553","254551.039233","240707.641478","241475.292101","242242.483908","246145.032971","246895.511468","247663.159688","248430.313335","249197.158401","249964.388067","250731.490034","251499.242517","253786.526111","Mapping"
"Blocked","Male","cave","9","M_reek.wav","space","551.687345971","413","245378.602853","252266.81592","253033.991502","253783.78553","254551.039233","255318.177857","241475.292101","242242.483908","246145.032971","246895.511468","247663.159688","248430.313335","249197.158401","249964.388067","250731.490034","251499.242517","254553.641298","Mapping"
"Blocked","Male","cave","9","M_cave.wav","None","738.804059702","413","245378.602853","252266.81592","253033.991502","253783.78553","254551.039233","255318.177857","256085.419242","242242.483908","246145.032971","246895.511468","247663.159688","248430.313335","249197.158401","249964.388067","250731.490034","251499.242517","255320.738157","Mapping"
"Blocked","Male","cave","9","M_cad.wav","space","624.434591718","413","245378.602853","252266.81592","253033.991502","253783.78553","254551.039233","255318.177857","256085.419242","256853.112232","246145.032971","246895.511468","247663.159688","248430.313335","249197.158401","249964.388067","250731.490034","251499.242517","256087.871373","Mapping"
"Blocked","Male","ball","6","M_park.wav","None","733.016718717","413","259989.355872","252266.81592","253033.991502","253783.78553","254551.039233","255318.177857","256085.419242","256853.112232","246145.032971","246895.511468","247663.159688","248430.313335","249197.158401","249964.388067","250731.490034","251499.242517","256856.689921","Mapping"
"Blocked","Male","ball","6","M_cad.wav","None","726.447556372","413","259989.355872","252266.81592","253033.991502","253783.78553","254551.039233","255318.177857","256085.419242","256853.112232","260756.356881","246895.511468","247663.159688","248430.313335","249197.158401","249964.388067","250731.490034","251499.242517","259993.182349","Mapping"
"Blocked","Male","ball","6","M_ball.wav","None","725.638993235","413","259989.355872","252266.81592","253033.991502","253783.78553","254551.039233","255318.177857","256085.419242","256853.112232","260756.356881","261505.99827","247663.159688","248430.313335","249197.158401","249964.388067","250731.490034","251499.242517","260759.750683","Mapping"
"Blocked","Male","ball","6","M_jolt.wav","space","412.29839255","413","259989.355872","252266.81592","253033.991502","253783.78553","254551.039233","255318.177857","256085.419242","256853.112232","260756.356881","261505.99827","262273.273308","248430.313335","249197.158401","249964.388067","250731.490034","251499.242517","261508.990645","Mapping"
"Blocked","Male","ball","6","M_lash.wav","None","739.621636922","413","259989.355872","252266.81592","253033.991502","253783.78553","254551.039233","255318.177857","256085.419242","256853.112232","260756.356881","261505.99827","262273.273308","263040.497565","249197.158401","249964.388067","250731.490034","251499.242517","262276.386771","Mapping"
"Blocked","Male","ball","6","M_jolt.wav","None","738.336228858","413","259989.355872","252266.81592","253033.991502","253783.78553","254551.039233","255318.177857","256085.419242","256853.112232","260756.356881","261505.99827","262273.273308","263040.497565","263807.760884","249964.388067","250731.490034","251499.242517","263043.475517","Mapping"
"Blocked","Male","ball","6","M_gnash.wav","None","736.305055758","413","259989.355872","252266.81592","253033.991502","253783.78553","254551.039233","255318.177857","256085.419242","256853.112232","260756.356881","261505.99827","262273.273308","263040.497565","263807.760884","264574.884485","250731.490034","251499.242517","263810.677841","Mapping"
"Blocked","Male","ball","6","M_priest.wav","None","735.197525575","413","259989.355872","252266.81592","253033.991502","253783.78553","254551.039233","255318.177857","256085.419242","256853.112232","260756.356881","261505.99827","262273.273308","263040.497565","263807.760884","264574.884485","265342.170639","251499.242517","264577.629573","Mapping"
"Blocked","Male","ball","6","M_park.wav","None","733.375178705","413","259989.355872","252266.81592","253033.991502","253783.78553","254551.039233","255318.177857","256085.419242","256853.112232","260756.356881","261505.99827","262273.273308","263040.497565","263807.760884","264574.884485","265342.170639","266109.340211","265345.264873","Mapping"
"Blocked","Male","ball","6","M_jaw.wav","None","732.0891697","413","259989.355872","266876.794028","253033.991502","253783.78553","254551.039233","255318.177857","256085.419242","256853.112232","260756.356881","261505.99827","262273.273308","263040.497565","263807.760884","264574.884485","265342.170639","266109.340211","266112.150802","Mapping"
"Blocked","Male","ball","6","M_ball.wav","None","729.682710331","413","259989.355872","266876.794028","267644.089196","253783.78553","254551.039233","255318.177857","256085.419242","256853.112232","260756.356881","261505.99827","262273.273308","263040.497565","263807.760884","264574.884485","265342.170639","266109.340211","266880.318233","Mapping"
"Blocked","Male","ball","6","M_park.wav","space","565.099097812","413","259989.355872","266876.794028","267644.089196","268411.334787","254551.039233","255318.177857","256085.419242","256853.112232","260756.356881","261505.99827","262273.273308","263040.497565","263807.760884","264574.884485","265342.170639","266109.340211","267647.165101","Mapping"
"Blocked","Male","ball","6","M_ball.wav","None","726.32526533","413","259989.355872","266876.794028","267644.089196","268411.334787","269161.592139","255318.177857","256085.419242","256853.112232","260756.356881","261505.99827","262273.273308","263040.497565","263807.760884","264574.884485","265342.170639","266109.340211","268414.31304","Mapping"
"Blocked","Male","ball","6","M_dime.wav","space","656.629887209","413","259989.355872","266876.794028","267644.089196","268411.334787","269161.592139","269928.855758","256085.419242","256853.112232","260756.356881","261505.99827","262273.273308","263040.497565","263807.760884","264574.884485","265342.170639","266109.340211","269164.662936","Mapping"
"Blocked","Male","ball","6","M_ball.wav","None","739.865918538","413","259989.355872","266876.794028","267644.089196","268411.334787","269161.592139","269928.855758","270696.43457","256853.112232","260756.356881","261505.99827","262273.273308","263040.497565","263807.760884","264574.884485","265342.170639","266109.340211","269931.536546","Mapping"
"Blocked","Male","ball","6","M_gnash.wav","space","562.512957742","413","259989.355872","266876.794028","267644.089196","268411.334787","269161.592139","269928.855758","270696.43457","271463.267617","260756.356881","261505.99827","262273.273308","263040.497565","263807.760884","264574.884485","265342.170639","266109.340211","270699.710888","Mapping"
"Blocked","Male","ball","4","M_dime.wav","None","735.667459705","413","274599.474599","266876.794028","267644.089196","268411.334787","269161.592139","269928.855758","270696.43457","271463.267617","260756.356881","261505.99827","262273.273308","263040.497565","263807.760884","264574.884485","265342.170639","266109.340211","271466.042452","Mapping"
"Blocked","Male","ball","4","M_bluff.wav","None","726.410298168","413","274599.474599","266876.794028","267644.089196","268411.334787","269161.592139","269928.855758","270696.43457","271463.267617","275366.255364","261505.99827","262273.273308","263040.497565","263807.760884","264574.884485","265342.170639","266109.340211","274603.737359","Mapping"
"Blocked","Male","ball","4","M_ball.wav","None","726.052138652","413","274599.474599","266876.794028","267644.089196","268411.334787","269161.592139","269928.855758","270696.43457","271463.267617","275366.255364","276116.602256","262273.273308","263040.497565","263807.760884","264574.884485","265342.170639","266109.340211","275369.433429","Mapping"
"Blocked","Male","ball","4","M_reek.wav","space","453.203694811","413","274599.474599","266876.794028","267644.089196","268411.334787","269161.592139","269928.855758","270696.43457","271463.267617","275366.255364","276116.602256","276883.852054","263040.497565","263807.760884","264574.884485","265342.170639","266109.340211","276130.11797","Mapping"
"Blocked","Male","ball","4","M_depth.wav","None","739.398688633","413","274599.474599","266876.794028","267644.089196","268411.334787","269161.592139","269928.855758","270696.43457","271463.267617","275366.255364","276116.602256","276883.852054","277651.115973","263807.760884","264574.884485","265342.170639","266109.340211","276886.743771","Mapping"
"Blocked","Male","ball","4","M_jolt.wav","None","738.154144405","413","274599.474599","266876.794028","267644.089196","268411.334787","269161.592139","269928.855758","270696.43457","271463.267617","275366.255364","276116.602256","276883.852054","277651.115973","278418.228757","264574.884485","265342.170639","266109.340211","277653.941588","Mapping"
"Blocked","Male","ball","4","M_depth.wav","None","736.921318483","413","274599.474599","266876.794028","267644.089196","268411.334787","269161.592139","269928.855758","270696.43457","271463.267617","275366.255364","276116.602256","276883.852054","277651.115973","278418.228757","279185.625785","265342.170639","266109.340211","278420.902033","Mapping"
"Blocked","Male","ball","4","M_park.wav","None","735.522332989","413","274599.474599","266876.794028","267644.089196","268411.334787","269161.592139","269928.855758","270696.43457","271463.267617","275366.255364","276116.602256","276883.852054","277651.115973","278418.228757","279185.625785","279952.756897","266109.340211","279188.236263","Mapping"
"Blocked","Male","ball","4","M_ball.wav","None","733.898295919","413","274599.474599","266876.794028","267644.089196","268411.334787","269161.592139","269928.855758","270696.43457","271463.267617","275366.255364","276116.602256","276883.852054","277651.115973","278418.228757","279185.625785","279952.756897","280719.928873","279955.754079","Mapping"
"Blocked","Male","ball","4","M_gnash.wav","space","372.676395064","413","274599.474599","281488.026295","267644.089196","268411.334787","269161.592139","269928.855758","270696.43457","271463.267617","275366.255364","276116.602256","276883.852054","277651.115973","278418.228757","279185.625785","279952.756897","280719.928873","280722.611163","Mapping"
"Blocked","Male","ball","4","M_ball.wav","None","728.619349147","413","274599.474599","281488.026295","282255.332881","268411.334787","269161.592139","269928.855758","270696.43457","271463.267617","275366.255364","276116.602256","276883.852054","277651.115973","278418.228757","279185.625785","279952.756897","280719.928873","281491.46066","Mapping"
"Blocked","Male","ball","4","M_dime.wav","space","406.215389683","413","274599.474599","281488.026295","282255.332881","283005.446909","269161.592139","269928.855758","270696.43457","271463.267617","275366.255364","276116.602256","276883.852054","277651.115973","278418.228757","279185.625785","279952.756897","280719.928873","282259.101669","Mapping"
"Blocked","Male","ball","4","M_romp.wav","None","741.626669182","413","274599.474599","281488.026295","282255.332881","283005.446909","283772.64142","269928.855758","270696.43457","271463.267617","275366.255364","276116.602256","276883.852054","277651.115973","278418.228757","279185.625785","279952.756897","280719.928873","283008.615659","Mapping"
"Blocked","Male","ball","4","M_ball.wav","None","740.12672597","413","274599.474599","281488.026295","282255.332881","283005.446909","283772.64142","284539.429096","270696.43457","271463.267617","275366.255364","276116.602256","276883.852054","277651.115973","278418.228757","279185.625785","279952.756897","280719.928873","283776.052049","Mapping"
"Blocked","Male","ball","4","M_lash.wav","space","553.249486347","413","274599.474599","281488.026295","282255.332881","283005.446909","283772.64142","284539.429096","285306.674387","271463.267617","275366.255364","276116.602256","276883.852054","277651.115973","278418.228757","279185.625785","279952.756897","280719.928873","284542.046485","Mapping"
"Blocked","Male","ball","4","M_greet.wav","None","737.954933196","413","274599.474599","281488.026295","282255.332881","283005.446909","283772.64142","284539.429096","285306.674387","286073.858081","275366.255364","276116.602256","276883.852054","277651.115973","278418.228757","279185.625785","279952.756897","280719.928873","285309.003625","Mapping"
"Blocked","Male","tile","16","M_cling.wav","None","736.436661353","413","289210.265477","281488.026295","282255.332881","283005.446909","283772.64142","284539.429096","285306.674387","286073.858081","275366.255364","276116.602256","276883.852054","277651.115973","278418.228757","279185.625785","279952.756897","280719.928873","286076.348071","Mapping"
"Blocked","Male","tile","16","M_tile.wav","None","726.853490522","413","289210.265477","281488.026295","282255.332881","283005.446909","283772.64142","284539.429096","285306.674387","286073.858081","289977.021904","276116.602256","276883.852054","277651.115973","278418.228757","279185.625785","279952.756897","280719.928873","289213.880424","Mapping"
"Blocked","Male","tile","16","M_park.wav","space","513.063507811","413","289210.265477","281488.026295","282255.332881","283005.446909","283772.64142","284539.429096","285306.674387","286073.858081","289977.021904","290727.583631","276883.852054","277651.115973","278418.228757","279185.625785","279952.756897","280719.928873","289980.150691","Mapping"
"Blocked","Male","tile","16","M_knife.wav","None","740.445223528","413","289210.265477","281488.026295","282255.332881","283005.446909","283772.64142","284539.429096","285306.674387","286073.858081","289977.021904","290727.583631","291494.380321","277651.115973","278418.228757","279185.625785","279952.756897","280719.928873","290731.131273","Mapping"
"Blocked","Male","tile","16","M_jaw.wav","None","739.585881063","413","289210.265477","281488.026295","282255.332881","283005.446909","283772.64142","284539.429096","285306.674387","286073.858081","289977.021904","290727.583631","291494.380321","292261.654757","278418.228757","279185.625785","279952.756897","280719.928873","291497.598949","Mapping"
"Blocked","Male","tile","16","M_tile.wav","None","738.725937659","413","289210.265477","281488.026295","282255.332881","283005.446909","283772.64142","284539.429096","285306.674387","286073.858081","289977.021904","290727.583631","291494.380321","292261.654757","293028.926789","279185.625785","279952.756897","280719.928873","292264.408559","Mapping"
"Blocked","Male","tile","16","M_depth.wav","space","532.52731417","413","289210.265477","281488.026295","282255.332881","283005.446909","283772.64142","284539.429096","285306.674387","286073.858081","289977.021904","290727.583631","291494.380321","292261.654757","293028.926789","293796.120099","279952.756897","280719.928873","293031.754507","Mapping"
"Blocked","Male","tile","16","M_gnash.wav","None","734.970070245","413","289210.265477","281488.026295","282255.332881","283005.446909","283772.64142","284539.429096","285306.674387","286073.858081","289977.021904","290727.583631","291494.380321","292261.654757","293028.926789","293796.120099","294563.287267","280719.928873","293799.307779","Mapping"
"Blocked","Male","tile","16","M_tile.wav","None","734.299723028","413","289210.265477","281488.026295","282255.332881","283005.446909","283772.64142","284539.429096","285306.674387","286073.858081","289977.021904","290727.583631","291494.380321","292261.654757","293028.926789","293796.120099","294563.287267","295330.605272","294566.059999","Mapping"
"Blocked","Male","tile","16","M_lash.wav","space","640.612765261","413","289210.265477","296098.109867","282255.332881","283005.446909","283772.64142","284539.429096","285306.674387","286073.858081","289977.021904","290727.583631","291494.380321","292261.654757","293028.926789","293796.120099","294563.287267","295330.605272","295333.659843","Mapping"
"Blocked","Male","tile","16","M_jaw.wav","None","730.381902607","413","289210.265477","296098.109867","296865.186895","283005.446909","283772.64142","284539.429096","285306.674387","286073.858081","289977.021904","290727.583631","291494.380321","292261.654757","293028.926789","293796.120099","294563.287267","295330.605272","296100.828214","Mapping"
"Blocked","Male","tile","16","M_depth.wav","None","729.019874849","413","289210.265477","296098.109867","296865.186895","297632.47365","283772.64142","284539.429096","285306.674387","286073.858081","289977.021904","290727.583631","291494.380321","292261.654757","293028.926789","293796.120099","294563.287267","295330.605272","296868.097842","Mapping"
"Blocked","Male","tile","16","M_gnash.wav","None","727.406654676","413","289210.265477","296098.109867","296865.186895","297632.47365","298399.504105","284539.429096","285306.674387","286073.858081","289977.021904","290727.583631","291494.380321","292261.654757","293028.926789","293796.120099","294563.287267","295330.605272","297635.319396","Mapping"
"Blocked","Male","tile","16","M_tile.wav","None","726.040720814","413","289210.265477","296098.109867","296865.186895","297632.47365","298399.504105","299150.041194","285306.674387","286073.858081","289977.021904","290727.583631","291494.380321","292261.654757","293028.926789","293796.120099","294563.287267","295330.605272","298402.702902","Mapping"
"Blocked","Male","tile","16","M_park.wav","space","537.22755689","413","289210.265477","296098.109867","296865.186895","297632.47365","298399.504105","299150.041194","299917.098391","286073.858081","289977.021904","290727.583631","291494.380321","292261.654757","293028.926789","293796.120099","294563.287267","295330.605272","299153.094264","Mapping"
"Blocked","Male","tile","16","M_park.wav","None","740.088566357","413","289210.265477","296098.109867","296865.186895","297632.47365","298399.504105","299150.041194","299917.098391","300684.440433","289977.021904","290727.583631","291494.380321","292261.654757","293028.926789","293796.120099","294563.287267","295330.605272","299919.698052","Mapping"
"Blocked","Male","tile","14","M_park.wav","None","738.271627937","413","303820.928054","296098.109867","296865.186895","297632.47365","298399.504105","299150.041194","299917.098391","300684.440433","289977.021904","290727.583631","291494.380321","292261.654757","293028.926789","293796.120099","294563.287267","295330.605272","300687.501615","Mapping"
"Blocked","Male","tile","14","M_romp.wav","None","726.898861401","413","303820.928054","296098.109867","296865.186895","297632.47365","298399.504105","299150.041194","299917.098391","300684.440433","304587.99156","290727.583631","291494.380321","292261.654757","293028.926789","293796.120099","294563.287267","295330.605272","303824.514156","Mapping"
"Blocked","Male","tile","14","M_jolt.wav","None","725.704796032","413","303820.928054","296098.109867","296865.186895","297632.47365","298399.504105","299150.041194","299917.098391","300684.440433","304587.99156","305354.654541","291494.380321","292261.654757","293028.926789","293796.120099","294563.287267","295330.605272","304591.789494","Mapping"
"Blocked","Male","tile","14","M_bluff.wav","None","726.251650329","413","303820.928054","296098.109867","296865.186895","297632.47365","298399.504105","299150.041194","299917.098391","300684.440433","304587.99156","305354.654541","306104.987612","292261.654757","293028.926789","293796.120099","294563.287267","295330.605272","305357.497583","Mapping"
"Blocked","Male","tile","14","M_gnash.wav","None","741.671739592","413","303820.928054","296098.109867","296865.186895","297632.47365","298399.504105","299150.041194","299917.098391","300684.440433","304587.99156","305354.654541","306104.987612","306872.125635","293028.926789","293796.120099","294563.287267","295330.605272","306107.970071","Mapping"
"Blocked","Male","tile","14","M_greet.wav","None","740.876998047","413","303820.928054","296098.109867","296865.186895","297632.47365","298399.504105","299150.041194","299917.098391","300684.440433","304587.99156","305354.654541","306104.987612","306872.125635","307639.538587","293796.120099","294563.287267","295330.605272","306875.111099","Mapping"
"Blocked","Male","tile","14","M_tile.wav","None","739.350913997","413","303820.928054","296098.109867","296865.186895","297632.47365","298399.504105","299150.041194","299917.098391","300684.440433","304587.99156","305354.654541","306104.987612","306872.125635","307639.538587","308406.740009","294563.287267","295330.605272","307642.618098","Mapping"
"Blocked","Male","tile","14","M_bluff.wav","space","553.674650539","413","303820.928054","296098.109867","296865.186895","297632.47365","298399.504105","299150.041194","299917.098391","300684.440433","304587.99156","305354.654541","306104.987612","306872.125635","307639.538587","308406.740009","309173.853394","295330.605272","308409.60198","Mapping"
"Blocked","Male","tile","14","M_tile.wav","None","736.574576804","413","303820.928054","296098.109867","296865.186895","297632.47365","298399.504105","299150.041194","299917.098391","300684.440433","304587.99156","305354.654541","306104.987612","306872.125635","307639.538587","308406.740009","309173.853394","309941.167792","309176.456961","Mapping"
"Blocked","Male","tile","14","M_bluff.wav","space","667.677245392","413","303820.928054","310708.80159","296865.186895","297632.47365","298399.504105","299150.041194","299917.098391","300684.440433","304587.99156","305354.654541","306104.987612","306872.125635","307639.538587","308406.740009","309173.853394","309941.167792","309943.641256","Mapping"
"Blocked","Male","tile","14","M_tile.wav","None","731.19827795","413","303820.928054","310708.80159","311475.53428","297632.47365","298399.504105","299150.041194","299917.098391","300684.440433","304587.99156","305354.654541","306104.987612","306872.125635","307639.538587","308406.740009","309173.853394","309941.167792","310712.66803","Mapping"
"Blocked","Male","tile","14","M_park.wav","space","464.913888476","413","303820.928054","310708.80159","311475.53428","312243.266631","298399.504105","299150.041194","299917.098391","300684.440433","304587.99156","305354.654541","306104.987612","306872.125635","307639.538587","308406.740009","309173.853394","309941.167792","311478.3638","Mapping"
"Blocked","Male","tile","14","M_bluff.wav","None","731.246953992","413","303820.928054","310708.80159","311475.53428","312243.266631","313010.038382","299150.041194","299917.098391","300684.440433","304587.99156","305354.654541","306104.987612","306872.125635","307639.538587","308406.740009","309173.853394","309941.167792","312246.764696","Mapping"
"Blocked","Male","tile","14","M_tile.wav","None","731.467198057","413","303820.928054","310708.80159","311475.53428","312243.266631","313010.038382","313777.561907","299917.098391","300684.440433","304587.99156","305354.654541","306104.987612","306872.125635","307639.538587","308406.740009","309173.853394","309941.167792","313012.819827","Mapping"
"Blocked","Male","tile","14","M_bluff.wav","space","468.79054459","413","303820.928054","310708.80159","311475.53428","312243.266631","313010.038382","313777.561907","314544.703235","300684.440433","304587.99156","305354.654541","306104.987612","306872.125635","307639.538587","308406.740009","309173.853394","309941.167792","313780.493587","Mapping"
"Blocked","Male","tile","14","M_knife.wav","None","727.418372982","413","303820.928054","310708.80159","311475.53428","312243.266631","313010.038382","313777.561907","314544.703235","315311.989089","304587.99156","305354.654541","306104.987612","306872.125635","307639.538587","308406.740009","309173.853394","309941.167792","314547.817","Mapping"
"Blocked","Male","cave","7","M_cling.wav","None","726.845077379","413","318431.633598","310708.80159","311475.53428","312243.266631","313010.038382","313777.561907","314544.703235","315311.989089","304587.99156","305354.654541","306104.987612","306872.125635","307639.538587","308406.740009","309173.853394","309941.167792","315314.743492","Mapping"
"Blocked","Male","cave","7","M_jolt.wav","None","707.74784368","413","318431.633598","310708.80159","311475.53428","312243.266631","313010.038382","313777.561907","314544.703235","315311.989089","319198.102776","305354.654541","306104.987612","306872.125635","307639.538587","308406.740009","309173.853394","309941.167792","318453.663413","Mapping"
"Blocked","Male","cave","7","M_cave.wav","None","725.554861805","413","318431.633598","310708.80159","311475.53428","312243.266631","313010.038382","313777.561907","314544.703235","315311.989089","319198.102776","319948.39979","306104.987612","306872.125635","307639.538587","308406.740009","309173.853394","309941.167792","319201.681667","Mapping"
"Blocked","Male","cave","7","M_jaw.wav","space","552.246519512","413","318431.633598","310708.80159","311475.53428","312243.266631","313010.038382","313777.561907","314544.703235","315311.989089","319198.102776","319948.39979","320716.020968","306872.125635","307639.538587","308406.740009","309173.853394","309941.167792","319951.061048","Mapping"
"Blocked","Male","cave","7","M_cling.wav","None","739.227120608","413","318431.633598","310708.80159","311475.53428","312243.266631","313010.038382","313777.561907","314544.703235","315311.989089","319198.102776","319948.39979","320716.020968","321483.070353","307639.538587","308406.740009","309173.853394","309941.167792","320719.091465","Mapping"
"Blocked","Male","cave","7","M_cave.wav","None","737.6319286","413","318431.633598","310708.80159","311475.53428","312243.266631","313010.038382","313777.561907","314544.703235","315311.989089","319198.102776","319948.39979","320716.020968","321483.070353","322250.026592","308406.740009","309173.853394","309941.167792","321486.680192","Mapping"
"Blocked","Male","cave","7","M_romp.wav","space","582.732745095","413","318431.633598","310708.80159","311475.53428","312243.266631","313010.038382","313777.561907","314544.703235","315311.989089","319198.102776","319948.39979","320716.020968","321483.070353","322250.026592","323017.255056","309173.853394","309941.167792","322252.571567","Mapping"
"Blocked","Male","cave","7","M_priest.wav","None","736.149713082","413","318431.633598","310708.80159","311475.53428","312243.266631","313010.038382","313777.561907","314544.703235","315311.989089","319198.102776","319948.39979","320716.020968","321483.070353","322250.026592","323017.255056","323784.794506","309941.167792","323019.63237","Mapping"
"Blocked","Male","cave","7","M_romp.wav","None","733.286239763","413","318431.633598","310708.80159","311475.53428","312243.266631","313010.038382","313777.561907","314544.703235","315311.989089","319198.102776","319948.39979","320716.020968","321483.070353","322250.026592","323017.255056","323784.794506","324551.756153","323788.659444","Mapping"
"Blocked","Male","cave","7","M_jaw.wav","None","733.465019053","413","318431.633598","325319.313031","311475.53428","312243.266631","313010.038382","313777.561907","314544.703235","315311.989089","319198.102776","319948.39979","320716.020968","321483.070353","322250.026592","323017.255056","323784.794506","324551.756153","324554.589279","Mapping"
"Blocked","Male","cave","7","M_greet.wav","None","731.760456183","413","318431.633598","325319.313031","326086.491016","312243.266631","313010.038382","313777.561907","314544.703235","315311.989089","319198.102776","319948.39979","320716.020968","321483.070353","322250.026592","323017.255056","323784.794506","324551.756153","325322.088467","Mapping"
"Blocked","Male","cave","7","M_cave.wav","None","730.392419038","413","318431.633598","325319.313031","326086.491016","326853.54641","313010.038382","313777.561907","314544.703235","315311.989089","319198.102776","319948.39979","320716.020968","321483.070353","322250.026592","323017.255056","323784.794506","324551.756153","326089.267353","Mapping"
"Blocked","Male","cave","7","M_jaw.wav","space","581.814210158","413","318431.633598","325319.313031","326086.491016","326853.54641","327620.937428","313777.561907","314544.703235","315311.989089","319198.102776","319948.39979","320716.020968","321483.070353","322250.026592","323017.255056","323784.794506","324551.756153","326856.467574","Mapping"
"Blocked","Male","cave","7","M_romp.wav","None","726.970974056","413","318431.633598","325319.313031","326086.491016","326853.54641","327620.937428","328371.352827","314544.703235","315311.989089","319198.102776","319948.39979","320716.020968","321483.070353","322250.026592","323017.255056","323784.794506","324551.756153","327623.892545","Mapping"
"Blocked","Male","cave","7","M_cave.wav","None","733.318389988","413","318431.633598","325319.313031","326086.491016","326853.54641","327620.937428","328371.352827","329138.841498","315311.989089","319198.102776","319948.39979","320716.020968","321483.070353","322250.026592","323017.255056","323784.794506","324551.756153","328383.303397","Mapping"
"Blocked","Male","cave","7","M_knife.wav","space","610.189638253","413","318431.633598","325319.313031","326086.491016","326853.54641","327620.937428","328371.352827","329138.841498","329905.63278","319198.102776","319948.39979","320716.020968","321483.070353","322250.026592","323017.255056","323784.794506","324551.756153","329142.095582","Mapping"
"Blocked","Male","done","20","M_cling.wav","None","738.976228666","413","333042.007424","325319.313031","326086.491016","326853.54641","327620.937428","328371.352827","329138.841498","329905.63278","319198.102776","319948.39979","320716.020968","321483.070353","322250.026592","323017.255056","323784.794506","324551.756153","329908.28292","Mapping"
"Blocked","Male","done","20","M_park.wav","None","726.596889661","413","333042.007424","325319.313031","326086.491016","326853.54641","327620.937428","328371.352827","329138.841498","329905.63278","333808.657485","319948.39979","320716.020968","321483.070353","322250.026592","323017.255056","323784.794506","324551.756153","333046.320963","Mapping"
"Blocked","Male","done","20","M_park.wav","None","727.394034961","413","333042.007424","325319.313031","326086.491016","326853.54641","327620.937428","328371.352827","329138.841498","329905.63278","333808.657485","334575.850193","320716.020968","321483.070353","322250.026592","323017.255056","323784.794506","324551.756153","333811.719568","Mapping"
"Blocked","Male","done","20","M_done.wav","None","726.094805304","413","333042.007424","325319.313031","326086.491016","326853.54641","327620.937428","328371.352827","329138.841498","329905.63278","333808.657485","334575.850193","335326.225329","321483.070353","322250.026592","323017.255056","323784.794506","324551.756153","334579.12591","Mapping"
"Blocked","Male","done","20","M_cad.wav","space","605.281170243","413","333042.007424","325319.313031","326086.491016","326853.54641","327620.937428","328371.352827","329138.841498","329905.63278","333808.657485","334575.850193","335326.225329","336093.883765","322250.026592","323017.255056","323784.794506","324551.756153","335328.932258","Mapping"
"Blocked","Male","done","20","M_depth.wav","None","738.481055103","413","333042.007424","325319.313031","326086.491016","326853.54641","327620.937428","328371.352827","329138.841498","329905.63278","333808.657485","334575.850193","335326.225329","336093.883765","336861.086389","323017.255056","323784.794506","324551.756153","336097.116215","Mapping"
"Blocked","Male","done","20","M_done.wav","None","736.98261424","413","333042.007424","325319.313031","326086.491016","326853.54641","327620.937428","328371.352827","329138.841498","329905.63278","333808.657485","334575.850193","335326.225329","336093.883765","336861.086389","337627.852732","323784.794506","324551.756153","336864.639139","Mapping"
"Blocked","Male","done","20","M_lash.wav","space","620.275193909","413","333042.007424","325319.313031","326086.491016","326853.54641","327620.937428","328371.352827","329138.841498","329905.63278","333808.657485","334575.850193","335326.225329","336093.883765","336861.086389","337627.852732","338395.014792","324551.756153","337630.982421","Mapping"
"Blocked","Male","done","20","M_priest.wav","None","734.619422461","413","333042.007424","325319.313031","326086.491016","326853.54641","327620.937428","328371.352827","329138.841498","329905.63278","333808.657485","334575.850193","335326.225329","336093.883765","336861.086389","337627.852732","338395.014792","339162.386881","338397.80435","Mapping"
"Blocked","Male","done","20","M_done.wav","None","732.496005259","413","333042.007424","339929.562763","326086.491016","326853.54641","327620.937428","328371.352827","329138.841498","329905.63278","333808.657485","334575.850193","335326.225329","336093.883765","336861.086389","337627.852732","338395.014792","339162.386881","339165.805021","Mapping"
"Blocked","Male","done","20","M_park.wav","space","675.008097651","413","333042.007424","339929.562763","340697.786983","326853.54641","327620.937428","328371.352827","329138.841498","329905.63278","333808.657485","334575.850193","335326.225329","336093.883765","336861.086389","337627.852732","338395.014792","339162.386881","339932.269992","Mapping"
"Blocked","Male","done","20","M_depth.wav","None","727.570710964","413","333042.007424","339929.562763","340697.786983","341463.955091","327620.937428","328371.352827","329138.841498","329905.63278","333808.657485","334575.850193","335326.225329","336093.883765","336861.086389","337627.852732","338395.014792","339162.386881","340701.335827","Mapping"
"Blocked","Male","done","20","M_romp.wav","None","730.74787433","413","333042.007424","339929.562763","340697.786983","341463.955091","342231.357527","328371.352827","329138.841498","329905.63278","333808.657485","334575.850193","335326.225329","336093.883765","336861.086389","337627.852732","338395.014792","339162.386881","341467.186639","Mapping"
"Blocked","Male","done","20","M_done.wav","None","729.39095455","413","333042.007424","339929.562763","340697.786983","341463.955091","342231.357527","342998.716094","329138.841498","329905.63278","333808.657485","334575.850193","335326.225329","336093.883765","336861.086389","337627.852732","338395.014792","339162.386881","342234.848981","Mapping"
"Blocked","Male","done","20","M_depth.wav","space","529.637399546","413","333042.007424","339929.562763","340697.786983","341463.955091","342231.357527","342998.716094","343765.85592","329905.63278","333808.657485","334575.850193","335326.225329","336093.883765","336861.086389","337627.852732","338395.014792","339162.386881","343001.636056","Mapping"
"Blocked","Male","done","20","M_cling.wav","None","726.282298207","413","333042.007424","339929.562763","340697.786983","341463.955091","342231.357527","342998.716094","343765.85592","344516.223845","333808.657485","334575.850193","335326.225329","336093.883765","336861.086389","337627.852732","338395.014792","339162.386881","343769.118717","Mapping"
"Blocked","Male","done","21","M_jaw.wav","None","742.233917827","413","347652.634846","339929.562763","340697.786983","341463.955091","342231.357527","342998.716094","343765.85592","344516.223845","333808.657485","334575.850193","335326.225329","336093.883765","336861.086389","337627.852732","338395.014792","339162.386881","344519.287731","Mapping"
"Blocked","Male","done","21","M_done.wav","None","726.606504682","413","347652.634846","339929.562763","340697.786983","341463.955091","342231.357527","342998.716094","343765.85592","344516.223845","348419.351611","334575.850193","335326.225329","336093.883765","336861.086389","337627.852732","338395.014792","339162.386881","347656.008517","Mapping"
"Blocked","Male","done","21","M_depth.wav","space","631.918983838","413","347652.634846","339929.562763","340697.786983","341463.955091","342231.357527","342998.716094","343765.85592","344516.223845","348419.351611","349169.592738","335326.225329","336093.883765","336861.086389","337627.852732","338395.014792","339162.386881","348422.384549","Mapping"
"Blocked","Male","done","21","M_cling.wav","None","741.354744381","413","347652.634846","339929.562763","340697.786983","341463.955091","342231.357527","342998.716094","343765.85592","344516.223845","348419.351611","349169.592738","349937.257784","336093.883765","336861.086389","337627.852732","338395.014792","339162.386881","349172.303272","Mapping"
"Blocked","Male","done","21","M_lash.wav","None","739.891758905","413","347652.634846","339929.562763","340697.786983","341463.955091","342231.357527","342998.716094","343765.85592","344516.223845","348419.351611","349169.592738","349937.257784","350704.357948","336861.086389","337627.852732","338395.014792","339162.386881","349940.122459","Mapping"
"Blocked","Male","done","21","M_lash.wav","None","738.766200559","413","347652.634846","339929.562763","340697.786983","341463.955091","342231.357527","342998.716094","343765.85592","344516.223845","348419.351611","349169.592738","349937.257784","350704.357948","351471.115577","337627.852732","338395.014792","339162.386881","350707.525196","Mapping"
"Blocked","Male","done","21","M_depth.wav","None","738.913731031","413","347652.634846","339929.562763","340697.786983","341463.955091","342231.357527","342998.716094","343765.85592","344516.223845","348419.351611","349169.592738","349937.257784","350704.357948","351471.115577","352238.451309","338395.014792","339162.386881","351473.841736","Mapping"
"Blocked","Male","done","21","M_park.wav","None","737.557111721","413","347652.634846","339929.562763","340697.786983","341463.955091","342231.357527","342998.716094","343765.85592","344516.223845","348419.351611","349169.592738","349937.257784","350704.357948","351471.115577","352238.451309","353005.70321","339162.386881","352241.164547","Mapping"
"Blocked","Male","done","21","M_jaw.wav","None","736.156924348","413","347652.634846","339929.562763","340697.786983","341463.955091","342231.357527","342998.716094","343765.85592","344516.223845","348419.351611","349169.592738","349937.257784","350704.357948","351471.115577","352238.451309","353005.70321","353772.965627","353008.759584","Mapping"
"Blocked","Male","done","21","M_done.wav","None","735.36879313","413","347652.634846","354540.200101","340697.786983","341463.955091","342231.357527","342998.716094","343765.85592","344516.223845","348419.351611","349169.592738","349937.257784","350704.357948","351471.115577","352238.451309","353005.70321","353772.965627","353775.786133","Mapping"
"Blocked","Male","done","21","M_gnash.wav","space","541.388757518","413","347652.634846","354540.200101","355307.327307","341463.955091","342231.357527","342998.716094","343765.85592","344516.223845","348419.351611","349169.592738","349937.257784","350704.357948","351471.115577","352238.451309","353005.70321","353772.965627","354542.904325","Mapping"
"Blocked","Male","done","21","M_done.wav","None","732.514033423","413","347652.634846","354540.200101","355307.327307","356074.588522","342231.357527","342998.716094","343765.85592","344516.223845","348419.351611","349169.592738","349937.257784","350704.357948","351471.115577","352238.451309","353005.70321","353772.965627","355310.012902","Mapping"
"Blocked","Male","done","21","M_gnash.wav","space","706.764106888","413","347652.634846","354540.200101","355307.327307","356074.588522","356842.930226","342998.716094","343765.85592","344516.223845","348419.351611","349169.592738","349937.257784","350704.357948","351471.115577","352238.451309","353005.70321","353772.965627","356077.521404","Mapping"
"Blocked","Male","done","21","M_greet.wav","None","726.86520883","413","347652.634846","354540.200101","355307.327307","356074.588522","356842.930226","357609.81285","343765.85592","344516.223845","348419.351611","349169.592738","349937.257784","350704.357948","351471.115577","352238.451309","353005.70321","353772.965627","356846.801473","Mapping"
"Blocked","Male","done","21","M_done.wav","None","726.610711254","413","347652.634846","354540.200101","355307.327307","356074.588522","356842.930226","357609.81285","358377.037408","344516.223845","348419.351611","349169.592738","349937.257784","350704.357948","351471.115577","352238.451309","353005.70321","353772.965627","357613.422088","Mapping"
"Blocked","Male","done","21","M_dime.wav","None","725.029641306","413","347652.634846","354540.200101","355307.327307","356074.588522","356842.930226","357609.81285","358377.037408","359126.726272","348419.351611","349169.592738","349937.257784","350704.357948","351471.115577","352238.451309","353005.70321","353772.965627","358381.187792","Mapping"
"Blocked","Male","cave","10","M_priest.wav","space","305.029917738","413","362263.164315","354540.200101","355307.327307","356074.588522","356842.930226","357609.81285","358377.037408","359126.726272","348419.351611","349169.592738","349937.257784","350704.357948","351471.115577","352238.451309","353005.70321","353772.965627","359129.220168","Mapping"
"Blocked","Male","cave","10","M_jolt.wav","None","727.703818906","413","362263.164315","354540.200101","355307.327307","356074.588522","356842.930226","357609.81285","358377.037408","359126.726272","363029.863353","349169.592738","349937.257784","350704.357948","351471.115577","352238.451309","353005.70321","353772.965627","362266.599882","Mapping"
"Blocked","Male","cave","10","M_cave.wav","None","728.287630938","413","362263.164315","354540.200101","355307.327307","356074.588522","356842.930226","357609.81285","358377.037408","359126.726272","363029.863353","363797.027216","349937.257784","350704.357948","351471.115577","352238.451309","353005.70321","353772.965627","363032.47954","Mapping"
"Blocked","Male","cave","10","M_priest.wav","space","601.326091621","413","362263.164315","354540.200101","355307.327307","356074.588522","356842.930226","357609.81285","358377.037408","359126.726272","363029.863353","363797.027216","364547.693206","350704.357948","351471.115577","352238.451309","353005.70321","353772.965627","363799.952886","Mapping"
"Blocked","Male","cave","10","M_cave.wav","None","740.825617781","413","362263.164315","354540.200101","355307.327307","356074.588522","356842.930226","357609.81285","358377.037408","359126.726272","363029.863353","363797.027216","364547.693206","365315.036149","351471.115577","352238.451309","353005.70321","353772.965627","364550.861656","Mapping"
"Blocked","Male","cave","10","M_depth.wav","None","740.340359709","413","362263.164315","354540.200101","355307.327307","356074.588522","356842.930226","357609.81285","358377.037408","359126.726272","363029.863353","363797.027216","364547.693206","365315.036149","366082.293759","352238.451309","353005.70321","353772.965627","365318.074496","Mapping"
"Blocked","Male","cave","10","M_gnash.wav","space","25.8553912936","413","362263.164315","354540.200101","355307.327307","356074.588522","356842.930226","357609.81285","358377.037408","359126.726272","363029.863353","363797.027216","364547.693206","365315.036149","366082.293759","366849.542355","353005.70321","353772.965627","366085.421646","Mapping"
"Blocked","Male","cave","10","M_gnash.wav","None","736.920417075","413","362263.164315","354540.200101","355307.327307","356074.588522","356842.930226","357609.81285","358377.037408","359126.726272","363029.863353","363797.027216","364547.693206","365315.036149","366082.293759","366849.542355","367616.198125","353772.965627","366852.702091","Mapping"
"Blocked","Male","cave","10","M_depth.wav","None","737.021074323","413","362263.164315","354540.200101","355307.327307","356074.588522","356842.930226","357609.81285","358377.037408","359126.726272","363029.863353","363797.027216","364547.693206","365315.036149","366082.293759","366849.542355","367616.198125","368383.505913","367618.897241","Mapping"
"Blocked","Male","cave","10","M_reek.wav","None","735.869375138","413","362263.164315","369150.773138","355307.327307","356074.588522","356842.930226","357609.81285","358377.037408","359126.726272","363029.863353","363797.027216","364547.693206","365315.036149","366082.293759","366849.542355","367616.198125","368383.505913","368386.474851","Mapping"
"Blocked","Male","cave","10","M_cave.wav","None","735.245600677","413","362263.164315","369150.773138","369918.00671","356074.588522","356842.930226","357609.81285","358377.037408","359126.726272","363029.863353","363797.027216","364547.693206","365315.036149","366082.293759","366849.542355","367616.198125","368383.505913","369153.528442","Mapping"
"Blocked","Male","cave","10","M_gnash.wav","space","524.563072433","413","362263.164315","369150.773138","369918.00671","370685.178987","356842.930226","357609.81285","358377.037408","359126.726272","363029.863353","363797.027216","364547.693206","365315.036149","366082.293759","366849.542355","367616.198125","368383.505913","369920.731667","Mapping"
"Blocked","Male","cave","10","M_cave.wav","None","731.837676818","413","362263.164315","369150.773138","369918.00671","370685.178987","371452.365686","357609.81285","358377.037408","359126.726272","363029.863353","363797.027216","364547.693206","365315.036149","366082.293759","366849.542355","367616.198125","368383.505913","370688.213127","Mapping"
"Blocked","Male","cave","10","M_lash.wav","space","677.957805685","413","362263.164315","369150.773138","369918.00671","370685.178987","371452.365686","372220.347727","358377.037408","359126.726272","363029.863353","363797.027216","364547.693206","365315.036149","366082.293759","366849.542355","367616.198125","368383.505913","371455.314492","Mapping"
"Blocked","Male","cave","10","M_depth.wav","None","727.617283719","413","362263.164315","369150.773138","369918.00671","370685.178987","371452.365686","372220.347727","372987.135102","359126.726272","363029.863353","363797.027216","364547.693206","365315.036149","366082.293759","366849.542355","367616.198125","368383.505913","372223.840383","Mapping"
"Blocked","Male","cave","10","M_dime.wav","None","727.788851744","413","362263.164315","369150.773138","369918.00671","370685.178987","371452.365686","372220.347727","372987.135102","373754.201013","363029.863353","363797.027216","364547.693206","365315.036149","366082.293759","366849.542355","367616.198125","368383.505913","372990.279214","Mapping"
"Blocked","Male","cave","11","M_priest.wav","None","727.337546714","413","376873.775813","369150.773138","369918.00671","370685.178987","371452.365686","372220.347727","372987.135102","373754.201013","363029.863353","363797.027216","364547.693206","365315.036149","366082.293759","366849.542355","367616.198125","368383.505913","373757.285031","Mapping"
"Blocked","Male","cave","11","M_cave.wav","None","727.641321273","413","376873.775813","369150.773138","369918.00671","370685.178987","371452.365686","372220.347727","372987.135102","373754.201013","377640.479056","363797.027216","364547.693206","365315.036149","366082.293759","366849.542355","367616.198125","368383.505913","376877.337577","Mapping"
"Blocked","Male","cave","11","M_jolt.wav","space","572.494851456","413","376873.775813","369150.773138","369918.00671","370685.178987","371452.365686","372220.347727","372987.135102","373754.201013","377640.479056","378390.741516","364547.693206","365315.036149","366082.293759","366849.542355","367616.198125","368383.505913","377643.770398","Mapping"
"Blocked","Male","cave","11","M_jaw.wav","None","742.51936375","413","376873.775813","369150.773138","369918.00671","370685.178987","371452.365686","372220.347727","372987.135102","373754.201013","377640.479056","378390.741516","379157.976291","365315.036149","366082.293759","366849.542355","367616.198125","368383.505913","378393.931299","Mapping"
"Blocked","Male","cave","11","M_bluff.wav","None","742.224603275","413","376873.775813","369150.773138","369918.00671","370685.178987","371452.365686","372220.347727","372987.135102","373754.201013","377640.479056","378390.741516","379157.976291","379925.199346","366082.293759","366849.542355","367616.198125","368383.505913","379160.762844","Mapping"
"Blocked","Male","cave","11","M_priest.wav","None","741.258894644","413","376873.775813","369150.773138","369918.00671","370685.178987","371452.365686","372220.347727","372987.135102","373754.201013","377640.479056","378390.741516","379157.976291","379925.199346","380692.474083","366849.542355","367616.198125","368383.505913","379928.167083","Mapping"
"Blocked","Male","cave","11","M_dime.wav","None","740.024566378","413","376873.775813","369150.773138","369918.00671","370685.178987","371452.365686","372220.347727","372987.135102","373754.201013","377640.479056","378390.741516","379157.976291","379925.199346","380692.474083","381459.692331","367616.198125","368383.505913","380695.425894","Mapping"
"Blocked","Male","cave","11","M_cad.wav","None","739.286012607","413","376873.775813","369150.773138","369918.00671","370685.178987","371452.365686","372220.347727","372987.135102","373754.201013","377640.479056","378390.741516","379157.976291","379925.199346","380692.474083","381459.692331","382226.818035","368383.505913","381462.369514","Mapping"
"Blocked","Male","cave","11","M_cave.wav","None","738.52762786","413","376873.775813","369150.773138","369918.00671","370685.178987","371452.365686","372220.347727","372987.135102","373754.201013","377640.479056","378390.741516","379157.976291","379925.199346","380692.474083","381459.692331","382226.818035","382994.037786","382229.652964","Mapping"
"Blocked","Male","cave","11","M_bluff.wav","space","569.5718852","413","376873.775813","383761.617499","369918.00671","370685.178987","371452.365686","372220.347727","372987.135102","373754.201013","377640.479056","378390.741516","379157.976291","379925.199346","380692.474083","381459.692331","382226.818035","382994.037786","382996.640452","Mapping"
"Blocked","Male","cave","11","M_jaw.wav","None","734.216793475","413","376873.775813","383761.617499","384528.949024","370685.178987","371452.365686","372220.347727","372987.135102","373754.201013","377640.479056","378390.741516","379157.976291","379925.199346","380692.474083","381459.692331","382226.818035","382994.037786","383765.224634","Mapping"
"Blocked","Male","cave","11","M_cave.wav","None","733.440981501","413","376873.775813","383761.617499","384528.949024","385295.723179","371452.365686","372220.347727","372987.135102","373754.201013","377640.479056","378390.741516","379157.976291","379925.199346","380692.474083","381459.692331","382226.818035","382994.037786","384532.123483","Mapping"
"Blocked","Male","cave","11","M_depth.wav","None","733.764887507","413","376873.775813","383761.617499","384528.949024","385295.723179","386063.027962","372220.347727","372987.135102","373754.201013","377640.479056","378390.741516","379157.976291","379925.199346","380692.474083","381459.692331","382226.818035","382994.037786","385298.315929","Mapping"
"Blocked","Male","cave","11","M_cave.wav","space","0.0315492852824","413","376873.775813","383761.617499","384528.949024","385295.723179","386063.027962","386830.46345","372987.135102","373754.201013","377640.479056","378390.741516","379157.976291","379925.199346","380692.474083","381459.692331","382226.818035","382994.037786","386065.611699","Mapping"
"Blocked","Male","cave","11","M_gnash.wav","None","730.463029346","413","376873.775813","383761.617499","384528.949024","385295.723179","386063.027962","386830.46345","387597.706637","373754.201013","377640.479056","378390.741516","379157.976291","379925.199346","380692.474083","381459.692331","382226.818035","382994.037786","386833.43389","Mapping"
"Blocked","Male","cave","11","M_priest.wav","space","129.493594894","413","376873.775813","383761.617499","384528.949024","385295.723179","386063.027962","386830.46345","387597.706637","388365.377393","377640.479056","378390.741516","379157.976291","379925.199346","380692.474083","381459.692331","382226.818035","382994.037786","387600.767819","Mapping"
"Blocked","Male","tile","18","M_priest.wav","None","726.000157447","413","391484.338934","383761.617499","384528.949024","385295.723179","386063.027962","386830.46345","387597.706637","388365.377393","377640.479056","378390.741516","379157.976291","379925.199346","380692.474083","381459.692331","382226.818035","382994.037786","388368.893485","Mapping"
"Blocked","Male","tile","18","M_greet.wav","None","727.286466919","413","391484.338934","383761.617499","384528.949024","385295.723179","386063.027962","386830.46345","387597.706637","388365.377393","392251.010629","378390.741516","379157.976291","379925.199346","380692.474083","381459.692331","382226.818035","382994.037786","391488.127553","Mapping"
"Blocked","Male","tile","18","M_cling.wav","None","727.495894087","413","391484.338934","383761.617499","384528.949024","385295.723179","386063.027962","386830.46345","387597.706637","388365.377393","392251.010629","393018.306699","379157.976291","379925.199346","380692.474083","381459.692331","382226.818035","382994.037786","392254.257802","Mapping"
"Blocked","Male","tile","18","M_lash.wav","None","726.451162005","413","391484.338934","383761.617499","384528.949024","385295.723179","386063.027962","386830.46345","387597.706637","388365.377393","392251.010629","393018.306699","393785.451332","379925.199346","380692.474083","381459.692331","382226.818035","382994.037786","393021.419562","Mapping"
"Blocked","Male","tile","18","M_depth.wav","None","726.068363998","413","391484.338934","383761.617499","384528.949024","385295.723179","386063.027962","386830.46345","387597.706637","388365.377393","392251.010629","393018.306699","393785.451332","394535.792816","380692.474083","381459.692331","382226.818035","382994.037786","393788.459932","Mapping"
"Blocked","Male","tile","18","M_tile.wav","None","742.009767659","413","391484.338934","383761.617499","384528.949024","385295.723179","386063.027962","386830.46345","387597.706637","388365.377393","392251.010629","393018.306699","393785.451332","394535.792816","395303.006256","381459.692331","382226.818035","382994.037786","394538.937528","Mapping"
"Blocked","Male","tile","18","M_depth.wav","space","520.220087821","413","391484.338934","383761.617499","384528.949024","385295.723179","386063.027962","386830.46345","387597.706637","388365.377393","392251.010629","393018.306699","393785.451332","394535.792816","395303.006256","396070.267171","382226.818035","382994.037786","395306.041598","Mapping"
"Blocked","Male","tile","18","M_cling.wav","None","739.226820138","413","391484.338934","383761.617499","384528.949024","385295.723179","386063.027962","386830.46345","387597.706637","388365.377393","392251.010629","393018.306699","393785.451332","394535.792816","395303.006256","396070.267171","396837.474002","382994.037786","396073.375227","Mapping"
"Blocked","Male","tile","18","M_jolt.wav","None","738.574501085","413","391484.338934","383761.617499","384528.949024","385295.723179","386063.027962","386830.46345","387597.706637","388365.377393","392251.010629","393018.306699","393785.451332","394535.792816","395303.006256","396070.267171","396837.474002","397605.168194","396840.574245","Mapping"
"Blocked","Male","tile","18","M_tile.wav","None","736.798426502","413","391484.338934","398372.260545","384528.949024","385295.723179","386063.027962","386830.46345","387597.706637","388365.377393","392251.010629","393018.306699","393785.451332","394535.792816","395303.006256","396070.267171","396837.474002","397605.168194","397608.912643","Mapping"
"Blocked","Male","tile","18","M_dime.wav","space","541.317245801","413","391484.338934","398372.260545","399139.167808","385295.723179","386063.027962","386830.46345","387597.706637","388365.377393","392251.010629","393018.306699","393785.451332","394535.792816","395303.006256","396070.267171","396837.474002","397605.168194","398375.927474","Mapping"
"Blocked","Male","tile","18","M_cling.wav","None","734.651873156","413","391484.338934","398372.260545","399139.167808","399906.3497","386063.027962","386830.46345","387597.706637","388365.377393","392251.010629","393018.306699","393785.451332","394535.792816","395303.006256","396070.267171","396837.474002","397605.168194","399142.477178","Mapping"
"Blocked","Male","tile","18","M_tile.wav","None","734.174727761","413","391484.338934","398372.260545","399139.167808","399906.3497","400673.497638","386830.46345","387597.706637","388365.377393","392251.010629","393018.306699","393785.451332","394535.792816","395303.006256","396070.267171","396837.474002","397605.168194","399909.286487","Mapping"
"Blocked","Male","tile","18","M_knife.wav","space","586.713363617","413","391484.338934","398372.260545","399139.167808","399906.3497","400673.497638","401440.770271","387597.706637","388365.377393","392251.010629","393018.306699","393785.451332","394535.792816","395303.006256","396070.267171","396837.474002","397605.168194","400676.572041","Mapping"
