"Condition","Talker","Target","Trial","current_stimulus","response_response","response_time_response","subject_nr","time_Audio1","time_Audio10","time_Audio11","time_Audio12","time_Audio13","time_Audio14","time_Audio15","time_Audio16","time_Audio2","time_Audio3","time_Audio4","time_Audio5","time_Audio6","time_Audio7","time_Audio8","time_Audio9","time_response"
"Mixed","both","done","40","F_gnash.wav","NA","NA","304","47473.7156481","NA","NA","NA","NA","NA","NA","NA","NA","NA","NA","NA","NA","NA","NA","NA","NA"
"Mixed","both","done","40","M_romp.wav","None","713.877257425","304","47473.7156481","NA","NA","NA","NA","NA","NA","NA","48240.2521959","NA","NA","NA","NA","NA","NA","NA","47493.2916407"
"Mixed","both","done","40","F_romp.wav","None","722.026964184","304","47473.7156481","NA","NA","NA","NA","NA","NA","NA","48240.2521959","49006.5655229","NA","NA","NA","NA","NA","NA","48252.3060953"
"Mixed","both","done","40","M_park.wav","None","725.080012809","304","47473.7156481","NA","NA","NA","NA","NA","NA","NA","48240.2521959","49006.5655229","49772.973456","NA","NA","NA","NA","NA","49016.4617286"
"Mixed","both","done","40","M_lash.wav","None","726.714591961","304","47473.7156481","NA","NA","NA","NA","NA","NA","NA","48240.2521959","49006.5655229","49772.973456","50539.8491626","NA","NA","NA","NA","49781.9035072"
"Mixed","both","done","40","F_cad.wav","None","726.969965734","304","47473.7156481","NA","NA","NA","NA","NA","NA","NA","48240.2521959","49006.5655229","49772.973456","50539.8491626","51306.0926171","NA","NA","NA","50548.860216"
"Mixed","both","done","40","F_done.wav","None","730.717409402","304","47473.7156481","NA","NA","NA","NA","NA","NA","NA","48240.2521959","49006.5655229","49772.973456","50539.8491626","51306.0926171","52073.3764274","NA","NA","51315.2363044"
"Mixed","both","done","40","M_jolt.wav","space","485.202221666","304","47473.7156481","NA","NA","NA","NA","NA","NA","NA","48240.2521959","49006.5655229","49772.973456","50539.8491626","51306.0926171","52073.3764274","52840.0703422","NA","52083.095788"
"Mixed","both","done","40","F_depth.wav","None","731.055640616","304","47473.7156481","NA","NA","NA","NA","NA","NA","NA","48240.2521959","49006.5655229","49772.973456","50539.8491626","51306.0926171","52073.3764274","52840.0703422","53606.7268476","52849.6552142"
"Mixed","both","done","40","F_done.wav","None","731.899982784","304","47473.7156481","54373.4090137","NA","NA","NA","NA","NA","NA","48240.2521959","49006.5655229","49772.973456","50539.8491626","51306.0926171","52073.3764274","52840.0703422","53606.7268476","53616.3673699"
"Mixed","both","done","40","F_lash.wav","space","504.680825863","304","47473.7156481","54373.4090137","55140.1975346","NA","NA","NA","NA","NA","48240.2521959","49006.5655229","49772.973456","50539.8491626","51306.0926171","52073.3764274","52840.0703422","53606.7268476","54383.5426616"
"Mixed","both","done","40","M_park.wav","None","729.832875077","304","47473.7156481","54373.4090137","55140.1975346","55906.925458","NA","NA","NA","NA","48240.2521959","49006.5655229","49772.973456","50539.8491626","51306.0926171","52073.3764274","52840.0703422","53606.7268476","55149.8269271"
"Mixed","both","done","40","M_done.wav","None","727.410223335","304","47473.7156481","54373.4090137","55140.1975346","55906.925458","56673.0090724","NA","NA","NA","48240.2521959","49006.5655229","49772.973456","50539.8491626","51306.0926171","52073.3764274","52840.0703422","53606.7268476","55916.3826429"
"Mixed","both","done","40","F_greet.wav","space","506.393315736","304","47473.7156481","54373.4090137","55140.1975346","55906.925458","56673.0090724","57440.2406327","NA","NA","48240.2521959","49006.5655229","49772.973456","50539.8491626","51306.0926171","52073.3764274","52840.0703422","53606.7268476","56677.7696637"
"Mixed","both","done","40","M_done.wav","None","728.791901842","304","47473.7156481","54373.4090137","55140.1975346","55906.925458","56673.0090724","57440.2406327","58206.4370941","NA","48240.2521959","49006.5655229","49772.973456","50539.8491626","51306.0926171","52073.3764274","52840.0703422","53606.7268476","57450.3393443"
"Mixed","both","done","40","M_cling.wav","space","552.897350863","304","47473.7156481","54373.4090137","55140.1975346","55906.925458","56673.0090724","57440.2406327","58206.4370941","58973.0824693","48240.2521959","49006.5655229","49772.973456","50539.8491626","51306.0926171","52073.3764274","52840.0703422","53606.7268476","58215.1986477"
"Mixed","both","ball","8","F_depth.wav","None","728.918661363","304","62140.4031324","54373.4090137","55140.1975346","55906.925458","56673.0090724","57440.2406327","58206.4370941","58973.0824693","48240.2521959","49006.5655229","49772.973456","50539.8491626","51306.0926171","52073.3764274","52840.0703422","53606.7268476","58981.6483185"
"Mixed","both","ball","8","F_ball.wav","None","719.987373799","304","62140.4031324","54373.4090137","55140.1975346","55906.925458","56673.0090724","57440.2406327","58206.4370941","58973.0824693","62907.2374101","49006.5655229","49772.973456","50539.8491626","51306.0926171","52073.3764274","52840.0703422","53606.7268476","62150.8014291"
"Mixed","both","ball","8","F_priest.wav","space","538.455735426","304","62140.4031324","54373.4090137","55140.1975346","55906.925458","56673.0090724","57440.2406327","58206.4370941","58973.0824693","62907.2374101","63673.78787","49772.973456","50539.8491626","51306.0926171","52073.3764274","52840.0703422","53606.7268476","62917.5296617"
"Mixed","both","ball","8","F_ball.wav","None","721.299179364","304","62140.4031324","54373.4090137","55140.1975346","55906.925458","56673.0090724","57440.2406327","58206.4370941","58973.0824693","62907.2374101","63673.78787","64440.8135237","50539.8491626","51306.0926171","52073.3764274","52840.0703422","53606.7268476","63684.083832"
"Mixed","both","ball","8","M_reek.wav","space","501.481230836","304","62140.4031324","54373.4090137","55140.1975346","55906.925458","56673.0090724","57440.2406327","58206.4370941","58973.0824693","62907.2374101","63673.78787","64440.8135237","65206.3935008","51306.0926171","52073.3764274","52840.0703422","53606.7268476","64450.4682682"
"Mixed","both","ball","8","M_ball.wav","None","721.256823279","304","62140.4031324","54373.4090137","55140.1975346","55906.925458","56673.0090724","57440.2406327","58206.4370941","58973.0824693","62907.2374101","63673.78787","64440.8135237","65206.3935008","65973.1195695","52073.3764274","52840.0703422","53606.7268476","65216.1100791"
"Mixed","both","ball","8","M_gnash.wav","space","521.47676656","304","62140.4031324","54373.4090137","55140.1975346","55906.925458","56673.0090724","57440.2406327","58206.4370941","58973.0824693","62907.2374101","63673.78787","64440.8135237","65206.3935008","65973.1195695","66740.3681343","52840.0703422","53606.7268476","65982.3927986"
"Mixed","both","ball","8","M_greet.wav","None","721.13748407","304","62140.4031324","54373.4090137","55140.1975346","55906.925458","56673.0090724","57440.2406327","58206.4370941","58973.0824693","62907.2374101","63673.78787","64440.8135237","65206.3935008","65973.1195695","66740.3681343","67506.9702258","53606.7268476","66750.888553"
"Mixed","both","ball","8","M_ball.wav","None","722.39054786","304","62140.4031324","54373.4090137","55140.1975346","55906.925458","56673.0090724","57440.2406327","58206.4370941","58973.0824693","62907.2374101","63673.78787","64440.8135237","65206.3935008","65973.1195695","66740.3681343","67506.9702258","68273.1645228","67517.0398755"
"Mixed","both","ball","8","F_gnash.wav","space","445.400671568","304","62140.4031324","69022.9487224","55140.1975346","55906.925458","56673.0090724","57440.2406327","58206.4370941","58973.0824693","62907.2374101","63673.78787","64440.8135237","65206.3935008","65973.1195695","66740.3681343","67506.9702258","68273.1645228","68282.3709711"
"Mixed","both","ball","8","M_park.wav","None","735.037743114","304","62140.4031324","69022.9487224","69789.8519449","55906.925458","56673.0090724","57440.2406327","58206.4370941","58973.0824693","62907.2374101","63673.78787","64440.8135237","65206.3935008","65973.1195695","66740.3681343","67506.9702258","68273.1645228","69032.6801408"
"Mixed","both","ball","8","F_jolt.wav","None","732.113309205","304","62140.4031324","69022.9487224","69789.8519449","70556.3857099","56673.0090724","57440.2406327","58206.4370941","58973.0824693","62907.2374101","63673.78787","64440.8135237","65206.3935008","65973.1195695","66740.3681343","67506.9702258","68273.1645228","69799.9317972"
"Mixed","both","ball","8","M_reek.wav","None","733.503954019","304","62140.4031324","69022.9487224","69789.8519449","70556.3857099","71323.2063842","57440.2406327","58206.4370941","58973.0824693","62907.2374101","63673.78787","64440.8135237","65206.3935008","65973.1195695","66740.3681343","67506.9702258","68273.1645228","70566.0707527"
"Mixed","both","ball","8","F_knife.wav","None","731.248253491","304","62140.4031324","69022.9487224","69789.8519449","70556.3857099","71323.2063842","72089.7936355","58206.4370941","58973.0824693","62907.2374101","63673.78787","64440.8135237","65206.3935008","65973.1195695","66740.3681343","67506.9702258","68273.1645228","71332.6774817"
"Mixed","both","ball","8","F_reek.wav","None","731.965217274","304","62140.4031324","69022.9487224","69789.8519449","70556.3857099","71323.2063842","72089.7936355","72855.9415569","58973.0824693","62907.2374101","63673.78787","64440.8135237","65206.3935008","65973.1195695","66740.3681343","67506.9702258","68273.1645228","72099.3893286"
"Mixed","both","ball","8","M_depth.wav","None","733.872174285","304","62140.4031324","69022.9487224","69789.8519449","70556.3857099","71323.2063842","72089.7936355","72855.9415569","73622.7245126","62907.2374101","63673.78787","64440.8135237","65206.3935008","65973.1195695","66740.3681343","67506.9702258","68273.1645228","72864.9665234"
"Mixed","both","tile","35","F_knife.wav","None","734.62469317","304","76756.5976763","69022.9487224","69789.8519449","70556.3857099","71323.2063842","72089.7936355","72855.9415569","73622.7245126","62907.2374101","63673.78787","64440.8135237","65206.3935008","65973.1195695","66740.3681343","67506.9702258","68273.1645228","73631.763082"
"Mixed","both","tile","35","F_jaw.wav","None","720.567375422","304","76756.5976763","69022.9487224","69789.8519449","70556.3857099","71323.2063842","72089.7936355","72855.9415569","73622.7245126","77523.3540437","63673.78787","64440.8135237","65206.3935008","65973.1195695","66740.3681343","67506.9702258","68273.1645228","76766.6880405"
"Mixed","both","tile","35","M_greet.wav","None","721.14861384","304","76756.5976763","69022.9487224","69789.8519449","70556.3857099","71323.2063842","72089.7936355","72855.9415569","73622.7245126","77523.3540437","78289.5755474","64440.8135237","65206.3935008","65973.1195695","66740.3681343","67506.9702258","68273.1645228","77533.8123194"
"Mixed","both","tile","35","F_lash.wav","None","720.69042502","304","76756.5976763","69022.9487224","69789.8519449","70556.3857099","71323.2063842","72089.7936355","72855.9415569","73622.7245126","77523.3540437","78289.5755474","79039.1872306","65206.3935008","65973.1195695","66740.3681343","67506.9702258","68273.1645228","78298.6725499"
"Mixed","both","tile","35","F_depth.wav","None","735.414930154","304","76756.5976763","69022.9487224","69789.8519449","70556.3857099","71323.2063842","72089.7936355","72855.9415569","73622.7245126","77523.3540437","78289.5755474","79039.1872306","79806.270699","65973.1195695","66740.3681343","67506.9702258","68273.1645228","79048.5352785"
"Mixed","both","tile","35","M_tile.wav","None","732.400218956","304","76756.5976763","69022.9487224","69789.8519449","70556.3857099","71323.2063842","72089.7936355","72855.9415569","73622.7245126","77523.3540437","78289.5755474","79039.1872306","79806.270699","80572.9803815","66740.3681343","67506.9702258","68273.1645228","79815.9337905"
"Mixed","both","tile","35","M_reek.wav","space","664.409214165","304","76756.5976763","69022.9487224","69789.8519449","70556.3857099","71323.2063842","72089.7936355","72855.9415569","73622.7245126","77523.3540437","78289.5755474","79039.1872306","79806.270699","80572.9803815","81339.544754","67506.9702258","68273.1645228","80583.0110759"
"Mixed","both","tile","35","M_jaw.wav","None","730.760383885","304","76756.5976763","69022.9487224","69789.8519449","70556.3857099","71323.2063842","72089.7936355","72855.9415569","73622.7245126","77523.3540437","78289.5755474","79039.1872306","79806.270699","80572.9803815","81339.544754","82106.0748091","68273.1645228","81349.4557999"
"Mixed","both","tile","35","M_reek.wav","None","732.164631598","304","76756.5976763","69022.9487224","69789.8519449","70556.3857099","71323.2063842","72089.7936355","72855.9415569","73622.7245126","77523.3540437","78289.5755474","79039.1872306","79806.270699","80572.9803815","81339.544754","82106.0748091","82872.3995755","82115.690907"
"Mixed","both","tile","35","F_priest.wav","None","731.971400324","304","76756.5976763","83639.5343659","69789.8519449","70556.3857099","71323.2063842","72089.7936355","72855.9415569","73622.7245126","77523.3540437","78289.5755474","79039.1872306","79806.270699","80572.9803815","81339.544754","82106.0748091","82872.3995755","82881.5231668"
"Mixed","both","tile","35","F_tile.wav","None","729.83503947","304","76756.5976763","83639.5343659","84405.954666","70556.3857099","71323.2063842","72089.7936355","72855.9415569","73622.7245126","77523.3540437","78289.5755474","79039.1872306","79806.270699","80572.9803815","81339.544754","82106.0748091","82872.3995755","83649.2265197"
"Mixed","both","tile","35","M_reek.wav","space","631.558103021","304","76756.5976763","83639.5343659","84405.954666","85172.7552442","71323.2063842","72089.7936355","72855.9415569","73622.7245126","77523.3540437","78289.5755474","79039.1872306","79806.270699","80572.9803815","81339.544754","82106.0748091","82872.3995755","84415.7686322"
"Mixed","both","tile","35","M_tile.wav","None","730.90414796","304","76756.5976763","83639.5343659","84405.954666","85172.7552442","85939.372485","72089.7936355","72855.9415569","73622.7245126","77523.3540437","78289.5755474","79039.1872306","79806.270699","80572.9803815","81339.544754","82106.0748091","82872.3995755","85181.8602849"
"Mixed","both","tile","35","F_depth.wav","space","633.926340844","304","76756.5976763","83639.5343659","84405.954666","85172.7552442","85939.372485","86705.5457584","72855.9415569","73622.7245126","77523.3540437","78289.5755474","79039.1872306","79806.270699","80572.9803815","81339.544754","82106.0748091","82872.3995755","85949.3061001"
"Mixed","both","tile","35","F_tile.wav","None","728.212827351","304","76756.5976763","83639.5343659","84405.954666","85172.7552442","85939.372485","86705.5457584","87472.7300159","73622.7245126","77523.3540437","78289.5755474","79039.1872306","79806.270699","80572.9803815","81339.544754","82106.0748091","82872.3995755","86714.827335"
"Mixed","both","tile","35","M_priest.wav","space","540.775124915","304","76756.5976763","83639.5343659","84405.954666","85172.7552442","85939.372485","86705.5457584","87472.7300159","88239.3491119","77523.3540437","78289.5755474","79039.1872306","79806.270699","80572.9803815","81339.544754","82106.0748091","82872.3995755","87482.4527777"
"Mixed","both","tile","30","F_cad.wav","None","728.122549597","304","91372.9860699","83639.5343659","84405.954666","85172.7552442","85939.372485","86705.5457584","87472.7300159","88239.3491119","77523.3540437","78289.5755474","79039.1872306","79806.270699","80572.9803815","81339.544754","82106.0748091","82872.3995755","88248.9414038"
"Mixed","both","tile","30","M_tile.wav","None","720.573868137","304","91372.9860699","83639.5343659","84405.954666","85172.7552442","85939.372485","86705.5457584","87472.7300159","88239.3491119","92139.0131065","78289.5755474","79039.1872306","79806.270699","80572.9803815","81339.544754","82106.0748091","82872.3995755","91383.1608375"
"Mixed","both","tile","30","M_cling.wav","space","522.672015708","304","91372.9860699","83639.5343659","84405.954666","85172.7552442","85939.372485","86705.5457584","87472.7300159","88239.3491119","92139.0131065","92889.1479042","79039.1872306","79806.270699","80572.9803815","81339.544754","82106.0748091","82872.3995755","92148.4316452"
"Mixed","both","tile","30","M_tile.wav","None","733.902782667","304","91372.9860699","83639.5343659","84405.954666","85172.7552442","85939.372485","86705.5457584","87472.7300159","88239.3491119","92139.0131065","92889.1479042","93655.502351","79806.270699","80572.9803815","81339.544754","82106.0748091","82872.3995755","92898.4913146"
"Mixed","both","tile","30","F_dime.wav","space","476.594943553","304","91372.9860699","83639.5343659","84405.954666","85172.7552442","85939.372485","86705.5457584","87472.7300159","88239.3491119","92139.0131065","92889.1479042","93655.502351","94422.0540477","80572.9803815","81339.544754","82106.0748091","82872.3995755","93666.4392208"
"Mixed","both","tile","30","M_knife.wav","None","732.98331257","304","91372.9860699","83639.5343659","84405.954666","85172.7552442","85939.372485","86705.5457584","87472.7300159","88239.3491119","92139.0131065","92889.1479042","93655.502351","94422.0540477","95189.1715247","81339.544754","82106.0748091","82872.3995755","94431.1269349"
"Mixed","both","tile","30","F_tile.wav","None","732.118874788","304","91372.9860699","83639.5343659","84405.954666","85172.7552442","85939.372485","86705.5457584","87472.7300159","88239.3491119","92139.0131065","92889.1479042","93655.502351","94422.0540477","95189.1715247","95955.6728271","82106.0748091","82872.3995755","95199.5608555"
"Mixed","both","tile","30","F_jaw.wav","space","513.554607984","304","91372.9860699","83639.5343659","84405.954666","85172.7552442","85939.372485","86705.5457584","87472.7300159","88239.3491119","92139.0131065","92889.1479042","93655.502351","94422.0540477","95189.1715247","95955.6728271","96722.4205374","82872.3995755","95965.4305247"
"Mixed","both","tile","30","F_cad.wav","None","728.599288967","304","91372.9860699","83639.5343659","84405.954666","85172.7552442","85939.372485","86705.5457584","87472.7300159","88239.3491119","92139.0131065","92889.1479042","93655.502351","94422.0540477","95189.1715247","95955.6728271","96722.4205374","97488.6751221","96731.7818799"
"Mixed","both","tile","30","M_romp.wav","None","726.8472258","304","91372.9860699","98255.8238255","84405.954666","85172.7552442","85939.372485","86705.5457584","87472.7300159","88239.3491119","92139.0131065","92889.1479042","93655.502351","94422.0540477","95189.1715247","95955.6728271","96722.4205374","97488.6751221","97498.0840767"
"Mixed","both","tile","30","M_greet.wav","None","723.106275313","304","91372.9860699","98255.8238255","99022.8337115","85172.7552442","85939.372485","86705.5457584","87472.7300159","88239.3491119","92139.0131065","92889.1479042","93655.502351","94422.0540477","95189.1715247","95955.6728271","96722.4205374","97488.6751221","98266.3575383"
"Mixed","both","tile","30","F_tile.wav","None","720.890148543","304","91372.9860699","98255.8238255","99022.8337115","99789.3922101","85939.372485","86705.5457584","87472.7300159","88239.3491119","92139.0131065","92889.1479042","93655.502351","94422.0540477","95189.1715247","95955.6728271","96722.4205374","97488.6751221","99033.080515"
"Mixed","both","tile","30","F_knife.wav","space","519.631952513","304","91372.9860699","98255.8238255","99022.8337115","99789.3922101","100538.872805","86705.5457584","87472.7300159","88239.3491119","92139.0131065","92889.1479042","93655.502351","94422.0540477","95189.1715247","95955.6728271","96722.4205374","97488.6751221","99799.2352382"
"Mixed","both","tile","30","M_jolt.wav","None","733.771385625","304","91372.9860699","98255.8238255","99022.8337115","99789.3922101","100538.872805","101305.094309","87472.7300159","88239.3491119","92139.0131065","92889.1479042","93655.502351","94422.0540477","95189.1715247","95955.6728271","96722.4205374","97488.6751221","100548.817241"
"Mixed","both","tile","30","M_cling.wav","None","733.023195062","304","91372.9860699","98255.8238255","99022.8337115","99789.3922101","100538.872805","101305.094309","102072.235901","88239.3491119","92139.0131065","92889.1479042","93655.502351","94422.0540477","95189.1715247","95955.6728271","96722.4205374","97488.6751221","101314.08403"
"Mixed","both","tile","30","F_park.wav","None","730.006937869","304","91372.9860699","98255.8238255","99022.8337115","99789.3922101","100538.872805","101305.094309","102072.235901","102838.561905","92139.0131065","92889.1479042","93655.502351","94422.0540477","95189.1715247","95955.6728271","96722.4205374","97488.6751221","102081.6767"
"Mixed","both","tile","25","F_cling.wav","None","731.685109902","304","105971.971314","98255.8238255","99022.8337115","99789.3922101","100538.872805","101305.094309","102072.235901","102838.561905","92139.0131065","92889.1479042","93655.502351","94422.0540477","95189.1715247","95955.6728271","96722.4205374","97488.6751221","102847.947671"
"Mixed","both","tile","25","M_greet.wav","None","728.540547192","304","105971.971314","98255.8238255","99022.8337115","99789.3922101","100538.872805","101305.094309","102072.235901","102838.561905","106738.809611","92889.1479042","93655.502351","94422.0540477","95189.1715247","95955.6728271","96722.4205374","97488.6751221","105981.233104"
"Mixed","both","tile","25","M_priest.wav","None","723.686277401","304","105971.971314","98255.8238255","99022.8337115","99789.3922101","100538.872805","101305.094309","102072.235901","102838.561905","106738.809611","107505.261446","93655.502351","94422.0540477","95189.1715247","95955.6728271","96722.4205374","97488.6751221","106750.585876"
"Mixed","both","tile","25","F_cling.wav","None","724.869159516","304","105971.971314","98255.8238255","99022.8337115","99789.3922101","100538.872805","101305.094309","102072.235901","102838.561905","106738.809611","107505.261446","108272.407366","94422.0540477","95189.1715247","95955.6728271","96722.4205374","97488.6751221","107513.91139"
"Mixed","both","tile","25","F_tile.wav","None","719.90853548","304","105971.971314","98255.8238255","99022.8337115","99789.3922101","100538.872805","101305.094309","102072.235901","102838.561905","106738.809611","107505.261446","108272.407366","109039.143329","95189.1715247","95955.6728271","96722.4205374","97488.6751221","108283.299716"
"Mixed","both","tile","25","F_priest.wav","space","514.913098421","304","105971.971314","98255.8238255","99022.8337115","99789.3922101","100538.872805","101305.094309","102072.235901","102838.561905","106738.809611","107505.261446","108272.407366","109039.143329","109788.579403","95955.6728271","96722.4205374","97488.6751221","109051.677368"
"Mixed","both","tile","25","M_tile.wav","None","732.386924792","304","105971.971314","98255.8238255","99022.8337115","99789.3922101","100538.872805","101305.094309","102072.235901","102838.561905","106738.809611","107505.261446","108272.407366","109039.143329","109788.579403","110555.306399","96722.4205374","97488.6751221","109799.784014"
"Mixed","both","tile","25","M_dime.wav","space","569.556638598","304","105971.971314","98255.8238255","99022.8337115","99789.3922101","100538.872805","101305.094309","102072.235901","102838.561905","106738.809611","107505.261446","108272.407366","109039.143329","109788.579403","110555.306399","111321.526357","97488.6751221","110564.964235"
"Mixed","both","tile","25","M_park.wav","None","731.783116702","304","105971.971314","98255.8238255","99022.8337115","99789.3922101","100538.872805","101305.094309","102072.235901","102838.561905","106738.809611","107505.261446","108272.407366","109039.143329","109788.579403","110555.306399","111321.526357","112088.601169","111332.604208"
"Mixed","both","tile","25","M_tile.wav","None","728.41409687","304","105971.971314","112855.057332","99022.8337115","99789.3922101","100538.872805","101305.094309","102072.235901","102838.561905","106738.809611","107505.261446","108272.407366","109039.143329","109788.579403","110555.306399","111321.526357","112088.601169","112100.524908"
"Mixed","both","tile","25","F_dime.wav","space","605.938465334","304","105971.971314","112855.057332","113621.938604","99789.3922101","100538.872805","101305.094309","102072.235901","102838.561905","106738.809611","107505.261446","108272.407366","109039.143329","109788.579403","110555.306399","111321.526357","112088.601169","112864.532449"
"Mixed","both","tile","25","M_depth.wav","None","726.690785959","304","105971.971314","112855.057332","113621.938604","114388.21143","100538.872805","101305.094309","102072.235901","102838.561905","106738.809611","107505.261446","108272.407366","109039.143329","109788.579403","110555.306399","111321.526357","112088.601169","113631.021385"
"Mixed","both","tile","25","M_park.wav","None","725.113094319","304","105971.971314","112855.057332","113621.938604","114388.21143","115154.668211","101305.094309","102072.235901","102838.561905","106738.809611","107505.261446","108272.407366","109039.143329","109788.579403","110555.306399","111321.526357","112088.601169","114397.500736"
"Mixed","both","tile","25","F_tile.wav","None","725.940122735","304","105971.971314","112855.057332","113621.938604","114388.21143","115154.668211","115921.339248","102072.235901","102838.561905","106738.809611","107505.261446","108272.407366","109039.143329","109788.579403","110555.306399","111321.526357","112088.601169","115163.870332"
"Mixed","both","tile","25","F_cling.wav","space","593.68484281","304","105971.971314","112855.057332","113621.938604","114388.21143","115154.668211","115921.339248","116688.486405","102838.561905","106738.809611","107505.261446","108272.407366","109039.143329","109788.579403","110555.306399","111321.526357","112088.601169","115924.696519"
"Mixed","both","tile","25","F_depth.wav","None","722.204118501","304","105971.971314","112855.057332","113621.938604","114388.21143","115154.668211","115921.339248","116688.486405","117454.883826","106738.809611","107505.261446","108272.407366","109039.143329","109788.579403","110555.306399","111321.526357","112088.601169","116697.968015"
"Mixed","both","ball","1","M_cling.wav","None","721.064829268","304","120572.095538","112855.057332","113621.938604","114388.21143","115154.668211","115921.339248","116688.486405","117454.883826","106738.809611","107505.261446","108272.407366","109039.143329","109788.579403","110555.306399","111321.526357","112088.601169","117463.907246"
"Mixed","both","ball","1","F_ball.wav","None","720.471842214","304","120572.095538","112855.057332","113621.938604","114388.21143","115154.668211","115921.339248","116688.486405","117454.883826","121322.239611","107505.261446","108272.407366","109039.143329","109788.579403","110555.306399","111321.526357","112088.601169","120581.930528"
"Mixed","both","ball","1","M_greet.wav","space","610.347222071","304","120572.095538","112855.057332","113621.938604","114388.21143","115154.668211","115921.339248","116688.486405","117454.883826","121322.239611","122088.373929","108272.407366","109039.143329","109788.579403","110555.306399","111321.526357","112088.601169","121331.867149"
"Mixed","both","ball","1","F_knife.wav","None","733.149336185","304","120572.095538","112855.057332","113621.938604","114388.21143","115154.668211","115921.339248","116688.486405","117454.883826","121322.239611","122088.373929","122854.945413","109039.143329","109788.579403","110555.306399","111321.526357","112088.601169","122097.628299"
"Mixed","both","ball","1","F_ball.wav","None","730.787590612","304","120572.095538","112855.057332","113621.938604","114388.21143","115154.668211","115921.339248","116688.486405","117454.883826","121322.239611","122088.373929","122854.945413","123621.695906","109788.579403","110555.306399","111321.526357","112088.601169","122864.666629"
"Mixed","both","ball","1","F_gnash.wav","space","535.468849353","304","120572.095538","112855.057332","113621.938604","114388.21143","115154.668211","115921.339248","116688.486405","117454.883826","121322.239611","122088.373929","122854.945413","123621.695906","124388.285012","110555.306399","111321.526357","112088.601169","123630.682226"
"Mixed","both","ball","1","F_romp.wav","None","725.787392817","304","120572.095538","112855.057332","113621.938604","114388.21143","115154.668211","115921.339248","116688.486405","117454.883826","121322.239611","122088.373929","122854.945413","123621.695906","124388.285012","125155.314376","111321.526357","112088.601169","124397.882251"
"Mixed","both","ball","1","F_bluff.wav","None","723.678857088","304","120572.095538","112855.057332","113621.938604","114388.21143","115154.668211","115921.339248","116688.486405","117454.883826","121322.239611","122088.373929","122854.945413","123621.695906","124388.285012","125155.314376","125921.569579","112088.601169","125164.642019"
"Mixed","both","ball","1","F_reek.wav","None","724.737144075","304","120572.095538","112855.057332","113621.938604","114388.21143","115154.668211","115921.339248","116688.486405","117454.883826","121322.239611","122088.373929","122854.945413","123621.695906","124388.285012","125155.314376","125921.569579","126688.603271","125931.231744"
"Mixed","both","ball","1","M_ball.wav","None","722.565846518","304","120572.095538","127455.129616","113621.938604","114388.21143","115154.668211","115921.339248","116688.486405","117454.883826","121322.239611","122088.373929","122854.945413","123621.695906","124388.285012","125155.314376","125921.569579","126688.603271","126698.20422"
"Mixed","both","ball","1","M_lash.wav","space","492.556745186","304","120572.095538","127455.129616","128204.56971","114388.21143","115154.668211","115921.339248","116688.486405","117454.883826","121322.239611","122088.373929","122854.945413","123621.695906","124388.285012","125155.314376","125921.569579","126688.603271","127465.4432"
"Mixed","both","ball","1","M_priest.wav","None","735.38339464","304","120572.095538","127455.129616","128204.56971","128971.466131","115154.668211","115921.339248","116688.486405","117454.883826","121322.239611","122088.373929","122854.945413","123621.695906","124388.285012","125155.314376","125921.569579","126688.603271","128213.609207"
"Mixed","both","ball","1","M_ball.wav","None","732.589121442","304","120572.095538","127455.129616","128204.56971","128971.466131","129738.07657","115921.339248","116688.486405","117454.883826","121322.239611","122088.373929","122854.945413","123621.695906","124388.285012","125155.314376","125921.569579","126688.603271","128981.108509"
"Mixed","both","ball","1","M_priest.wav","space","394.430682994","304","120572.095538","127455.129616","128204.56971","128971.466131","129738.07657","130504.662894","116688.486405","117454.883826","121322.239611","122088.373929","122854.945413","123621.695906","124388.285012","125155.314376","125921.569579","126688.603271","129747.531591"
"Mixed","both","ball","1","M_gnash.wav","None","728.260130156","304","120572.095538","127455.129616","128204.56971","128971.466131","129738.07657","130504.662894","131271.406894","117454.883826","121322.239611","122088.373929","122854.945413","123621.695906","124388.285012","125155.314376","125921.569579","126688.603271","130514.122552"
"Mixed","both","ball","1","F_reek.wav","None","726.587523241","304","120572.095538","127455.129616","128204.56971","128971.466131","129738.07657","130504.662894","131271.406894","132038.250138","121322.239611","122088.373929","122854.945413","123621.695906","124388.285012","125155.314376","125921.569579","126688.603271","131280.467106"
"Mixed","both","ball","12","M_dime.wav","None","723.091744352","304","135154.993767","127455.129616","128204.56971","128971.466131","129738.07657","130504.662894","131271.406894","132038.250138","121322.239611","122088.373929","122854.945413","123621.695906","124388.285012","125155.314376","125921.569579","126688.603271","132048.44902"
"Mixed","both","ball","12","F_depth.wav","None","720.235636458","304","135154.993767","127455.129616","128204.56971","128971.466131","129738.07657","130504.662894","131271.406894","132038.250138","135904.764054","122088.373929","122854.945413","123621.695906","124388.285012","125155.314376","125921.569579","126688.603271","135164.610484"
"Mixed","both","ball","12","M_cling.wav","None","735.465324949","304","135154.993767","127455.129616","128204.56971","128971.466131","129738.07657","130504.662894","131271.406894","132038.250138","135904.764054","136670.740078","122854.945413","123621.695906","124388.285012","125155.314376","125921.569579","126688.603271","135914.318318"
"Mixed","both","ball","12","F_gnash.wav","None","734.93479006","304","135154.993767","127455.129616","128204.56971","128971.466131","129738.07657","130504.662894","131271.406894","132038.250138","135904.764054","136670.740078","137437.839932","123621.695906","124388.285012","125155.314376","125921.569579","126688.603271","136679.519872"
"Mixed","both","ball","12","F_cad.wav","None","731.61059944","304","135154.993767","127455.129616","128204.56971","128971.466131","129738.07657","130504.662894","131271.406894","132038.250138","135904.764054","136670.740078","137437.839932","138204.493345","124388.285012","125155.314376","125921.569579","126688.603271","137447.367917"
"Mixed","both","ball","12","F_ball.wav","None","729.813397862","304","135154.993767","127455.129616","128204.56971","128971.466131","129738.07657","130504.662894","131271.406894","132038.250138","135904.764054","136670.740078","137437.839932","138204.493345","138971.257132","125155.314376","125921.569579","126688.603271","138213.932908"
"Mixed","both","ball","12","F_greet.wav","space","464.956258889","304","135154.993767","127455.129616","128204.56971","128971.466131","129738.07657","130504.662894","131271.406894","132038.250138","135904.764054","136670.740078","137437.839932","138204.493345","138971.257132","139737.716079","125921.569579","126688.603271","138980.684946"
"Mixed","both","ball","12","M_ball.wav","None","725.362594239","304","135154.993767","127455.129616","128204.56971","128971.466131","129738.07657","130504.662894","131271.406894","132038.250138","135904.764054","136670.740078","137437.839932","138204.493345","138971.257132","139737.716079","140504.817788","126688.603271","139746.799787"
"Mixed","both","ball","12","F_cling.wav","space","523.018594831","304","135154.993767","127455.129616","128204.56971","128971.466131","129738.07657","130504.662894","131271.406894","132038.250138","135904.764054","136670.740078","137437.839932","138204.493345","138971.257132","139737.716079","140504.817788","141271.474293","140514.60733"
"Mixed","both","ball","12","F_lash.wav","None","718.91300939","304","135154.993767","142020.765986","128204.56971","128971.466131","129738.07657","130504.662894","131271.406894","132038.250138","135904.764054","136670.740078","137437.839932","138204.493345","138971.257132","139737.716079","140504.817788","141271.474293","141281.275584"
"Mixed","both","ball","12","M_ball.wav","None","734.289244283","304","135154.993767","142020.765986","142788.322793","128971.466131","129738.07657","130504.662894","131271.406894","132038.250138","135904.764054","136670.740078","137437.839932","138204.493345","138971.257132","139737.716079","140504.817788","141271.474293","142030.715678"
"Mixed","both","ball","12","M_greet.wav","space","437.407403719","304","135154.993767","142020.765986","142788.322793","143553.849902","129738.07657","130504.662894","131271.406894","132038.250138","135904.764054","136670.740078","137437.839932","138204.493345","138971.257132","139737.716079","140504.817788","141271.474293","142792.154639"
"Mixed","both","ball","12","M_bluff.wav","None","730.676598847","304","135154.993767","142020.765986","142788.322793","143553.849902","144320.790225","130504.662894","131271.406894","132038.250138","135904.764054","136670.740078","137437.839932","138204.493345","138971.257132","139737.716079","140504.817788","141271.474293","143563.382215"
"Mixed","both","ball","12","M_park.wav","None","731.833511032","304","135154.993767","142020.765986","142788.322793","143553.849902","144320.790225","145087.563287","131271.406894","132038.250138","135904.764054","136670.740078","137437.839932","138204.493345","138971.257132","139737.716079","140504.817788","141271.474293","144329.904541"
"Mixed","both","ball","12","F_ball.wav","None","729.318417609","304","135154.993767","142020.765986","142788.322793","143553.849902","144320.790225","145087.563287","145854.088705","132038.250138","135904.764054","136670.740078","137437.839932","138204.493345","138971.257132","139737.716079","140504.817788","141271.474293","145096.703264"
"Mixed","both","ball","12","M_gnash.wav","space","491.635729093","304","135154.993767","142020.765986","142788.322793","143553.849902","144320.790225","145087.563287","145854.088705","146621.401886","135904.764054","136670.740078","137437.839932","138204.493345","138971.257132","139737.716079","140504.817788","141271.474293","145857.879741"
"Mixed","both","tile","29","F_reek.wav","None","726.979241241","304","149754.732457","142020.765986","142788.322793","143553.849902","144320.790225","145087.563287","145854.088705","146621.401886","135904.764054","136670.740078","137437.839932","138204.493345","138971.257132","139737.716079","140504.817788","141271.474293","146627.518495"
"Mixed","both","tile","29","M_cling.wav","None","719.757969957","304","149754.732457","142020.765986","142788.322793","143553.849902","144320.790225","145087.563287","145854.088705","146621.401886","150520.61573","136670.740078","137437.839932","138204.493345","138971.257132","139737.716079","140504.817788","141271.474293","149765.24391"
"Mixed","both","tile","29","M_tile.wav","None","720.187715255","304","149754.732457","142020.765986","142788.322793","143553.849902","144320.790225","145087.563287","145854.088705","146621.401886","150520.61573","151270.502573","137437.839932","138204.493345","138971.257132","139737.716079","140504.817788","141271.474293","150529.657082"
"Mixed","both","tile","29","F_bluff.wav","space","437.438939232","304","149754.732457","142020.765986","142788.322793","143553.849902","144320.790225","145087.563287","145854.088705","146621.401886","150520.61573","151270.502573","152037.413525","138204.493345","138971.257132","139737.716079","140504.817788","141271.474293","151279.892359"
"Mixed","both","tile","29","M_knife.wav","None","731.596687343","304","149754.732457","142020.765986","142788.322793","143553.849902","144320.790225","145087.563287","145854.088705","146621.401886","150520.61573","151270.502573","152037.413525","152804.036022","138971.257132","139737.716079","140504.817788","141271.474293","152046.87071"
"Mixed","both","tile","29","F_romp.wav","None","729.837513063","304","149754.732457","142020.765986","142788.322793","143553.849902","144320.790225","145087.563287","145854.088705","146621.401886","150520.61573","151270.502573","152037.413525","152804.036022","153570.336673","139737.716079","140504.817788","141271.474293","152813.57761"
"Mixed","both","tile","29","M_tile.wav","None","728.956070729","304","149754.732457","142020.765986","142788.322793","143553.849902","144320.790225","145087.563287","145854.088705","146621.401886","150520.61573","151270.502573","152037.413525","152804.036022","153570.336673","154337.302657","140504.817788","141271.474293","153579.369678"
"Mixed","both","tile","29","M_gnash.wav","space","538.347835653","304","149754.732457","142020.765986","142788.322793","143553.849902","144320.790225","145087.563287","145854.088705","146621.401886","150520.61573","151270.502573","152037.413525","152804.036022","153570.336673","154337.302657","155104.290283","141271.474293","154346.889693"
"Mixed","both","tile","29","F_reek.wav","None","722.453618422","304","149754.732457","142020.765986","142788.322793","143553.849902","144320.790225","145087.563287","145854.088705","146621.401886","150520.61573","151270.502573","152037.413525","152804.036022","153570.336673","154337.302657","155104.290283","155870.70038","155114.380647"
"Mixed","both","tile","29","F_tile.wav","None","728.351026308","304","149754.732457","156637.612569","142788.322793","143553.849902","144320.790225","145087.563287","145854.088705","146621.401886","150520.61573","151270.502573","152037.413525","152804.036022","153570.336673","154337.302657","155104.290283","155870.70038","155874.673517"
"Mixed","both","tile","29","F_jaw.wav","space","629.723800346","304","149754.732457","156637.612569","157387.095019","143553.849902","144320.790225","145087.563287","145854.088705","146621.401886","150520.61573","151270.502573","152037.413525","152804.036022","153570.336673","154337.302657","155104.290283","155870.70038","156647.443539"
"Mixed","both","tile","29","M_cad.wav","None","735.14688015","304","149754.732457","156637.612569","157387.095019","158171.079237","144320.790225","145087.563287","145854.088705","146621.401886","150520.61573","151270.502573","152037.413525","152804.036022","153570.336673","154337.302657","155104.290283","155870.70038","157396.80294"
"Mixed","both","tile","29","F_jaw.wav","None","719.27875746","304","149754.732457","156637.612569","157387.095019","158171.079237","158920.155747","145087.563287","145854.088705","146621.401886","150520.61573","151270.502573","152037.413525","152804.036022","153570.336673","154337.302657","155104.290283","155870.70038","158180.767371"
"Mixed","both","tile","29","M_knife.wav","None","735.466252547","304","149754.732457","156637.612569","157387.095019","158171.079237","158920.155747","159687.187275","145854.088705","146621.401886","150520.61573","151270.502573","152037.413525","152804.036022","153570.336673","154337.302657","155104.290283","155870.70038","158929.625299"
"Mixed","both","tile","29","F_tile.wav","None","733.537034597","304","149754.732457","156637.612569","157387.095019","158171.079237","158920.155747","159687.187275","160453.708364","146621.401886","150520.61573","151270.502573","152037.413525","152804.036022","153570.336673","154337.302657","155104.290283","155870.70038","159696.569332"
"Mixed","both","tile","29","M_gnash.wav","space","493.585351855","304","149754.732457","156637.612569","157387.095019","158171.079237","158920.155747","159687.187275","160453.708364","161220.538623","150520.61573","151270.502573","152037.413525","152804.036022","153570.336673","154337.302657","155104.290283","155870.70038","160463.498834"
"Mixed","both","cave","23","F_jaw.wav","None","729.486605152","304","164353.637317","156637.612569","157387.095019","158171.079237","158920.155747","159687.187275","160453.708364","161220.538623","150520.61573","151270.502573","152037.413525","152804.036022","153570.336673","154337.302657","155104.290283","155870.70038","161229.624186"
"Mixed","both","cave","23","M_depth.wav","None","722.251730971","304","164353.637317","156637.612569","157387.095019","158171.079237","158920.155747","159687.187275","160453.708364","161220.538623","165119.722786","151270.502573","152037.413525","152804.036022","153570.336673","154337.302657","155104.290283","155870.70038","164364.322214"
"Mixed","both","cave","23","F_cave.wav","None","723.965766374","304","164353.637317","156637.612569","157387.095019","158171.079237","158920.155747","159687.187275","160453.708364","161220.538623","165119.722786","165886.983409","152037.413525","152804.036022","153570.336673","154337.302657","155104.290283","155870.70038","165130.366255"
"Mixed","both","cave","23","M_romp.wav","space","524.43520911","304","164353.637317","156637.612569","157387.095019","158171.079237","158920.155747","159687.187275","160453.708364","161220.538623","165119.722786","165886.983409","166653.4439","152804.036022","153570.336673","154337.302657","155104.290283","155870.70038","165896.428536"
"Mixed","both","cave","23","M_priest.wav","None","723.882908933","304","164353.637317","156637.612569","157387.095019","158171.079237","158920.155747","159687.187275","160453.708364","161220.538623","165119.722786","165886.983409","166653.4439","167420.649491","153570.336673","154337.302657","155104.290283","155870.70038","166662.464229"
"Mixed","both","cave","23","M_cave.wav","None","720.721650869","304","164353.637317","156637.612569","157387.095019","158171.079237","158920.155747","159687.187275","160453.708364","161220.538623","165119.722786","165886.983409","166653.4439","167420.649491","168187.293629","154337.302657","155104.290283","155870.70038","167430.536731"
"Mixed","both","cave","23","M_greet.wav","space","605.792846531","304","164353.637317","156637.612569","157387.095019","158171.079237","158920.155747","159687.187275","160453.708364","161220.538623","165119.722786","165886.983409","166653.4439","167420.649491","168187.293629","168954.288985","155104.290283","155870.70038","168199.027538"
"Mixed","both","cave","23","F_cave.wav","None","717.348921113","304","164353.637317","156637.612569","157387.095019","158171.079237","158920.155747","159687.187275","160453.708364","161220.538623","165119.722786","165886.983409","166653.4439","167420.649491","168187.293629","168954.288985","169703.265943","155870.70038","168965.81575"
"Mixed","both","cave","23","F_gnash.wav","space","546.567105688","304","164353.637317","156637.612569","157387.095019","158171.079237","158920.155747","159687.187275","160453.708364","161220.538623","165119.722786","165886.983409","166653.4439","167420.649491","168187.293629","168954.288985","169703.265943","170470.285413","169714.187664"
"Mixed","both","cave","23","M_cad.wav","None","731.585866306","304","164353.637317","171236.802483","157387.095019","158171.079237","158920.155747","159687.187275","160453.708364","161220.538623","165119.722786","165886.983409","166653.4439","167420.649491","168187.293629","168954.288985","169703.265943","170470.285413","170480.033217"
"Mixed","both","cave","23","F_lash.wav","None","730.383506045","304","164353.637317","171236.802483","172003.402719","158171.079237","158920.155747","159687.187275","160453.708364","161220.538623","165119.722786","165886.983409","166653.4439","167420.649491","168187.293629","168954.288985","169703.265943","170470.285413","171246.126416"
"Mixed","both","cave","23","M_cave.wav","None","726.248055231","304","164353.637317","171236.802483","172003.402719","172770.177327","158920.155747","159687.187275","160453.708364","161220.538623","165119.722786","165886.983409","166653.4439","167420.649491","168187.293629","168954.288985","169703.265943","170470.285413","172015.045423"
"Mixed","both","cave","23","M_knife.wav","space","615.463049151","304","164353.637317","171236.802483","172003.402719","172770.177327","173537.183503","159687.187275","160453.708364","161220.538623","165119.722786","165886.983409","166653.4439","167420.649491","168187.293629","168954.288985","169703.265943","170470.285413","172781.189017"
"Mixed","both","cave","23","F_jaw.wav","None","722.925719805","304","164353.637317","171236.802483","172003.402719","172770.177327","173537.183503","174303.665019","160453.708364","161220.538623","165119.722786","165886.983409","166653.4439","167420.649491","168187.293629","168954.288985","169703.265943","170470.285413","173546.940583"
"Mixed","both","cave","23","F_dime.wav","None","721.927411854","304","164353.637317","171236.802483","172003.402719","172770.177327","173537.183503","174303.665019","175070.201257","161220.538623","165119.722786","165886.983409","166653.4439","167420.649491","168187.293629","168954.288985","169703.265943","170470.285413","174313.466928"
"Mixed","both","cave","23","F_dime.wav","None","720.956929028","304","164353.637317","171236.802483","172003.402719","172770.177327","173537.183503","174303.665019","175070.201257","175837.22351","165119.722786","165886.983409","166653.4439","167420.649491","168187.293629","168954.288985","169703.265943","170470.285413","175080.033155"
"Mixed","both","tile","27","F_cling.wav","None","716.938653495","304","178953.461338","171236.802483","172003.402719","172770.177327","173537.183503","174303.665019","175070.201257","175837.22351","165119.722786","165886.983409","166653.4439","167420.649491","168187.293629","168954.288985","169703.265943","170470.285413","175849.103656"
"Mixed","both","tile","27","F_greet.wav","None","720.407225657","304","178953.461338","171236.802483","172003.402719","172770.177327","173537.183503","174303.665019","175070.201257","175837.22351","179720.931577","165886.983409","166653.4439","167420.649491","168187.293629","168954.288985","169703.265943","170470.285413","178963.672587"
"Mixed","both","tile","27","F_depth.wav","None","718.440908007","304","178953.461338","171236.802483","172003.402719","172770.177327","173537.183503","174303.665019","175070.201257","175837.22351","179720.931577","180469.732927","166653.4439","167420.649491","168187.293629","168954.288985","169703.265943","170470.285413","179730.695149"
"Mixed","both","tile","27","F_tile.wav","None","735.16141111","304","178953.461338","171236.802483","172003.402719","172770.177327","173537.183503","174303.665019","175070.201257","175837.22351","179720.931577","180469.732927","181235.978546","167420.649491","168187.293629","168954.288985","169703.265943","170470.285413","180479.050677"
"Mixed","both","tile","27","M_gnash.wav","space","559.809762053","304","178953.461338","171236.802483","172003.402719","172770.177327","173537.183503","174303.665019","175070.201257","175837.22351","179720.931577","180469.732927","181235.978546","182002.436565","168187.293629","168954.288985","169703.265943","170470.285413","181244.599737"
"Mixed","both","tile","27","M_priest.wav","None","736.088301055","304","178953.461338","171236.802483","172003.402719","172770.177327","173537.183503","174303.665019","175070.201257","175837.22351","179720.931577","180469.732927","181235.978546","182002.436565","182769.341951","168954.288985","169703.265943","170470.285413","182011.173385"
"Mixed","both","tile","27","F_reek.wav","None","734.170523006","304","178953.461338","171236.802483","172003.402719","172770.177327","173537.183503","174303.665019","175070.201257","175837.22351","179720.931577","180469.732927","181235.978546","182002.436565","182769.341951","183536.4551","169703.265943","170470.285413","182778.334145"
"Mixed","both","tile","27","F_tile.wav","None","731.885451358","304","178953.461338","171236.802483","172003.402719","172770.177327","173537.183503","174303.665019","175070.201257","175837.22351","179720.931577","180469.732927","181235.978546","182002.436565","182769.341951","183536.4551","184303.002778","170470.285413","183545.956805"
"Mixed","both","tile","27","M_romp.wav","space","564.096705988","304","178953.461338","171236.802483","172003.402719","172770.177327","173537.183503","174303.665019","175070.201257","175837.22351","179720.931577","180469.732927","181235.978546","182002.436565","182769.341951","183536.4551","184303.002778","185069.595594","184312.230868"
"Mixed","both","tile","27","M_park.wav","None","727.42166277","304","178953.461338","185836.030115","172003.402719","172770.177327","173537.183503","174303.665019","175070.201257","175837.22351","179720.931577","180469.732927","181235.978546","182002.436565","182769.341951","183536.4551","184303.002778","185069.595594","185079.579295"
"Mixed","both","tile","27","M_tile.wav","None","727.171544451","304","178953.461338","185836.030115","186602.950961","172770.177327","173537.183503","174303.665019","175070.201257","175837.22351","179720.931577","180469.732927","181235.978546","182002.436565","182769.341951","183536.4551","184303.002778","185069.595594","185845.163291"
"Mixed","both","tile","27","M_park.wav","space","671.807021368","304","178953.461338","185836.030115","186602.950961","187370.131818","173537.183503","174303.665019","175070.201257","175837.22351","179720.931577","180469.732927","181235.978546","182002.436565","182769.341951","183536.4551","184303.002778","185069.595594","186612.48111"
"Mixed","both","tile","27","M_tile.wav","None","722.052006982","304","178953.461338","185836.030115","186602.950961","187370.131818","188136.747513","174303.665019","175070.201257","175837.22351","179720.931577","180469.732927","181235.978546","182002.436565","182769.341951","183536.4551","184303.002778","185069.595594","187379.957842"
"Mixed","both","tile","27","M_romp.wav","space","521.806341596","304","178953.461338","185836.030115","186602.950961","187370.131818","188136.747513","188886.226562","175070.201257","175837.22351","179720.931577","180469.732927","181235.978546","182002.436565","182769.341951","183536.4551","184303.002778","185069.595594","188146.416169"
"Mixed","both","tile","27","F_park.wav","None","735.869099852","304","178953.461338","185836.030115","186602.950961","187370.131818","188136.747513","188886.226562","189652.864826","175837.22351","179720.931577","180469.732927","181235.978546","182002.436565","182769.341951","183536.4551","184303.002778","185069.595594","188895.403949"
"Mixed","both","tile","27","F_jaw.wav","None","733.989040367","304","178953.461338","185836.030115","186602.950961","187370.131818","188136.747513","188886.226562","189652.864826","190419.582856","179720.931577","180469.732927","181235.978546","182002.436565","182769.341951","183536.4551","184303.002778","185069.595594","189662.341489"
"Mixed","both","cave","16","M_priest.wav","None","732.085793279","304","193552.483064","185836.030115","186602.950961","187370.131818","188136.747513","188886.226562","189652.864826","190419.582856","179720.931577","180469.732927","181235.978546","182002.436565","182769.341951","183536.4551","184303.002778","185069.595594","190429.279647"
"Mixed","both","cave","16","F_bluff.wav","None","722.201336175","304","193552.483064","185836.030115","186602.950961","187370.131818","188136.747513","188886.226562","189652.864826","190419.582856","194319.593121","180469.732927","181235.978546","182002.436565","182769.341951","183536.4551","184303.002778","185069.595594","193561.45949"
"Mixed","both","cave","16","M_cling.wav","None","719.189097639","304","193552.483064","185836.030115","186602.950961","187370.131818","188136.747513","188886.226562","189652.864826","190419.582856","194319.593121","195069.126275","181235.978546","182002.436565","182769.341951","183536.4551","184303.002778","185069.595594","194329.380808"
"Mixed","both","cave","16","F_reek.wav","None","734.992295504","304","193552.483064","185836.030115","186602.950961","187370.131818","188136.747513","188886.226562","189652.864826","190419.582856","194319.593121","195069.126275","195836.029497","182002.436565","182769.341951","183536.4551","184303.002778","185069.595594","195078.610357"
"Mixed","both","cave","16","M_cave.wav","None","733.532706276","304","193552.483064","185836.030115","186602.950961","187370.131818","188136.747513","188886.226562","189652.864826","190419.582856","194319.593121","195069.126275","195836.029497","196602.587378","182769.341951","183536.4551","184303.002778","185069.595594","195845.111041"
"Mixed","both","cave","16","M_knife.wav","space","663.92938327","304","193552.483064","185836.030115","186602.950961","187370.131818","188136.747513","188886.226562","189652.864826","190419.582856","194319.593121","195069.126275","195836.029497","196602.587378","197369.383628","183536.4551","184303.002778","185069.595594","196612.042089"
"Mixed","both","cave","16","F_depth.wav","None","729.025634006","304","193552.483064","185836.030115","186602.950961","187370.131818","188136.747513","188886.226562","189652.864826","190419.582856","194319.593121","195069.126275","195836.029497","196602.587378","197369.383628","198136.084962","184303.002778","185069.595594","197378.727347"
"Mixed","both","cave","16","M_cave.wav","None","727.157013491","304","193552.483064","185836.030115","186602.950961","187370.131818","188136.747513","188886.226562","189652.864826","190419.582856","194319.593121","195069.126275","195836.029497","196602.587378","197369.383628","198136.084962","198902.71457","185069.595594","198145.568427"
"Mixed","both","cave","16","F_dime.wav","space","515.566992108","304","193552.483064","185836.030115","186602.950961","187370.131818","188136.747513","188886.226562","189652.864826","190419.582856","194319.593121","195069.126275","195836.029497","196602.587378","197369.383628","198136.084962","198902.71457","199669.28358","198912.326958"
"Mixed","both","cave","16","F_cave.wav","None","723.720903974","304","193552.483064","200435.758912","186602.950961","187370.131818","188136.747513","188886.226562","189652.864826","190419.582856","194319.593121","195069.126275","195836.029497","196602.587378","197369.383628","198136.084962","198902.71457","199669.28358","199678.059047"
"Mixed","both","cave","16","F_cad.wav","space","646.954123862","304","193552.483064","200435.758912","201185.929574","187370.131818","188136.747513","188886.226562","189652.864826","190419.582856","194319.593121","195069.126275","195836.029497","196602.587378","197369.383628","198136.084962","198902.71457","199669.28358","200444.884049"
"Mixed","both","cave","16","M_jaw.wav","None","735.555293038","304","193552.483064","200435.758912","201185.929574","201952.3811","188136.747513","188886.226562","189652.864826","190419.582856","194319.593121","195069.126275","195836.029497","196602.587378","197369.383628","198136.084962","198902.71457","199669.28358","201195.354914"
"Mixed","both","cave","16","F_cave.wav","None","734.12507493","304","193552.483064","200435.758912","201185.929574","201952.3811","202718.868489","188886.226562","189652.864826","190419.582856","194319.593121","195069.126275","195836.029497","196602.587378","197369.383628","198136.084962","198902.71457","199669.28358","201961.846014"
"Mixed","both","cave","16","F_cling.wav","space","524.067606777","304","193552.483064","200435.758912","201185.929574","201952.3811","202718.868489","203485.851787","189652.864826","190419.582856","194319.593121","195069.126275","195836.029497","196602.587378","197369.383628","198136.084962","198902.71457","199669.28358","202727.710736"
"Mixed","both","cave","16","M_dime.wav","None","729.926244356","304","193552.483064","200435.758912","201185.929574","201952.3811","202718.868489","203485.851787","204252.530552","190419.582856","194319.593121","195069.126275","195836.029497","196602.587378","197369.383628","198136.084962","198902.71457","199669.28358","203495.310208"
"Mixed","both","cave","16","M_gnash.wav","None","728.573319037","304","193552.483064","200435.758912","201185.929574","201952.3811","202718.868489","203485.851787","204252.530552","205019.182111","194319.593121","195069.126275","195836.029497","196602.587378","197369.383628","198136.084962","198902.71457","199669.28358","204261.905189"
"Mixed","both","ball","2","F_cling.wav","None","727.344060782","304","208152.097777","200435.758912","201185.929574","201952.3811","202718.868489","203485.851787","204252.530552","205019.182111","194319.593121","195069.126275","195836.029497","196602.587378","197369.383628","198136.084962","198902.71457","199669.28358","205028.281587"
"Mixed","both","ball","2","M_romp.wav","None","722.156197298","304","208152.097777","200435.758912","201185.929574","201952.3811","202718.868489","203485.851787","204252.530552","205019.182111","208919.589349","195069.126275","195836.029497","196602.587378","197369.383628","198136.084962","198902.71457","199669.28358","208161.084096"
"Mixed","both","ball","2","M_jaw.wav","None","719.137466513","304","208152.097777","200435.758912","201185.929574","201952.3811","202718.868489","203485.851787","204252.530552","205019.182111","208919.589349","209668.849815","195836.029497","196602.587378","197369.383628","198136.084962","198902.71457","199669.28358","208929.069722"
"Mixed","both","ball","2","F_gnash.wav","None","735.061858781","304","208152.097777","200435.758912","201185.929574","201952.3811","202718.868489","203485.851787","204252.530552","205019.182111","208919.589349","209668.849815","210435.710682","196602.587378","197369.383628","198136.084962","198902.71457","199669.28358","209678.271446"
"Mixed","both","ball","2","M_knife.wav","None","732.999698259","304","208152.097777","200435.758912","201185.929574","201952.3811","202718.868489","203485.851787","204252.530552","205019.182111","208919.589349","209668.849815","210435.710682","211202.305662","197369.383628","198136.084962","198902.71457","199669.28358","210445.399126"
"Mixed","both","ball","2","M_ball.wav","None","731.838766951","304","208152.097777","200435.758912","201185.929574","201952.3811","202718.868489","203485.851787","204252.530552","205019.182111","208919.589349","209668.849815","210435.710682","211202.305662","211969.036368","198136.084962","198902.71457","199669.28358","211211.74337"
"Mixed","both","ball","2","F_romp.wav","space","585.041391663","304","208152.097777","200435.758912","201185.929574","201952.3811","202718.868489","203485.851787","204252.530552","205019.182111","208919.589349","209668.849815","210435.710682","211202.305662","211969.036368","212735.553438","198902.71457","199669.28358","211978.460781"
"Mixed","both","ball","2","F_ball.wav","None","727.874596138","304","208152.097777","200435.758912","201185.929574","201952.3811","202718.868489","203485.851787","204252.530552","205019.182111","208919.589349","209668.849815","210435.710682","211202.305662","211969.036368","212735.553438","213501.89119","199669.28358","212744.983725"
"Mixed","both","ball","2","F_romp.wav","space","404.506206512","304","208152.097777","200435.758912","201185.929574","201952.3811","202718.868489","203485.851787","204252.530552","205019.182111","208919.589349","209668.849815","210435.710682","211202.305662","211969.036368","212735.553438","213501.89119","214268.573047","213510.961295"
"Mixed","both","ball","2","M_lash.wav","None","724.466002546","304","208152.097777","215035.957646","201185.929574","201952.3811","202718.868489","203485.851787","204252.530552","205019.182111","208919.589349","209668.849815","210435.710682","211202.305662","211969.036368","212735.553438","213501.89119","214268.573047","214277.999315"
"Mixed","both","ball","2","F_ball.wav","None","719.791359734","304","208152.097777","215035.957646","215802.559119","201952.3811","202718.868489","203485.851787","204252.530552","205019.182111","208919.589349","209668.849815","210435.710682","211202.305662","211969.036368","212735.553438","213501.89119","214268.573047","215047.975373"
"Mixed","both","ball","2","F_depth.wav","space","399.739432149","304","208152.097777","215035.957646","215802.559119","216552.051154","202718.868489","203485.851787","204252.530552","205019.182111","208919.589349","209668.849815","210435.710682","211202.305662","211969.036368","212735.553438","213501.89119","214268.573047","215811.595834"
"Mixed","both","ball","2","F_priest.wav","None","735.838492401","304","208152.097777","215035.957646","215802.559119","216552.051154","217318.570697","203485.851787","204252.530552","205019.182111","208919.589349","209668.849815","210435.710682","211202.305662","211969.036368","212735.553438","213501.89119","214268.573047","216561.285428"
"Mixed","both","ball","2","M_reek.wav","None","734.335001092","304","208152.097777","215035.957646","215802.559119","216552.051154","217318.570697","218085.440839","204252.530552","205019.182111","208919.589349","209668.849815","210435.710682","211202.305662","211969.036368","212735.553438","213501.89119","214268.573047","217327.915035"
"Mixed","both","ball","2","M_ball.wav","None","732.393416576","304","208152.097777","215035.957646","215802.559119","216552.051154","217318.570697","218085.440839","218851.643792","205019.182111","208919.589349","209668.849815","210435.710682","211202.305662","211969.036368","212735.553438","213501.89119","214268.573047","218094.976244"
"Mixed","both","ball","2","M_lash.wav","space","646.43286448","304","208152.097777","215035.957646","215802.559119","216552.051154","217318.570697","218085.440839","218851.643792","219618.734371","208919.589349","209668.849815","210435.710682","211202.305662","211969.036368","212735.553438","213501.89119","214268.573047","218860.850859"
"Mixed","both","done","44","F_dime.wav","None","728.730995208","304","222752.2894","215035.957646","215802.559119","216552.051154","217318.570697","218085.440839","218851.643792","219618.734371","208919.589349","209668.849815","210435.710682","211202.305662","211969.036368","212735.553438","213501.89119","214268.573047","219627.814061"
"Mixed","both","done","44","M_gnash.wav","None","721.030511428","304","222752.2894","215035.957646","215802.559119","216552.051154","217318.570697","218085.440839","218851.643792","219618.734371","223518.933229","209668.849815","210435.710682","211202.305662","211969.036368","212735.553438","213501.89119","214268.573047","222761.722161"
"Mixed","both","done","44","F_jaw.wav","None","719.283703715","304","222752.2894","215035.957646","215802.559119","216552.051154","217318.570697","218085.440839","218851.643792","219618.734371","223518.933229","224268.3523","210435.710682","211202.305662","211969.036368","212735.553438","213501.89119","214268.573047","223529.052964"
"Mixed","both","done","44","F_knife.wav","None","736.239484977","304","222752.2894","215035.957646","215802.559119","216552.051154","217318.570697","218085.440839","218851.643792","219618.734371","223518.933229","224268.3523","225034.684795","211202.305662","211969.036368","212735.553438","213501.89119","214268.573047","224277.615945"
"Mixed","both","done","44","M_dime.wav","None","736.089847516","304","222752.2894","215035.957646","215802.559119","216552.051154","217318.570697","218085.440839","218851.643792","219618.734371","223518.933229","224268.3523","225034.684795","225801.758989","211969.036368","212735.553438","213501.89119","214268.573047","225043.607117"
"Mixed","both","done","44","M_done.wav","None","733.742323238","304","222752.2894","215035.957646","215802.559119","216552.051154","217318.570697","218085.440839","218851.643792","219618.734371","223518.933229","224268.3523","225034.684795","225801.758989","226568.607179","212735.553438","213501.89119","214268.573047","225811.246472"
"Mixed","both","done","44","M_greet.wav","space","520.962617826","304","222752.2894","215035.957646","215802.559119","216552.051154","217318.570697","218085.440839","218851.643792","219618.734371","223518.933229","224268.3523","225034.684795","225801.758989","226568.607179","227335.167533","213501.89119","214268.573047","226578.100846"
"Mixed","both","done","44","F_priest.wav","None","729.684783146","304","222752.2894","215035.957646","215802.559119","216552.051154","217318.570697","218085.440839","218851.643792","219618.734371","223518.933229","224268.3523","225034.684795","225801.758989","226568.607179","227335.167533","228101.829912","214268.573047","227344.573705"
"Mixed","both","done","44","F_done.wav","None","728.378851432","304","222752.2894","215035.957646","215802.559119","216552.051154","217318.570697","218085.440839","218851.643792","219618.734371","223518.933229","224268.3523","225034.684795","225801.758989","226568.607179","227335.167533","228101.829912","228868.479307","228111.236084"
"Mixed","both","done","44","M_depth.wav","space","523.762456607","304","222752.2894","229635.084181","215802.559119","216552.051154","217318.570697","218085.440839","218851.643792","219618.734371","223518.933229","224268.3523","225034.684795","225801.758989","226568.607179","227335.167533","228101.829912","228868.479307","228879.222018"
"Mixed","both","done","44","F_done.wav","None","722.897276282","304","222752.2894","229635.084181","230402.021721","216552.051154","217318.570697","218085.440839","218851.643792","219618.734371","223518.933229","224268.3523","225034.684795","225801.758989","226568.607179","227335.167533","228101.829912","228868.479307","229645.676018"
"Mixed","both","done","44","F_lash.wav","space","671.00998247","304","222752.2894","229635.084181","230402.021721","231168.75521","217318.570697","218085.440839","218851.643792","219618.734371","223518.933229","224268.3523","225034.684795","225801.758989","226568.607179","227335.167533","228101.829912","228868.479307","230411.960901"
"Mixed","both","done","44","F_dime.wav","None","717.399934307","304","222752.2894","229635.084181","230402.021721","231168.75521","231918.138726","218085.440839","218851.643792","219618.734371","223518.933229","224268.3523","225034.684795","225801.758989","226568.607179","227335.167533","228101.829912","228868.479307","231180.311037"
"Mixed","both","done","44","M_lash.wav","None","733.868464362","304","222752.2894","229635.084181","230402.021721","231168.75521","231918.138726","232685.063899","218851.643792","219618.734371","223518.933229","224268.3523","225034.684795","225801.758989","226568.607179","227335.167533","228101.829912","228868.479307","231929.117643"
"Mixed","both","done","44","M_done.wav","None","733.794881962","304","222752.2894","229635.084181","230402.021721","231168.75521","231918.138726","232685.063899","233451.536449","219618.734371","223518.933229","224268.3523","225034.684795","225801.758989","226568.607179","227335.167533","228101.829912","228868.479307","232694.126275"
"Mixed","both","done","44","M_jaw.wav","space","589.829808101","304","222752.2894","229635.084181","230402.021721","231168.75521","231918.138726","232685.063899","233451.536449","234218.328989","223518.933229","224268.3523","225034.684795","225801.758989","226568.607179","227335.167533","228101.829912","228868.479307","233461.018986"
"Mixed","both","done","42","M_greet.wav","None","729.915732983","304","237351.814145","229635.084181","230402.021721","231168.75521","231918.138726","232685.063899","233451.536449","234218.328989","223518.933229","224268.3523","225034.684795","225801.758989","226568.607179","227335.167533","228101.829912","228868.479307","234227.695587"
"Mixed","both","done","42","M_cad.wav","None","720.588399097","304","237351.814145","229635.084181","230402.021721","231168.75521","231918.138726","232685.063899","233451.536449","234218.328989","238118.54887","224268.3523","225034.684795","225801.758989","226568.607179","227335.167533","228101.829912","228868.479307","237361.770947"
"Mixed","both","done","42","M_done.wav","None","719.400260597","304","237351.814145","229635.084181","230402.021721","231168.75521","231918.138726","232685.063899","233451.536449","234218.328989","238118.54887","238867.857876","225034.684795","225801.758989","226568.607179","227335.167533","228101.829912","228868.479307","238128.426834"
"Mixed","both","done","42","F_depth.wav","space","613.395323511","304","237351.814145","229635.084181","230402.021721","231168.75521","231918.138726","232685.063899","233451.536449","234218.328989","238118.54887","238867.857876","239634.410191","225801.758989","226568.607179","227335.167533","228101.829912","228868.479307","238877.295583"
"Mixed","both","done","42","M_done.wav","None","734.029232524","304","237351.814145","229635.084181","230402.021721","231168.75521","231918.138726","232685.063899","233451.536449","234218.328989","238118.54887","238867.857876","239634.410191","240401.367828","226568.607179","227335.167533","228101.829912","228868.479307","239643.133408"
"Mixed","both","done","42","F_priest.wav","space","527.776403818","304","237351.814145","229635.084181","230402.021721","231168.75521","231918.138726","232685.063899","233451.536449","234218.328989","238118.54887","238867.857876","239634.410191","240401.367828","241167.784418","227335.167533","228101.829912","228868.479307","240410.87077"
"Mixed","both","done","42","F_jolt.wav","None","729.449505452","304","237351.814145","229635.084181","230402.021721","231168.75521","231918.138726","232685.063899","233451.536449","234218.328989","238118.54887","238867.857876","239634.410191","240401.367828","241167.784418","241934.708663","228101.829912","228868.479307","241176.845247"
"Mixed","both","done","42","M_depth.wav","None","727.586759254","304","237351.814145","229635.084181","230402.021721","231168.75521","231918.138726","232685.063899","233451.536449","234218.328989","238118.54887","238867.857876","239634.410191","240401.367828","241167.784418","241934.708663","242701.237482","228868.479307","241944.120091"
"Mixed","both","done","42","F_jolt.wav","None","726.433247793","304","237351.814145","229635.084181","230402.021721","231168.75521","231918.138726","232685.063899","233451.536449","234218.328989","238118.54887","238867.857876","239634.410191","240401.367828","241167.784418","241934.708663","242701.237482","243467.644796","242710.693739"
"Mixed","both","done","42","F_done.wav","None","725.800378248","304","237351.814145","244234.625002","230402.021721","231168.75521","231918.138726","232685.063899","233451.536449","234218.328989","238118.54887","238867.857876","239634.410191","240401.367828","241167.784418","241934.708663","242701.237482","243467.644796","243476.553205"
"Mixed","both","done","42","F_cling.wav","space","574.901560787","304","237351.814145","244234.625002","245001.538427","231168.75521","231918.138726","232685.063899","233451.536449","234218.328989","238118.54887","238867.857876","239634.410191","240401.367828","241167.784418","241934.708663","242701.237482","243467.644796","244243.626471"
"Mixed","both","done","42","F_done.wav","None","720.299325418","304","237351.814145","244234.625002","245001.538427","245767.497446","231918.138726","232685.063899","233451.536449","234218.328989","238118.54887","238867.857876","239634.410191","240401.367828","241167.784418","241934.708663","242701.237482","243467.644796","245011.08929"
"Mixed","both","done","42","M_knife.wav","space","418.266412802","304","237351.814145","244234.625002","245001.538427","245767.497446","246535.523263","232685.063899","233451.536449","234218.328989","238118.54887","238867.857876","239634.410191","240401.367828","241167.784418","241934.708663","242701.237482","243467.644796","245776.213861"
"Mixed","both","done","42","F_knife.wav","None","718.409372494","304","237351.814145","244234.625002","245001.538427","245767.497446","246535.523263","247284.457865","233451.536449","234218.328989","238118.54887","238867.857876","239634.410191","240401.367828","241167.784418","241934.708663","242701.237482","243467.644796","246545.318679"
"Mixed","both","done","42","M_park.wav","None","735.286625102","304","237351.814145","244234.625002","245001.538427","245767.497446","246535.523263","247284.457865","248050.93227","234218.328989","238118.54887","238867.857876","239634.410191","240401.367828","241167.784418","241934.708663","242701.237482","243467.644796","247293.884751"
"Mixed","both","done","42","M_gnash.wav","None","734.800301027","304","237351.814145","244234.625002","245001.538427","245767.497446","246535.523263","247284.457865","248050.93227","248817.874138","238118.54887","238867.857876","239634.410191","240401.367828","241167.784418","241934.708663","242701.237482","243467.644796","248059.975168"
"Mixed","both","done","45","M_park.wav","None","732.603343204","304","251951.205019","244234.625002","245001.538427","245767.497446","246535.523263","247284.457865","248050.93227","248817.874138","238118.54887","238867.857876","239634.410191","240401.367828","241167.784418","241934.708663","242701.237482","243467.644796","248827.311845"
"Mixed","both","done","45","M_done.wav","None","720.694753341","304","251951.205019","244234.625002","245001.538427","245767.497446","246535.523263","247284.457865","248050.93227","248817.874138","252718.081962","238867.857876","239634.410191","240401.367828","241167.784418","241934.708663","242701.237482","243467.644796","251961.335266"
"Mixed","both","done","45","F_priest.wav","space","578.764633276","304","251951.205019","244234.625002","245001.538427","245767.497446","246535.523263","247284.457865","248050.93227","248817.874138","252718.081962","253467.460531","239634.410191","240401.367828","241167.784418","241934.708663","242701.237482","243467.644796","252727.492153"
"Mixed","both","done","45","F_romp.wav","None","734.625929967","304","251951.205019","244234.625002","245001.538427","245767.497446","246535.523263","247284.457865","248050.93227","248817.874138","252718.081962","253467.460531","254233.964925","240401.367828","241167.784418","241934.708663","242701.237482","243467.644796","253476.787247"
"Mixed","both","done","45","M_done.wav","None","734.219371807","304","251951.205019","244234.625002","245001.538427","245767.497446","246535.523263","247284.457865","248050.93227","248817.874138","252718.081962","253467.460531","254233.964925","255000.49869","241167.784418","241934.708663","242701.237482","243467.644796","254242.765435"
"Mixed","both","done","45","F_bluff.wav","space","568.853587378","304","251951.205019","244234.625002","245001.538427","245767.497446","246535.523263","247284.457865","248050.93227","248817.874138","252718.081962","253467.460531","254233.964925","255000.49869","255767.708609","241934.708663","242701.237482","243467.644796","255009.305383"
"Mixed","both","done","45","M_priest.wav","None","729.624804109","304","251951.205019","244234.625002","245001.538427","245767.497446","246535.523263","247284.457865","248050.93227","248817.874138","252718.081962","253467.460531","254233.964925","255000.49869","255767.708609","256534.234026","242701.237482","243467.644796","255776.779641"
"Mixed","both","done","45","F_done.wav","None","728.011249099","304","251951.205019","244234.625002","245001.538427","245767.497446","246535.523263","247284.457865","248050.93227","248817.874138","252718.081962","253467.460531","254233.964925","255000.49869","255767.708609","256534.234026","257300.820041","243467.644796","256543.783653"
"Mixed","both","done","45","F_bluff.wav","space","491.854930297","304","251951.205019","244234.625002","245001.538427","245767.497446","246535.523263","247284.457865","248050.93227","248817.874138","252718.081962","253467.460531","254233.964925","255000.49869","255767.708609","256534.234026","257300.820041","258067.176034","257310.264241"
"Mixed","both","done","45","F_done.wav","None","725.52552633","304","251951.205019","258834.654312","245001.538427","245767.497446","246535.523263","247284.457865","248050.93227","248817.874138","252718.081962","253467.460531","254233.964925","255000.49869","255767.708609","256534.234026","257300.820041","258067.176034","258076.227897"
"Mixed","both","done","45","M_reek.wav","space","597.680548672","304","251951.205019","258834.654312","259601.07523","245767.497446","246535.523263","247284.457865","248050.93227","248817.874138","252718.081962","253467.460531","254233.964925","255000.49869","255767.708609","256534.234026","257300.820041","258067.176034","258844.391913"
"Mixed","both","done","45","F_priest.wav","None","720.354975667","304","251951.205019","258834.654312","259601.07523","260368.048324","246535.523263","247284.457865","248050.93227","248817.874138","252718.081962","253467.460531","254233.964925","255000.49869","255767.708609","256534.234026","257300.820041","258067.176034","259611.184762"
"Mixed","both","done","45","F_park.wav","None","718.733691145","304","251951.205019","258834.654312","259601.07523","260368.048324","261117.69649","247284.457865","248050.93227","248817.874138","252718.081962","253467.460531","254233.964925","255000.49869","255767.708609","256534.234026","257300.820041","258067.176034","260378.605844"
"Mixed","both","done","45","M_lash.wav","None","735.517574474","304","251951.205019","258834.654312","259601.07523","260368.048324","261117.69649","261883.923559","248050.93227","248817.874138","252718.081962","253467.460531","254233.964925","255000.49869","255767.708609","256534.234026","257300.820041","258067.176034","261127.248899"
"Mixed","both","done","45","M_priest.wav","None","735.181507189","304","251951.205019","258834.654312","259601.07523","260368.048324","261117.69649","261883.923559","262650.2205","248817.874138","252718.081962","253467.460531","254233.964925","255000.49869","255767.708609","256534.234026","257300.820041","258067.176034","261893.211319"
"Mixed","both","done","45","M_jolt.wav","None","734.750834294","304","251951.205019","258834.654312","259601.07523","260368.048324","261117.69649","261883.923559","262650.2205","263417.483286","252718.081962","253467.460531","254233.964925","255000.49869","255767.708609","256534.234026","257300.820041","258067.176034","262659.067693"
"Mixed","both","ball","4","F_dime.wav","None","732.690219767","304","266550.886822","258834.654312","259601.07523","260368.048324","261117.69649","261883.923559","262650.2205","263417.483286","252718.081962","253467.460531","254233.964925","255000.49869","255767.708609","256534.234026","257300.820041","258067.176034","263427.172348"
"Mixed","both","ball","4","F_ball.wav","None","720.890457742","304","266550.886822","258834.654312","259601.07523","260368.048324","261117.69649","261883.923559","262650.2205","263417.483286","267317.757581","253467.460531","254233.964925","255000.49869","255767.708609","256534.234026","257300.820041","258067.176034","266560.413879"
"Mixed","both","ball","4","F_cling.wav","None","719.027711544","304","266550.886822","258834.654312","259601.07523","260368.048324","261117.69649","261883.923559","262650.2205","263417.483286","267317.757581","268067.210661","254233.964925","255000.49869","255767.708609","256534.234026","257300.820041","258067.176034","267327.595354"
"Mixed","both","ball","4","M_reek.wav","space","0.101098325104","304","266550.886822","258834.654312","259601.07523","260368.048324","261117.69649","261883.923559","262650.2205","263417.483286","267317.757581","268067.210661","268833.937966","255000.49869","255767.708609","256534.234026","257300.820041","258067.176034","268076.155861"
"Mixed","both","ball","4","F_ball.wav","None","732.453705277","304","266550.886822","258834.654312","259601.07523","260368.048324","261117.69649","261883.923559","262650.2205","263417.483286","267317.757581","268067.210661","268833.937966","269600.599727","255767.708609","256534.234026","257300.820041","258067.176034","268843.349703"
"Mixed","both","ball","4","M_priest.wav","space","551.571323071","304","266550.886822","258834.654312","259601.07523","260368.048324","261117.69649","261883.923559","262650.2205","263417.483286","267317.757581","268067.210661","268833.937966","269600.599727","270367.25685","256534.234026","257300.820041","258067.176034","269610.220153"
"Mixed","both","ball","4","M_romp.wav","None","729.08777697","304","266550.886822","258834.654312","259601.07523","260368.048324","261117.69649","261883.923559","262650.2205","263417.483286","267317.757581","268067.210661","268833.937966","269600.599727","270367.25685","271133.862961","257300.820041","258067.176034","270376.599952"
"Mixed","both","ball","4","M_jaw.wav","None","727.626023348","304","266550.886822","258834.654312","259601.07523","260368.048324","261117.69649","261883.923559","262650.2205","263417.483286","267317.757581","268067.210661","268833.937966","269600.599727","270367.25685","271133.862961","271900.547292","258067.176034","271143.294794"
"Mixed","both","ball","4","M_ball.wav","None","726.578557398","304","266550.886822","258834.654312","259601.07523","260368.048324","261117.69649","261883.923559","262650.2205","263417.483286","267317.757581","268067.210661","268833.937966","269600.599727","270367.25685","271133.862961","271900.547292","272667.155876","271909.8434"
"Mixed","both","ball","4","M_lash.wav","space","484.802156687","304","266550.886822","273434.195133","259601.07523","260368.048324","261117.69649","261883.923559","262650.2205","263417.483286","267317.757581","268067.210661","268833.937966","269600.599727","270367.25685","271133.862961","271900.547292","272667.155876","272676.854213"
"Mixed","both","ball","4","F_dime.wav","None","721.897731535","304","266550.886822","273434.195133","274201.135146","260368.048324","261117.69649","261883.923559","262650.2205","263417.483286","267317.757581","268067.210661","268833.937966","269600.599727","270367.25685","271133.862961","271900.547292","272667.155876","273444.150081"
"Mixed","both","ball","4","F_knife.wav","None","720.514507499","304","266550.886822","273434.195133","274201.135146","274967.601203","261117.69649","261883.923559","262650.2205","263417.483286","267317.757581","268067.210661","268833.937966","269600.599727","270367.25685","271133.862961","271900.547292","272667.155876","274210.925926"
"Mixed","both","ball","4","F_reek.wav","None","719.86958012","304","266550.886822","273434.195133","274201.135146","274967.601203","275734.074371","261883.923559","262650.2205","263417.483286","267317.757581","268067.210661","268833.937966","269600.599727","270367.25685","271133.862961","271900.547292","272667.155876","274977.185148"
"Mixed","both","ball","4","F_dime.wav","None","718.240875285","304","266550.886822","273434.195133","274201.135146","274967.601203","275734.074371","276483.439028","262650.2205","263417.483286","267317.757581","268067.210661","268833.937966","269600.599727","270367.25685","271133.862961","271900.547292","272667.155876","275744.016643"
"Mixed","both","ball","4","M_ball.wav","None","734.824416693","304","266550.886822","273434.195133","274201.135146","274967.601203","275734.074371","276483.439028","277250.068326","263417.483286","267317.757581","268067.210661","268833.937966","269600.599727","270367.25685","271133.862961","271900.547292","272667.155876","276493.121907"
"Mixed","both","ball","4","M_romp.wav","space","493.982325308","304","266550.886822","273434.195133","274201.135146","274967.601203","275734.074371","276483.439028","277250.068326","278016.41659","267317.757581","268067.210661","268833.937966","269600.599727","270367.25685","271133.862961","271900.547292","272667.155876","277259.495522"
"Mixed","both","cave","18","M_reek.wav","None","735.116272699","304","281150.407238","273434.195133","274201.135146","274967.601203","275734.074371","276483.439028","277250.068326","278016.41659","267317.757581","268067.210661","268833.937966","269600.599727","270367.25685","271133.862961","271900.547292","272667.155876","278025.26502"
"Mixed","both","cave","18","F_cling.wav","None","720.340135973","304","281150.407238","273434.195133","274201.135146","274967.601203","275734.074371","276483.439028","277250.068326","278016.41659","281916.729531","268067.210661","268833.937966","269600.599727","270367.25685","271133.862961","271900.547292","272667.155876","281160.265725"
"Mixed","both","cave","18","F_gnash.wav","None","720.201009419","304","281150.407238","273434.195133","274201.135146","274967.601203","275734.074371","276483.439028","277250.068326","278016.41659","281916.729531","282666.536609","268833.937966","269600.599727","270367.25685","271133.862961","271900.547292","272667.155876","281926.020692"
"Mixed","both","cave","18","M_cave.wav","None","736.441063695","304","281150.407238","273434.195133","274201.135146","274967.601203","275734.074371","276483.439028","277250.068326","278016.41659","281916.729531","282666.536609","283433.358829","269600.599727","270367.25685","271133.862961","271900.547292","272667.155876","282675.618154"
"Mixed","both","cave","18","M_depth.wav","space","678.500849754","304","281150.407238","273434.195133","274201.135146","274967.601203","275734.074371","276483.439028","277250.068326","278016.41659","281916.729531","282666.536609","283433.358829","284199.591463","270367.25685","271133.862961","271900.547292","272667.155876","283442.849714"
"Mixed","both","cave","18","M_cave.wav","None","733.119655866","304","281150.407238","273434.195133","274201.135146","274967.601203","275734.074371","276483.439028","277250.068326","278016.41659","281916.729531","282666.536609","283433.358829","284199.591463","284966.308566","271133.862961","271900.547292","272667.155876","284208.476994"
"Mixed","both","cave","18","M_knife.wav","space","586.152547039","304","281150.407238","273434.195133","274201.135146","274967.601203","275734.074371","276483.439028","277250.068326","278016.41659","281916.729531","282666.536609","283433.358829","284199.591463","284966.308566","285733.385542","271900.547292","272667.155876","284975.153286"
"Mixed","both","cave","18","F_cave.wav","None","728.516740724","304","281150.407238","273434.195133","274201.135146","274967.601203","275734.074371","276483.439028","277250.068326","278016.41659","281916.729531","282666.536609","283433.358829","284199.591463","284966.308566","285733.385542","286500.070491","272667.155876","285742.838708"
"Mixed","both","cave","18","M_lash.wav","space","507.583618164","304","281150.407238","273434.195133","274201.135146","274967.601203","275734.074371","276483.439028","277250.068326","278016.41659","281916.729531","282666.536609","283433.358829","284199.591463","284966.308566","285733.385542","286500.070491","287266.628989","286509.689371"
"Mixed","both","cave","18","M_park.wav","None","725.244490895","304","281150.407238","288033.619089","274201.135146","274967.601203","275734.074371","276483.439028","277250.068326","278016.41659","281916.729531","282666.536609","283433.358829","284199.591463","284966.308566","285733.385542","286500.070491","287266.628989","287275.822453"
"Mixed","both","cave","18","F_jaw.wav","None","722.627680749","304","281150.407238","288033.619089","288800.386894","274967.601203","275734.074371","276483.439028","277250.068326","278016.41659","281916.729531","282666.536609","283433.358829","284199.591463","284966.308566","285733.385542","286500.070491","287266.628989","288043.760775"
"Mixed","both","cave","18","F_cave.wav","None","720.985990949","304","281150.407238","288033.619089","288800.386894","289566.725883","275734.074371","276483.439028","277250.068326","278016.41659","281916.729531","282666.536609","283433.358829","284199.591463","284966.308566","285733.385542","286500.070491","287266.628989","288811.48577"
"Mixed","both","cave","18","F_cad.wav","space","600.688767619","304","281150.407238","288033.619089","288800.386894","289566.725883","290333.508529","276483.439028","277250.068326","278016.41659","281916.729531","282666.536609","283433.358829","284199.591463","284966.308566","285733.385542","286500.070491","287266.628989","289576.448335"
"Mixed","both","cave","18","F_depth.wav","None","717.381075025","304","281150.407238","288033.619089","288800.386894","289566.725883","290333.508529","291082.784454","277250.068326","278016.41659","281916.729531","282666.536609","283433.358829","284199.591463","284966.308566","285733.385542","286500.070491","287266.628989","290345.236255"
"Mixed","both","cave","18","F_reek.wav","None","736.772493459","304","281150.407238","288033.619089","288800.386894","289566.725883","290333.508529","291082.784454","291849.625534","278016.41659","281916.729531","282666.536609","283433.358829","284199.591463","284966.308566","285733.385542","286500.070491","287266.628989","291091.577853"
"Mixed","both","cave","18","M_jaw.wav","None","735.311667901","304","281150.407238","288033.619089","288800.386894","289566.725883","290333.508529","291082.784454","291849.625534","292616.351911","281916.729531","282666.536609","283433.358829","284199.591463","284966.308566","285733.385542","286500.070491","287266.628989","291858.625148"
"Mixed","both","cave","14","F_depth.wav","None","734.178561717","304","295750.003401","288033.619089","288800.386894","289566.725883","290333.508529","291082.784454","291849.625534","292616.351911","281916.729531","282666.536609","283433.358829","284199.591463","284966.308566","285733.385542","286500.070491","287266.628989","292625.455716"
"Mixed","both","cave","14","F_park.wav","None","720.391148701","304","295750.003401","288033.619089","288800.386894","289566.725883","290333.508529","291082.784454","291849.625534","292616.351911","296516.884363","282666.536609","283433.358829","284199.591463","284966.308566","285733.385542","286500.070491","287266.628989","295760.135194"
"Mixed","both","cave","14","F_cave.wav","None","719.117679633","304","295750.003401","288033.619089","288800.386894","289566.725883","290333.508529","291082.784454","291849.625534","292616.351911","296516.884363","297266.320438","283433.358829","284199.591463","284966.308566","285733.385542","286500.070491","287266.628989","296527.002243"
"Mixed","both","cave","14","F_gnash.wav","space","629.763064906","304","295750.003401","288033.619089","288800.386894","289566.725883","290333.508529","291082.784454","291849.625534","292616.351911","296516.884363","297266.320438","298032.666537","284199.591463","284966.308566","285733.385542","286500.070491","287266.628989","297275.188964"
"Mixed","both","cave","14","M_reek.wav","None","734.347058926","304","295750.003401","288033.619089","288800.386894","289566.725883","290333.508529","291082.784454","291849.625534","292616.351911","296516.884363","297266.320438","298032.666537","298799.337883","284966.308566","285733.385542","286500.070491","287266.628989","298041.43211"
"Mixed","both","cave","14","F_romp.wav","None","733.609998599","304","295750.003401","288033.619089","288800.386894","289566.725883","290333.508529","291082.784454","291849.625534","292616.351911","296516.884363","297266.320438","298032.666537","298799.337883","299565.933791","285733.385542","286500.070491","287266.628989","298808.145193"
"Mixed","both","cave","14","F_greet.wav","None","732.419387437","304","295750.003401","288033.619089","288800.386894","289566.725883","290333.508529","291082.784454","291849.625534","292616.351911","296516.884363","297266.320438","298032.666537","298799.337883","299565.933791","300333.020042","286500.070491","287266.628989","299575.178267"
"Mixed","both","cave","14","M_reek.wav","None","730.789136607","304","295750.003401","288033.619089","288800.386894","289566.725883","290333.508529","291082.784454","291849.625534","292616.351911","296516.884363","297266.320438","298032.666537","298799.337883","299565.933791","300333.020042","301099.472804","287266.628989","300342.319859"
"Mixed","both","cave","14","M_cave.wav","None","730.06691644","304","295750.003401","288033.619089","288800.386894","289566.725883","290333.508529","291082.784454","291849.625534","292616.351911","296516.884363","297266.320438","298032.666537","298799.337883","299565.933791","300333.020042","301099.472804","301865.809319","301108.865064"
"Mixed","both","cave","14","M_bluff.wav","space","509.912282228","304","295750.003401","302632.907318","288800.386894","289566.725883","290333.508529","291082.784454","291849.625534","292616.351911","296516.884363","297266.320438","298032.666537","298799.337883","299565.933791","300333.020042","301099.472804","301865.809319","301874.894573"
"Mixed","both","cave","14","M_cave.wav","None","726.156231947","304","295750.003401","302632.907318","303399.460561","289566.725883","290333.508529","291082.784454","291849.625534","292616.351911","296516.884363","297266.320438","298032.666537","298799.337883","299565.933791","300333.020042","301099.472804","301865.809319","302642.384909"
"Mixed","both","cave","14","M_dime.wav","space","495.767160784","304","295750.003401","302632.907318","303399.460561","304166.448805","290333.508529","291082.784454","291849.625534","292616.351911","296516.884363","297266.320438","298032.666537","298799.337883","299565.933791","300333.020042","301099.472804","301865.809319","303408.974942"
"Mixed","both","cave","14","F_cave.wav","None","721.865578089","304","295750.003401","302632.907318","303399.460561","304166.448805","304933.242273","291082.784454","291849.625534","292616.351911","296516.884363","297266.320438","298032.666537","298799.337883","299565.933791","300333.020042","301099.472804","301865.809319","304176.432197"
"Mixed","both","cave","14","F_bluff.wav","space","529.462304898","304","295750.003401","302632.907318","303399.460561","304166.448805","304933.242273","305682.999884","291849.625534","292616.351911","296516.884363","297266.320438","298032.666537","298799.337883","299565.933791","300333.020042","301099.472804","301865.809319","304943.237721"
"Mixed","both","cave","14","M_cad.wav","None","735.655464232","304","295750.003401","302632.907318","303399.460561","304166.448805","304933.242273","305682.999884","306449.230972","292616.351911","296516.884363","297266.320438","298032.666537","298799.337883","299565.933791","300333.020042","301099.472804","301865.809319","305692.348241"
"Mixed","both","cave","14","M_park.wav","None","734.563168138","304","295750.003401","302632.907318","303399.460561","304166.448805","304933.242273","305682.999884","306449.230972","307216.1209","296516.884363","297266.320438","298032.666537","298799.337883","299565.933791","300333.020042","301099.472804","301865.809319","306459.127487"
"Mixed","both","done","37","M_jolt.wav","None","733.945756685","304","310349.628008","302632.907318","303399.460561","304166.448805","304933.242273","305682.999884","306449.230972","307216.1209","296516.884363","297266.320438","298032.666537","298799.337883","299565.933791","300333.020042","301099.472804","301865.809319","307225.43494"
"Mixed","both","done","37","M_cad.wav","None","720.618697349","304","310349.628008","302632.907318","303399.460561","304166.448805","304933.242273","305682.999884","306449.230972","307216.1209","311116.369534","297266.320438","298032.666537","298799.337883","299565.933791","300333.020042","301099.472804","301865.809319","310359.454959"
"Mixed","both","done","37","M_done.wav","None","720.011797734","304","310349.628008","302632.907318","303399.460561","304166.448805","304933.242273","305682.999884","306449.230972","307216.1209","311116.369534","311883.089419","298032.666537","298799.337883","299565.933791","300333.020042","301099.472804","301865.809319","311126.083948"
"Mixed","both","done","37","M_jaw.wav","space","603.417806327","304","310349.628008","302632.907318","303399.460561","304166.448805","304933.242273","305682.999884","306449.230972","307216.1209","311116.369534","311883.089419","312632.663693","298799.337883","299565.933791","300333.020042","301099.472804","301865.809319","311893.070956"
"Mixed","both","done","37","F_cling.wav","None","733.995533548","304","310349.628008","302632.907318","303399.460561","304166.448805","304933.242273","305682.999884","306449.230972","307216.1209","311116.369534","311883.089419","312632.663693","313399.237341","299565.933791","300333.020042","301099.472804","301865.809319","312641.915589"
"Mixed","both","done","37","F_cling.wav","None","733.096777461","304","310349.628008","302632.907318","303399.460561","304166.448805","304933.242273","305682.999884","306449.230972","307216.1209","311116.369534","311883.089419","312632.663693","313399.237341","314165.974848","300333.020042","301099.472804","301865.809319","313408.851893"
"Mixed","both","done","37","M_priest.wav","None","732.740614098","304","310349.628008","302632.907318","303399.460561","304166.448805","304933.242273","305682.999884","306449.230972","307216.1209","311116.369534","311883.089419","312632.663693","313399.237341","314165.974848","314932.580031","301099.472804","301865.809319","314175.099676"
"Mixed","both","done","37","F_cling.wav","None","731.446121354","304","310349.628008","302632.907318","303399.460561","304166.448805","304933.242273","305682.999884","306449.230972","307216.1209","311116.369534","311883.089419","312632.663693","313399.237341","314165.974848","314932.580031","315699.137602","301865.809319","314942.11791"
