"Condition","Talker","Target","Trial","current_stimulus","response_response","response_time_response","subject_nr","time_Audio1","time_Audio10","time_Audio11","time_Audio12","time_Audio13","time_Audio14","time_Audio15","time_Audio16","time_Audio2","time_Audio3","time_Audio4","time_Audio5","time_Audio6","time_Audio7","time_Audio8","time_Audio9","time_response"
"Blocked","Male","done","21","M_lash.wav","NA","NA","301","37163.5623989","NA","NA","NA","NA","NA","NA","NA","NA","NA","NA","NA","NA","NA","NA","NA","NA"
"Blocked","Male","done","21","M_reek.wav","None","721.826313529","301","37163.5623989","NA","NA","NA","NA","NA","NA","NA","37930.5596091","NA","NA","NA","NA","NA","NA","NA","37178.8081639"
"Blocked","Male","done","21","M_done.wav","None","727.948487271","301","37163.5623989","NA","NA","NA","NA","NA","NA","NA","37930.5596091","38696.9517744","NA","NA","NA","NA","NA","NA","37940.4103667"
"Blocked","Male","done","21","M_gnash.wav","None","728.024543263","301","37163.5623989","NA","NA","NA","NA","NA","NA","NA","37930.5596091","38696.9517744","39463.380422","NA","NA","NA","NA","NA","38706.9911254"
"Blocked","Male","done","21","M_greet.wav","space","47.2098691389","301","37163.5623989","NA","NA","NA","NA","NA","NA","NA","37930.5596091","38696.9517744","39463.380422","40229.7330135","NA","NA","NA","NA","39473.6745288"
"Blocked","Male","done","21","M_done.wav","None","732.556349132","301","37163.5623989","NA","NA","NA","NA","NA","NA","NA","37930.5596091","38696.9517744","39463.380422","40229.7330135","40996.7184751","NA","NA","NA","40238.9583215"
"Blocked","Male","done","21","M_lash.wav","space","370.846308302","301","37163.5623989","NA","NA","NA","NA","NA","NA","NA","37930.5596091","38696.9517744","39463.380422","40229.7330135","40996.7184751","41763.5607915","NA","NA","41005.9910859"
"Blocked","Male","done","21","M_done.wav","None","725.256549194","301","37163.5623989","NA","NA","NA","NA","NA","NA","NA","37930.5596091","38696.9517744","39463.380422","40229.7330135","40996.7184751","41763.5607915","42531.0183549","NA","41773.35528"
"Blocked","Male","done","21","M_romp.wav","space","635.764971841","301","37163.5623989","NA","NA","NA","NA","NA","NA","NA","37930.5596091","38696.9517744","39463.380422","40229.7330135","40996.7184751","41763.5607915","42531.0183549","43297.2061592","42540.9819596"
"Blocked","Male","done","21","M_jaw.wav","None","720.916118473","301","37163.5623989","44064.1780174","NA","NA","NA","NA","NA","NA","37930.5596091","38696.9517744","39463.380422","40229.7330135","40996.7184751","41763.5607915","42531.0183549","43297.2061592","43307.887346"
"Blocked","Male","done","21","M_dime.wav","None","721.626590006","301","37163.5623989","44064.1780174","44831.1201953","NA","NA","NA","NA","NA","37930.5596091","38696.9517744","39463.380422","40229.7330135","40996.7184751","41763.5607915","42531.0183549","43297.2061592","44074.2309717"
"Blocked","Male","done","21","M_done.wav","None","721.585161518","301","37163.5623989","44064.1780174","44831.1201953","45597.4628935","NA","NA","NA","NA","37930.5596091","38696.9517744","39463.380422","40229.7330135","40996.7184751","41763.5607915","42531.0183549","43297.2061592","44841.1787148"
"Blocked","Male","done","21","M_knife.wav","space","568.927169312","301","37163.5623989","44064.1780174","44831.1201953","45597.4628935","46363.6485338","NA","NA","NA","37930.5596091","38696.9517744","39463.380422","40229.7330135","40996.7184751","41763.5607915","42531.0183549","43297.2061592","45607.7335034"
"Blocked","Male","done","21","M_park.wav","None","720.103621017","301","37163.5623989","44064.1780174","44831.1201953","45597.4628935","46363.6485338","47131.155564","NA","NA","37930.5596091","38696.9517744","39463.380422","40229.7330135","40996.7184751","41763.5607915","42531.0183549","43297.2061592","46373.4260183"
"Blocked","Male","done","21","M_gnash.wav","None","719.890912995","301","37163.5623989","44064.1780174","44831.1201953","45597.4628935","46363.6485338","47131.155564","47879.8474683","NA","37930.5596091","38696.9517744","39463.380422","40229.7330135","40996.7184751","41763.5607915","42531.0183549","43297.2061592","47141.3473357"
"Blocked","Male","done","21","M_depth.wav","None","735.870336648","301","37163.5623989","44064.1780174","44831.1201953","45597.4628935","46363.6485338","47131.155564","47879.8474683","48646.6378439","37930.5596091","38696.9517744","39463.380422","40229.7330135","40996.7184751","41763.5607915","42531.0183549","43297.2061592","47889.1278082"
"Blocked","Male","tile","17","M_priest.wav","None","735.192637425","301","51814.0596054","44064.1780174","44831.1201953","45597.4628935","46363.6485338","47131.155564","47879.8474683","48646.6378439","37930.5596091","38696.9517744","39463.380422","40229.7330135","40996.7184751","41763.5607915","42531.0183549","43297.2061592","48656.4280041"
"Blocked","Male","tile","17","M_knife.wav","None","722.930975724","301","51814.0596054","44064.1780174","44831.1201953","45597.4628935","46363.6485338","47131.155564","47879.8474683","48646.6378439","52580.6938503","38696.9517744","39463.380422","40229.7330135","40996.7184751","41763.5607915","42531.0183549","43297.2061592","51824.0494896"
"Blocked","Male","tile","17","M_reek.wav","None","720.321276225","301","51814.0596054","44064.1780174","44831.1201953","45597.4628935","46363.6485338","47131.155564","47879.8474683","48646.6378439","52580.6938503","53330.2007252","39463.380422","40229.7330135","40996.7184751","41763.5607915","42531.0183549","43297.2061592","52590.9477654"
"Blocked","Male","tile","17","M_jaw.wav","None","735.283223912","301","51814.0596054","44064.1780174","44831.1201953","45597.4628935","46363.6485338","47131.155564","47879.8474683","48646.6378439","52580.6938503","53330.2007252","54097.3228398","40229.7330135","40996.7184751","41763.5607915","42531.0183549","43297.2061592","53339.7420044"
"Blocked","Male","tile","17","M_greet.wav","None","731.973873917","301","51814.0596054","44064.1780174","44831.1201953","45597.4628935","46363.6485338","47131.155564","47879.8474683","48646.6378439","52580.6938503","53330.2007252","54097.3228398","54863.2314638","40996.7184751","41763.5607915","42531.0183549","43297.2061592","54106.8993639"
"Blocked","Male","tile","17","M_depth.wav","None","730.416587554","301","51814.0596054","44064.1780174","44831.1201953","45597.4628935","46363.6485338","47131.155564","47879.8474683","48646.6378439","52580.6938503","53330.2007252","54097.3228398","54863.2314638","55630.2935998","41763.5607915","42531.0183549","43297.2061592","54872.4954179"
"Blocked","Male","tile","17","M_park.wav","None","726.910605561","301","51814.0596054","44064.1780174","44831.1201953","45597.4628935","46363.6485338","47131.155564","47879.8474683","48646.6378439","52580.6938503","53330.2007252","54097.3228398","54863.2314638","55630.2935998","56397.473529","42531.0183549","43297.2061592","55639.9115529"
"Blocked","Male","tile","17","M_tile.wav","None","722.511123866","301","51814.0596054","44064.1780174","44831.1201953","45597.4628935","46363.6485338","47131.155564","47879.8474683","48646.6378439","52580.6938503","53330.2007252","54097.3228398","54863.2314638","55630.2935998","56397.473529","57163.4940724","43297.2061592","56408.1071038"
"Blocked","Male","tile","17","M_jolt.wav","space","474.783210084","301","51814.0596054","44064.1780174","44831.1201953","45597.4628935","46363.6485338","47131.155564","47879.8474683","48646.6378439","52580.6938503","53330.2007252","54097.3228398","54863.2314638","55630.2935998","56397.473529","57163.4940724","57930.2655892","57173.5538291"
"Blocked","Male","tile","17","M_tile.wav","None","724.498155992","301","51814.0596054","58696.5204831","44831.1201953","45597.4628935","46363.6485338","47131.155564","47879.8474683","48646.6378439","52580.6938503","53330.2007252","54097.3228398","54863.2314638","55630.2935998","56397.473529","57163.4940724","57930.2655892","57939.8288191"
"Blocked","Male","tile","17","M_bluff.wav","space","614.448664244","301","51814.0596054","58696.5204831","59463.7854337","45597.4628935","46363.6485338","47131.155564","47879.8474683","48646.6378439","52580.6938503","53330.2007252","54097.3228398","54863.2314638","55630.2935998","56397.473529","57163.4940724","57930.2655892","58705.833286"
"Blocked","Male","tile","17","M_tile.wav","None","720.33271566","301","51814.0596054","58696.5204831","59463.7854337","60213.6067338","46363.6485338","47131.155564","47879.8474683","48646.6378439","52580.6938503","53330.2007252","54097.3228398","54863.2314638","55630.2935998","56397.473529","57163.4940724","57930.2655892","59474.2081552"
"Blocked","Male","tile","17","M_knife.wav","space","385.699118488","301","51814.0596054","58696.5204831","59463.7854337","60213.6067338","60979.8804875","47131.155564","47879.8474683","48646.6378439","52580.6938503","53330.2007252","54097.3228398","54863.2314638","55630.2935998","56397.473529","57163.4940724","57930.2655892","60222.5655378"
"Blocked","Male","tile","17","M_romp.wav","None","732.638278976","301","51814.0596054","58696.5204831","59463.7854337","60213.6067338","60979.8804875","61746.7676331","47879.8474683","48646.6378439","52580.6938503","53330.2007252","54097.3228398","54863.2314638","55630.2935998","56397.473529","57163.4940724","57930.2655892","60989.7315544"
"Blocked","Male","tile","17","M_tile.wav","None","729.476712178","301","51814.0596054","58696.5204831","59463.7854337","60213.6067338","60979.8804875","61746.7676331","62513.2809929","48646.6378439","52580.6938503","53330.2007252","54097.3228398","54863.2314638","55630.2935998","56397.473529","57163.4940724","57930.2655892","61756.6084974"
"Blocked","Male","tile","17","M_jaw.wav","space","444.767183159","301","51814.0596054","58696.5204831","59463.7854337","60213.6067338","60979.8804875","61746.7676331","62513.2809929","63280.5459439","52580.6938503","53330.2007252","54097.3228398","54863.2314638","55630.2935998","56397.473529","57163.4940724","57930.2655892","62523.3902163"
"Blocked","Male","done","22","M_gnash.wav","None","723.124825396","301","66396.8653926","58696.5204831","59463.7854337","60213.6067338","60979.8804875","61746.7676331","62513.2809929","63280.5459439","52580.6938503","53330.2007252","54097.3228398","54863.2314638","55630.2935998","56397.473529","57163.4940724","57930.2655892","63290.6879392"
"Blocked","Male","done","22","M_done.wav","None","720.120007172","301","66396.8653926","58696.5204831","59463.7854337","60213.6067338","60979.8804875","61746.7676331","62513.2809929","63280.5459439","67145.9406666","53330.2007252","54097.3228398","54863.2314638","55630.2935998","56397.473529","57163.4940724","57930.2655892","66406.9118546"
"Blocked","Male","done","22","M_bluff.wav","None","735.417094547","301","66396.8653926","58696.5204831","59463.7854337","60213.6067338","60979.8804875","61746.7676331","62513.2809929","63280.5459439","67145.9406666","67913.141001","54097.3228398","54863.2314638","55630.2935998","56397.473529","57163.4940724","57930.2655892","67155.4380436"
"Blocked","Male","done","22","M_done.wav","space","13.3264404722","301","66396.8653926","58696.5204831","59463.7854337","60213.6067338","60979.8804875","61746.7676331","62513.2809929","63280.5459439","67145.9406666","67913.141001","68679.3940403","54863.2314638","55630.2935998","56397.473529","57163.4940724","57930.2655892","67922.6887729"
"Blocked","Male","done","22","M_greet.wav","space","495.363385417","301","66396.8653926","58696.5204831","59463.7854337","60213.6067338","60979.8804875","61746.7676331","62513.2809929","63280.5459439","67145.9406666","67913.141001","68679.3940403","69446.0162278","55630.2935998","56397.473529","57163.4940724","57930.2655892","68688.6307872"
"Blocked","Male","done","22","M_lash.wav","None","726.591542363","301","66396.8653926","58696.5204831","59463.7854337","60213.6067338","60979.8804875","61746.7676331","62513.2809929","63280.5459439","67145.9406666","67913.141001","68679.3940403","69446.0162278","70213.5136737","56397.473529","57163.4940724","57930.2655892","69454.8420887"
"Blocked","Male","done","22","M_done.wav","None","722.029128578","301","66396.8653926","58696.5204831","59463.7854337","60213.6067338","60979.8804875","61746.7676331","62513.2809929","63280.5459439","67145.9406666","67913.141001","68679.3940403","69446.0162278","70213.5136737","70980.1439","57163.4940724","57930.2655892","70223.4785152"
"Blocked","Male","done","22","M_jaw.wav","space","529.45024753","301","66396.8653926","58696.5204831","59463.7854337","60213.6067338","60979.8804875","61746.7676331","62513.2809929","63280.5459439","67145.9406666","67913.141001","68679.3940403","69446.0162278","70213.5136737","70980.1439","71729.4791853","57930.2655892","70990.4587208"
"Blocked","Male","done","22","M_lash.wav","None","733.629167546","301","66396.8653926","58696.5204831","59463.7854337","60213.6067338","60979.8804875","61746.7676331","62513.2809929","63280.5459439","67145.9406666","67913.141001","68679.3940403","69446.0162278","70213.5136737","70980.1439","71729.4791853","72495.6867765","71739.1221812"
"Blocked","Male","done","22","M_dime.wav","None","732.474419288","301","66396.8653926","73262.580724","59463.7854337","60213.6067338","60979.8804875","61746.7676331","62513.2809929","63280.5459439","67145.9406666","67913.141001","68679.3940403","69446.0162278","70213.5136737","70980.1439","71729.4791853","72495.6867765","72504.7058687"
"Blocked","Male","done","22","M_lash.wav","None","729.37808698","301","66396.8653926","73262.580724","74029.2882426","60213.6067338","60979.8804875","61746.7676331","62513.2809929","63280.5459439","67145.9406666","67913.141001","68679.3940403","69446.0162278","70213.5136737","70980.1439","71729.4791853","72495.6867765","73271.7497633"
"Blocked","Male","done","22","M_reek.wav","None","726.823728997","301","66396.8653926","73262.580724","74029.2882426","74796.7176712","60979.8804875","61746.7676331","62513.2809929","63280.5459439","67145.9406666","67913.141001","68679.3940403","69446.0162278","70213.5136737","70980.1439","71729.4791853","72495.6867765","74038.4823242"
"Blocked","Male","done","22","M_done.wav","None","722.385909874","301","66396.8653926","73262.580724","74029.2882426","74796.7176712","75562.5953786","61746.7676331","62513.2809929","63280.5459439","67145.9406666","67913.141001","68679.3940403","69446.0162278","70213.5136737","70980.1439","71729.4791853","72495.6867765","74806.6651993"
"Blocked","Male","done","22","M_lash.wav","space","579.812408425","301","66396.8653926","73262.580724","74029.2882426","74796.7176712","75562.5953786","76312.4203887","62513.2809929","63280.5459439","67145.9406666","67913.141001","68679.3940403","69446.0162278","70213.5136737","70980.1439","71729.4791853","72495.6867765","75571.9758896"
"Blocked","Male","done","22","M_cad.wav","None","735.085664783","301","66396.8653926","73262.580724","74029.2882426","74796.7176712","75562.5953786","76312.4203887","77079.3192829","63280.5459439","67145.9406666","67913.141001","68679.3940403","69446.0162278","70213.5136737","70980.1439","71729.4791853","72495.6867765","76321.5504726"
"Blocked","Male","done","22","M_knife.wav","None","734.791644383","301","66396.8653926","73262.580724","74029.2882426","74796.7176712","75562.5953786","76312.4203887","77079.3192829","77845.8372802","67145.9406666","67913.141001","68679.3940403","69446.0162278","70213.5136737","70980.1439","71729.4791853","72495.6867765","77088.7879073"
"Blocked","Male","ball","3","M_greet.wav","None","731.467145029","301","80979.5608064","73262.580724","74029.2882426","74796.7176712","75562.5953786","76312.4203887","77079.3192829","77845.8372802","67145.9406666","67913.141001","68679.3940403","69446.0162278","70213.5136737","70980.1439","71729.4791853","72495.6867765","77855.9239344"
"Blocked","Male","ball","3","M_depth.wav","None","720.417428296","301","80979.5608064","73262.580724","74029.2882426","74796.7176712","75562.5953786","76312.4203887","77079.3192829","77845.8372802","81729.1613594","67913.141001","68679.3940403","69446.0162278","70213.5136737","70980.1439","71729.4791853","72495.6867765","80989.4254766"
"Blocked","Male","ball","3","M_cling.wav","None","734.637059737","301","80979.5608064","73262.580724","74029.2882426","74796.7176712","75562.5953786","76312.4203887","77079.3192829","77845.8372802","81729.1613594","82495.6747191","68679.3940403","69446.0162278","70213.5136737","70980.1439","71729.4791853","72495.6867765","81738.8841207"
"Blocked","Male","ball","3","M_ball.wav","None","735.28260598","301","80979.5608064","73262.580724","74029.2882426","74796.7176712","75562.5953786","76312.4203887","77079.3192829","77845.8372802","81729.1613594","82495.6747191","83262.5680482","69446.0162278","70213.5136737","70980.1439","71729.4791853","72495.6867765","82505.4117022"
"Blocked","Male","ball","3","M_lash.wav","space","479.027798399","301","80979.5608064","73262.580724","74029.2882426","74796.7176712","75562.5953786","76312.4203887","77079.3192829","77845.8372802","81729.1613594","82495.6747191","83262.5680482","84029.1757048","70213.5136737","70980.1439","71729.4791853","72495.6867765","83272.5248509"
"Blocked","Male","ball","3","M_reek.wav","None","731.983148959","301","80979.5608064","73262.580724","74029.2882426","74796.7176712","75562.5953786","76312.4203887","77079.3192829","77845.8372802","81729.1613594","82495.6747191","83262.5680482","84029.1757048","84795.877967","70980.1439","71729.4791853","72495.6867765","84039.1284884"
"Blocked","Male","ball","3","M_park.wav","None","729.220410809","301","80979.5608064","73262.580724","74029.2882426","74796.7176712","75562.5953786","76312.4203887","77079.3192829","77845.8372802","81729.1613594","82495.6747191","83262.5680482","84029.1757048","84795.877967","85562.6392807","71729.4791853","72495.6867765","84805.5450781"
"Blocked","Male","ball","3","M_ball.wav","None","726.740561891","301","80979.5608064","73262.580724","74029.2882426","74796.7176712","75562.5953786","76312.4203887","77079.3192829","77845.8372802","81729.1613594","82495.6747191","83262.5680482","84029.1757048","84795.877967","85562.6392807","86329.6500943","72495.6867765","85572.090901"
"Blocked","Male","ball","3","M_depth.wav","space","275.886760093","301","80979.5608064","73262.580724","74029.2882426","74796.7176712","75562.5953786","76312.4203887","77079.3192829","77845.8372802","81729.1613594","82495.6747191","83262.5680482","84029.1757048","84795.877967","85562.6392807","86329.6500943","87096.764789","86339.5747435"
"Blocked","Male","ball","3","M_romp.wav","None","719.177040271","301","80979.5608064","87845.2309989","74029.2882426","74796.7176712","75562.5953786","76312.4203887","77079.3192829","77845.8372802","81729.1613594","82495.6747191","83262.5680482","84029.1757048","84795.877967","85562.6392807","86329.6500943","87096.764789","87106.9692364"
"Blocked","Male","ball","3","M_bluff.wav","None","736.107160803","301","80979.5608064","87845.2309989","88612.51821","74796.7176712","75562.5953786","76312.4203887","77079.3192829","77845.8372802","81729.1613594","82495.6747191","83262.5680482","84029.1757048","84795.877967","85562.6392807","86329.6500943","87096.764789","87854.6362435"
"Blocked","Male","ball","3","M_ball.wav","None","731.465289835","301","80979.5608064","87845.2309989","88612.51821","89379.2532445","75562.5953786","76312.4203887","77079.3192829","77845.8372802","81729.1613594","82495.6747191","83262.5680482","84029.1757048","84795.877967","85562.6392807","86329.6500943","87096.764789","88622.8877543"
"Blocked","Male","ball","3","M_gnash.wav","space","362.483582925","301","80979.5608064","87845.2309989","88612.51821","89379.2532445","90145.8859434","76312.4203887","77079.3192829","77845.8372802","81729.1613594","82495.6747191","83262.5680482","84029.1757048","84795.877967","85562.6392807","86329.6500943","87096.764789","89388.8721252"
"Blocked","Male","ball","3","M_lash.wav","None","726.457362995","301","80979.5608064","87845.2309989","88612.51821","89379.2532445","90145.8859434","90912.8763522","77079.3192829","77845.8372802","81729.1613594","82495.6747191","83262.5680482","84029.1757048","84795.877967","85562.6392807","86329.6500943","87096.764789","90155.8680986"
"Blocked","Male","ball","3","M_ball.wav","None","723.348973319","301","80979.5608064","87845.2309989","88612.51821","89379.2532445","90145.8859434","90912.8763522","91679.702282","77845.8372802","81729.1613594","82495.6747191","83262.5680482","84029.1757048","84795.877967","85562.6392807","86329.6500943","87096.764789","90922.8816945"
"Blocked","Male","ball","3","M_bluff.wav","space","557.323111687","301","80979.5608064","87845.2309989","88612.51821","89379.2532445","90145.8859434","90912.8763522","91679.702282","92428.9043159","81729.1613594","82495.6747191","83262.5680482","84029.1757048","84795.877967","85562.6392807","86329.6500943","87096.764789","91689.9515595"
"Blocked","Male","done","24","M_knife.wav","None","735.168212559","301","95562.5585876","87845.2309989","88612.51821","89379.2532445","90145.8859434","90912.8763522","91679.702282","92428.9043159","81729.1613594","82495.6747191","83262.5680482","84029.1757048","84795.877967","85562.6392807","86329.6500943","87096.764789","92438.7117899"
"Blocked","Male","done","24","M_done.wav","None","727.631279733","301","95562.5585876","87845.2309989","88612.51821","89379.2532445","90145.8859434","90912.8763522","91679.702282","92428.9043159","96329.2812551","82495.6747191","83262.5680482","84029.1757048","84795.877967","85562.6392807","86329.6500943","87096.764789","95567.0761717"
"Blocked","Male","done","24","M_knife.wav","space","475.775025785","301","95562.5585876","87845.2309989","88612.51821","89379.2532445","90145.8859434","90912.8763522","91679.702282","92428.9043159","96329.2812551","97078.7967867","83262.5680482","84029.1757048","84795.877967","85562.6392807","86329.6500943","87096.764789","96339.3771844"
"Blocked","Male","done","24","M_done.wav","None","734.211333562","301","95562.5585876","87845.2309989","88612.51821","89379.2532445","90145.8859434","90912.8763522","91679.702282","92428.9043159","96329.2812551","97078.7967867","97845.4835904","84029.1757048","84795.877967","85562.6392807","86329.6500943","87096.764789","97088.3590891"
"Blocked","Male","done","24","M_cad.wav","space","344.481572509","301","95562.5585876","87845.2309989","88612.51821","89379.2532445","90145.8859434","90912.8763522","91679.702282","92428.9043159","96329.2812551","97078.7967867","97845.4835904","98612.1070147","84795.877967","85562.6392807","86329.6500943","87096.764789","97854.6260409"
"Blocked","Male","done","24","M_done.wav","None","727.573155891","301","95562.5585876","87845.2309989","88612.51821","89379.2532445","90145.8859434","90912.8763522","91679.702282","92428.9043159","96329.2812551","97078.7967867","97845.4835904","98612.1070147","99379.1020606","85562.6392807","86329.6500943","87096.764789","98622.2926029"
"Blocked","Male","done","24","M_priest.wav","space","698.800607584","301","95562.5585876","87845.2309989","88612.51821","89379.2532445","90145.8859434","90912.8763522","91679.702282","92428.9043159","96329.2812551","97078.7967867","97845.4835904","98612.1070147","99379.1020606","100145.833385","86329.6500943","87096.764789","99388.2692447"
"Blocked","Male","done","24","M_priest.wav","None","722.436923068","301","95562.5585876","87845.2309989","88612.51821","89379.2532445","90145.8859434","90912.8763522","91679.702282","92428.9043159","96329.2812551","97078.7967867","97845.4835904","98612.1070147","99379.1020606","100145.833385","100912.766906","87096.764789","100155.799154"
"Blocked","Male","done","24","M_park.wav","None","719.254023861","301","95562.5585876","87845.2309989","88612.51821","89379.2532445","90145.8859434","90912.8763522","91679.702282","92428.9043159","96329.2812551","97078.7967867","97845.4835904","98612.1070147","99379.1020606","100145.833385","100912.766906","101661.635655","100923.044317"
"Blocked","Male","done","24","M_done.wav","None","735.116891097","301","95562.5585876","102428.301745","88612.51821","89379.2532445","90145.8859434","90912.8763522","91679.702282","92428.9043159","96329.2812551","97078.7967867","97845.4835904","98612.1070147","99379.1020606","100145.833385","100912.766906","101661.635655","101671.090676"
"Blocked","Male","done","24","M_romp.wav","space","649.464271031","301","95562.5585876","102428.301745","103195.883285","89379.2532445","90145.8859434","90912.8763522","91679.702282","92428.9043159","96329.2812551","97078.7967867","97845.4835904","98612.1070147","99379.1020606","100145.833385","100912.766906","101661.635655","102437.456871"
"Blocked","Male","done","24","M_knife.wav","None","727.997026872","301","95562.5585876","102428.301745","103195.883285","103961.377622","90145.8859434","90912.8763522","91679.702282","92428.9043159","96329.2812551","97078.7967867","97845.4835904","98612.1070147","99379.1020606","100145.833385","100912.766906","101661.635655","103205.667262"
"Blocked","Male","done","24","M_romp.wav","None","730.315797962","301","95562.5585876","102428.301745","103195.883285","103961.377622","104728.328457","90912.8763522","91679.702282","92428.9043159","96329.2812551","97078.7967867","97845.4835904","98612.1070147","99379.1020606","100145.833385","100912.766906","101661.635655","103970.669711"
"Blocked","Male","done","24","M_park.wav","None","728.384416085","301","95562.5585876","102428.301745","103195.883285","103961.377622","104728.328457","105495.355038","91679.702282","92428.9043159","96329.2812551","97078.7967867","97845.4835904","98612.1070147","99379.1020606","100145.833385","100912.766906","101661.635655","104737.229137"
"Blocked","Male","done","24","M_bluff.wav","None","724.964383524","301","95562.5585876","102428.301745","103195.883285","103961.377622","104728.328457","105495.355038","106262.231053","92428.9043159","96329.2812551","97078.7967867","97845.4835904","98612.1070147","99379.1020606","100145.833385","100912.766906","101661.635655","105504.725965"
"Blocked","Male","done","24","M_bluff.wav","None","721.736963838","301","95562.5585876","102428.301745","103195.883285","103961.377622","104728.328457","105495.355038","106262.231053","107028.315286","96329.2812551","97078.7967867","97845.4835904","98612.1070147","99379.1020606","100145.833385","100912.766906","101661.635655","106272.008847"
"Blocked","Male","cave","7","M_dime.wav","None","720.371980686","301","110145.657158","102428.301745","103195.883285","103961.377622","104728.328457","105495.355038","106262.231053","107028.315286","96329.2812551","97078.7967867","97845.4835904","98612.1070147","99379.1020606","100145.833385","100912.766906","101661.635655","107037.381062"
"Blocked","Male","cave","7","M_greet.wav","None","719.826295972","301","110145.657158","102428.301745","103195.883285","103961.377622","104728.328457","105495.355038","106262.231053","107028.315286","110894.852081","97078.7967867","97845.4835904","98612.1070147","99379.1020606","100145.833385","100912.766906","101661.635655","110155.798535"
"Blocked","Male","cave","7","M_jaw.wav","None","734.928915743","301","110145.657158","102428.301745","103195.883285","103961.377622","104728.328457","105495.355038","106262.231053","107028.315286","110894.852081","111661.82363","97845.4835904","98612.1070147","99379.1020606","100145.833385","100912.766906","101661.635655","110904.768073"
"Blocked","Male","cave","7","M_reek.wav","None","731.896581594","301","110145.657158","102428.301745","103195.883285","103961.377622","104728.328457","105495.355038","106262.231053","107028.315286","110894.852081","111661.82363","112428.424485","98612.1070147","99379.1020606","100145.833385","100912.766906","101661.635655","111671.804857"
"Blocked","Male","cave","7","M_cave.wav","None","729.564516339","301","110145.657158","102428.301745","103195.883285","103961.377622","104728.328457","105495.355038","106262.231053","107028.315286","110894.852081","111661.82363","112428.424485","113195.163847","99379.1020606","100145.833385","100912.766906","101661.635655","112437.887853"
"Blocked","Male","cave","7","M_jolt.wav","space","385.894822888","301","110145.657158","102428.301745","103195.883285","103961.377622","104728.328457","105495.355038","106262.231053","107028.315286","110894.852081","111661.82363","112428.424485","113195.163847","113961.784798","100145.833385","100912.766906","101661.635655","113204.783347"
"Blocked","Male","cave","7","M_cave.wav","None","726.468184032","301","110145.657158","102428.301745","103195.883285","103961.377622","104728.328457","105495.355038","106262.231053","107028.315286","110894.852081","111661.82363","112428.424485","113195.163847","113961.784798","114728.321037","100912.766906","101661.635655","113971.78674"
"Blocked","Male","cave","7","M_greet.wav","space","604.459089227","301","110145.657158","102428.301745","103195.883285","103961.377622","104728.328457","105495.355038","106262.231053","107028.315286","110894.852081","111661.82363","112428.424485","113195.163847","113961.784798","114728.321037","115495.36153","101661.635655","114738.136858"
"Blocked","Male","cave","7","M_greet.wav","None","720.565520693","301","110145.657158","102428.301745","103195.883285","103961.377622","104728.328457","105495.355038","106262.231053","107028.315286","110894.852081","111661.82363","112428.424485","113195.163847","113961.784798","114728.321037","115495.36153","116244.769162","115505.418195"
"Blocked","Male","cave","7","M_romp.wav","None","735.576934647","301","110145.657158","117011.674858","103195.883285","103961.377622","104728.328457","105495.355038","106262.231053","107028.315286","110894.852081","111661.82363","112428.424485","113195.163847","113961.784798","114728.321037","115495.36153","116244.769162","116254.477392"
"Blocked","Male","cave","7","M_jolt.wav","None","732.446594164","301","110145.657158","117011.674858","117778.167194","103961.377622","104728.328457","105495.355038","106262.231053","107028.315286","110894.852081","111661.82363","112428.424485","113195.163847","113961.784798","114728.321037","115495.36153","116244.769162","117021.749763"
"Blocked","Male","cave","7","M_cave.wav","None","730.721428525","301","110145.657158","117011.674858","117778.167194","118544.892026","104728.328457","105495.355038","106262.231053","107028.315286","110894.852081","111661.82363","112428.424485","113195.163847","113961.784798","114728.321037","115495.36153","116244.769162","117787.728569"
"Blocked","Male","cave","7","M_gnash.wav","space","420.479138382","301","110145.657158","117011.674858","117778.167194","118544.892026","119312.124204","105495.355038","106262.231053","107028.315286","110894.852081","111661.82363","112428.424485","113195.163847","113961.784798","114728.321037","115495.36153","116244.769162","118554.027983"
"Blocked","Male","cave","7","M_cave.wav","None","723.476659972","301","110145.657158","117011.674858","117778.167194","118544.892026","119312.124204","120078.458555","106262.231053","107028.315286","110894.852081","111661.82363","112428.424485","113195.163847","113961.784798","114728.321037","115495.36153","116244.769162","119322.011753"
"Blocked","Male","cave","7","M_jolt.wav","space","659.549997654","301","110145.657158","117011.674858","117778.167194","118544.892026","119312.124204","120078.458555","120828.515443","107028.315286","110894.852081","111661.82363","112428.424485","113195.163847","113961.784798","114728.321037","115495.36153","116244.769162","120082.879679"
"Blocked","Male","cave","7","M_romp.wav","None","734.697657172","301","110145.657158","117011.674858","117778.167194","118544.892026","119312.124204","120078.458555","120828.515443","121594.860923","110894.852081","111661.82363","112428.424485","113195.163847","113961.784798","114728.321037","115495.36153","116244.769162","120838.223055"
"Blocked","Male","done","20","M_cad.wav","None","732.989186421","301","124728.372977","117011.674858","117778.167194","118544.892026","119312.124204","120078.458555","120828.515443","121594.860923","110894.852081","111661.82363","112428.424485","113195.163847","113961.784798","114728.321037","115495.36153","116244.769162","121603.894237"
"Blocked","Male","done","20","M_cling.wav","None","720.165146049","301","124728.372977","117011.674858","117778.167194","118544.892026","119312.124204","120078.458555","120828.515443","121594.860923","125477.723412","111661.82363","112428.424485","113195.163847","113961.784798","114728.321037","115495.36153","116244.769162","124738.526412"
"Blocked","Male","done","20","M_gnash.wav","None","735.82890816","301","124728.372977","117011.674858","117778.167194","118544.892026","119312.124204","120078.458555","120828.515443","121594.860923","125477.723412","126244.749993","112428.424485","113195.163847","113961.784798","114728.321037","115495.36153","116244.769162","125486.981183"
"Blocked","Male","done","20","M_reek.wav","None","732.568097766","301","124728.372977","117011.674858","117778.167194","118544.892026","119312.124204","120078.458555","120828.515443","121594.860923","125477.723412","126244.749993","127010.952638","113195.163847","113961.784798","114728.321037","115495.36153","116244.769162","126254.475228"
"Blocked","Male","done","20","M_lash.wav","None","731.473328546","301","124728.372977","117011.674858","117778.167194","118544.892026","119312.124204","120078.458555","120828.515443","121594.860923","125477.723412","126244.749993","127010.952638","127777.84102","113961.784798","114728.321037","115495.36153","116244.769162","127019.817145"
"Blocked","Male","done","20","M_cling.wav","None","727.972602937","301","124728.372977","117011.674858","117778.167194","118544.892026","119312.124204","120078.458555","120828.515443","121594.860923","125477.723412","126244.749993","127010.952638","127777.84102","128544.737132","114728.321037","115495.36153","116244.769162","127787.731042"
"Blocked","Male","done","20","M_park.wav","None","725.548404735","301","124728.372977","117011.674858","117778.167194","118544.892026","119312.124204","120078.458555","120828.515443","121594.860923","125477.723412","126244.749993","127010.952638","127777.84102","128544.737132","129311.58254","115495.36153","116244.769162","128554.403315"
"Blocked","Male","done","20","M_done.wav","None","722.117551137","301","124728.372977","117011.674858","117778.167194","118544.892026","119312.124204","120078.458555","120828.515443","121594.860923","125477.723412","126244.749993","127010.952638","127777.84102","128544.737132","129311.58254","130078.124652","116244.769162","129322.039269"
"Blocked","Male","done","20","M_greet.wav","space","422.048173379","301","124728.372977","117011.674858","117778.167194","118544.892026","119312.124204","120078.458555","120828.515443","121594.860923","125477.723412","126244.749993","127010.952638","127777.84102","128544.737132","129311.58254","130078.124652","130827.39965","130088.099387"
"Blocked","Male","done","20","M_done.wav","None","735.257253516","301","124728.372977","131594.249077","117778.167194","118544.892026","119312.124204","120078.458555","120828.515443","121594.860923","125477.723412","126244.749993","127010.952638","127777.84102","128544.737132","129311.58254","130078.124652","130827.39965","130836.71338"
"Blocked","Male","done","20","M_lash.wav","space","498.511039652","301","124728.372977","131594.249077","132361.20022","118544.892026","119312.124204","120078.458555","120828.515443","121594.860923","125477.723412","126244.749993","127010.952638","127777.84102","128544.737132","129311.58254","130078.124652","130827.39965","131603.583522"
"Blocked","Male","done","20","M_dime.wav","None","728.798085358","301","124728.372977","131594.249077","132361.20022","133127.93711","119312.124204","120078.458555","120828.515443","121594.860923","125477.723412","126244.749993","127010.952638","127777.84102","128544.737132","129311.58254","130078.124652","130827.39965","132370.949261"
"Blocked","Male","done","20","M_done.wav","None","726.201061159","301","124728.372977","131594.249077","132361.20022","133127.93711","133894.093688","120078.458555","120828.515443","121594.860923","125477.723412","126244.749993","127010.952638","127777.84102","128544.737132","129311.58254","130078.124652","130827.39965","133137.895768"
"Blocked","Male","done","20","M_jolt.wav","space","614.501841366","301","124728.372977","131594.249077","132361.20022","133127.93711","133894.093688","134661.50364","120828.515443","121594.860923","125477.723412","126244.749993","127010.952638","127777.84102","128544.737132","129311.58254","130078.124652","130827.39965","133903.527067"
"Blocked","Male","done","20","M_done.wav","None","719.852266368","301","124728.372977","131594.249077","132361.20022","133127.93711","133894.093688","134661.50364","135410.882827","121594.860923","125477.723412","126244.749993","127010.952638","127777.84102","128544.737132","129311.58254","130078.124652","130827.39965","134671.943984"
"Blocked","Male","done","20","M_romp.wav","space","433.536911383","301","124728.372977","131594.249077","132361.20022","133127.93711","133894.093688","134661.50364","135410.882827","136177.204502","125477.723412","126244.749993","127010.952638","127777.84102","128544.737132","129311.58254","130078.124652","130827.39965","135420.453477"
"Blocked","Male","ball","5","M_knife.wav","None","734.616036527","301","139311.392091","131594.249077","132361.20022","133127.93711","133894.093688","134661.50364","135410.882827","136177.204502","125477.723412","126244.749993","127010.952638","127777.84102","128544.737132","129311.58254","130078.124652","130827.39965","136186.230086"
"Blocked","Male","ball","5","M_ball.wav","None","719.25927978","301","139311.392091","131594.249077","132361.20022","133127.93711","133894.093688","134661.50364","135410.882827","136177.204502","140060.779008","126244.749993","127010.952638","127777.84102","128544.737132","129311.58254","130078.124652","130827.39965","139321.804919"
"Blocked","Male","ball","5","M_bluff.wav","space","351.524143945","301","139311.392091","131594.249077","132361.20022","133127.93711","133894.093688","134661.50364","135410.882827","136177.204502","140060.779008","140827.601847","127010.952638","127777.84102","128544.737132","129311.58254","130078.124652","130827.39965","140070.328635"
"Blocked","Male","ball","5","M_gnash.wav","None","731.353680138","301","139311.392091","131594.249077","132361.20022","133127.93711","133894.093688","134661.50364","135410.882827","136177.204502","140060.779008","140827.601847","141594.249077","127777.84102","128544.737132","129311.58254","130078.124652","130827.39965","140837.119938"
"Blocked","Male","ball","5","M_cad.wav","None","728.661741596","301","139311.392091","131594.249077","132361.20022","133127.93711","133894.093688","134661.50364","135410.882827","136177.204502","140060.779008","140827.601847","141594.249077","142360.915476","128544.737132","129311.58254","130078.124652","130827.39965","141604.198769"
"Blocked","Male","ball","5","M_ball.wav","None","726.171690505","301","139311.392091","131594.249077","132361.20022","133127.93711","133894.093688","134661.50364","135410.882827","136177.204502","140060.779008","140827.601847","141594.249077","142360.915476","143127.489433","129311.58254","130078.124652","130827.39965","142371.001821"
"Blocked","Male","ball","5","M_dime.wav","space","332.592769526","301","139311.392091","131594.249077","132361.20022","133127.93711","133894.093688","134661.50364","135410.882827","136177.204502","140060.779008","140827.601847","141594.249077","142360.915476","143127.489433","143894.644319","130078.124652","130827.39965","143137.173239"
"Blocked","Male","ball","5","M_depth.wav","None","721.200863365","301","139311.392091","131594.249077","132361.20022","133127.93711","133894.093688","134661.50364","135410.882827","136177.204502","140060.779008","140827.601847","141594.249077","142360.915476","143127.489433","143894.644319","144661.251357","130827.39965","143904.195182"
"Blocked","Male","ball","5","M_ball.wav","None","717.893059831","301","139311.392091","131594.249077","132361.20022","133127.93711","133894.093688","134661.50364","135410.882827","136177.204502","140060.779008","140827.601847","141594.249077","142360.915476","143127.489433","143894.644319","144661.251357","145410.727624","144671.703449"
"Blocked","Male","ball","5","M_lash.wav","space","512.799615972","301","139311.392091","146177.477189","132361.20022","133127.93711","133894.093688","134661.50364","135410.882827","136177.204502","140060.779008","140827.601847","141594.249077","142360.915476","143127.489433","143894.644319","144661.251357","145410.727624","145420.871166"
"Blocked","Male","ball","5","M_lash.wav","None","730.918369256","301","139311.392091","146177.477189","146944.066914","133127.93711","133894.093688","134661.50364","135410.882827","136177.204502","140060.779008","140827.601847","141594.249077","142360.915476","143127.489433","143894.644319","144661.251357","145410.727624","146186.877487"
"Blocked","Male","ball","5","M_lash.wav","None","728.942776565","301","139311.392091","146177.477189","146944.066914","147710.324282","133894.093688","134661.50364","135410.882827","136177.204502","140060.779008","140827.601847","141594.249077","142360.915476","143127.489433","143894.644319","144661.251357","145410.727624","146953.21122"
"Blocked","Male","ball","5","M_ball.wav","None","726.718301885","301","139311.392091","146177.477189","146944.066914","147710.324282","148478.033509","134661.50364","135410.882827","136177.204502","140060.779008","140827.601847","141594.249077","142360.915476","143127.489433","143894.644319","144661.251357","145410.727624","147719.631829"
"Blocked","Male","ball","5","M_gnash.wav","space","509.794798214","301","139311.392091","146177.477189","146944.066914","147710.324282","148478.033509","149244.424747","135410.882827","136177.204502","140060.779008","140827.601847","141594.249077","142360.915476","143127.489433","143894.644319","144661.251357","145410.727624","148487.804192"
"Blocked","Male","ball","5","M_jolt.wav","None","719.207648188","301","139311.392091","146177.477189","146944.066914","147710.324282","148478.033509","149244.424747","149993.595554","136177.204502","140060.779008","140827.601847","141594.249077","142360.915476","143127.489433","143894.644319","144661.251357","145410.727624","149255.090784"
"Blocked","Male","ball","5","M_gnash.wav","None","735.599813517","301","139311.392091","146177.477189","146944.066914","147710.324282","148478.033509","149244.424747","149993.595554","150760.647487","140060.779008","140827.601847","141594.249077","142360.915476","143127.489433","143894.644319","144661.251357","145410.727624","150002.963389"
"Blocked","Male","ball","6","M_romp.wav","None","732.444738969","301","153894.241471","146177.477189","146944.066914","147710.324282","148478.033509","149244.424747","149993.595554","150760.647487","140060.779008","140827.601847","141594.249077","142360.915476","143127.489433","143894.644319","144661.251357","145410.727624","150770.559461"
"Blocked","Male","ball","6","M_greet.wav","None","719.737564214","301","153894.241471","146177.477189","146944.066914","147710.324282","148478.033509","149244.424747","149993.595554","150760.647487","154643.703517","140827.601847","141594.249077","142360.915476","143127.489433","143894.644319","144661.251357","145410.727624","153904.647807"
"Blocked","Male","ball","6","M_cad.wav","None","735.35093246","301","153894.241471","146177.477189","146944.066914","147710.324282","148478.033509","149244.424747","149993.595554","150760.647487","154643.703517","155410.516771","141594.249077","142360.915476","143127.489433","143894.644319","144661.251357","145410.727624","154653.467706"
"Blocked","Male","ball","6","M_priest.wav","None","732.620965689","301","153894.241471","146177.477189","146944.066914","147710.324282","148478.033509","149244.424747","149993.595554","150760.647487","154643.703517","155410.516771","156177.084544","142360.915476","143127.489433","143894.644319","144661.251357","145410.727624","155420.557358"
"Blocked","Male","ball","6","M_ball.wav","None","730.806759093","301","153894.241471","146177.477189","146944.066914","147710.324282","148478.033509","149244.424747","149993.595554","150760.647487","154643.703517","155410.516771","156177.084544","156943.896253","143127.489433","143894.644319","144661.251357","145410.727624","156186.714864"
"Blocked","Male","ball","6","M_bluff.wav","space","388.015416451","301","153894.241471","146177.477189","146944.066914","147710.324282","148478.033509","149244.424747","149993.595554","150760.647487","154643.703517","155410.516771","156177.084544","156943.896253","157710.459389","143894.644319","144661.251357","145410.727624","156953.3117"
"Blocked","Male","ball","6","M_depth.wav","None","725.900858175","301","153894.241471","146177.477189","146944.066914","147710.324282","148478.033509","149244.424747","149993.595554","150760.647487","154643.703517","155410.516771","156177.084544","156943.896253","157710.459389","158477.503902","144661.251357","145410.727624","157719.897405"
"Blocked","Male","ball","6","M_ball.wav","None","722.631391138","301","153894.241471","146177.477189","146944.066914","147710.324282","148478.033509","149244.424747","149993.595554","150760.647487","154643.703517","155410.516771","156177.084544","156943.896253","157710.459389","158477.503902","159243.387174","145410.727624","158487.775748"
"Blocked","Male","ball","6","M_cling.wav","space","472.528127953","301","153894.241471","146177.477189","146944.066914","147710.324282","148478.033509","149244.424747","149993.595554","150760.647487","154643.703517","155410.516771","156177.084544","156943.896253","157710.459389","158477.503902","159243.387174","159993.366769","159252.742643"
"Blocked","Male","ball","6","M_dime.wav","None","735.511081759","301","153894.241471","160760.309875","146944.066914","147710.324282","148478.033509","149244.424747","149993.595554","150760.647487","154643.703517","155410.516771","156177.084544","156943.896253","157710.459389","158477.503902","159243.387174","159993.366769","160002.81437"
"Blocked","Male","ball","6","M_ball.wav","None","732.240996324","301","153894.241471","160760.309875","161526.80252","147710.324282","148478.033509","149244.424747","149993.595554","150760.647487","154643.703517","155410.516771","156177.084544","156943.896253","157710.459389","158477.503902","159243.387174","159993.366769","160769.9977"
"Blocked","Male","ball","6","M_depth.wav","space","684.886745177","301","153894.241471","160760.309875","161526.80252","162293.653184","148478.033509","149244.424747","149993.595554","150760.647487","154643.703517","155410.516771","156177.084544","156943.896253","157710.459389","158477.503902","159243.387174","159993.366769","161536.293713"
"Blocked","Male","ball","6","M_lash.wav","None","727.875832934","301","153894.241471","160760.309875","161526.80252","162293.653184","163060.321437","149244.424747","149993.595554","150760.647487","154643.703517","155410.516771","156177.084544","156943.896253","157710.459389","158477.503902","159243.387174","159993.366769","162303.284122"
"Blocked","Male","ball","6","M_knife.wav","None","724.437868223","301","153894.241471","160760.309875","161526.80252","162293.653184","163060.321437","163827.619469","149993.595554","150760.647487","154643.703517","155410.516771","156177.084544","156943.896253","157710.459389","158477.503902","159243.387174","159993.366769","163071.126601"
"Blocked","Male","ball","6","M_ball.wav","None","722.18495002","301","153894.241471","160760.309875","161526.80252","162293.653184","163060.321437","163827.619469","164593.930632","150760.647487","154643.703517","155410.516771","156177.084544","156943.896253","157710.459389","158477.503902","159243.387174","159993.366769","163837.724055"
"Blocked","Male","ball","6","M_romp.wav","space","448.853475973","301","153894.241471","160760.309875","161526.80252","162293.653184","163060.321437","163827.619469","164593.930632","165343.219233","154643.703517","155410.516771","156177.084544","156943.896253","157710.459389","158477.503902","159243.387174","159993.366769","164604.241743"
"Blocked","Male","done","23","M_gnash.wav","None","734.394052532","301","168477.115585","160760.309875","161526.80252","162293.653184","163060.321437","163827.619469","164593.930632","165343.219233","154643.703517","155410.516771","156177.084544","156943.896253","157710.459389","158477.503902","159243.387174","159993.366769","165353.094106"
"Blocked","Male","done","23","M_jaw.wav","None","720.181531738","301","168477.115585","160760.309875","161526.80252","162293.653184","163060.321437","163827.619469","164593.930632","165343.219233","169226.44747","155410.516771","156177.084544","156943.896253","157710.459389","158477.503902","159243.387174","159993.366769","168486.945937"
"Blocked","Male","done","23","M_gnash.wav","None","735.310121905","301","168477.115585","160760.309875","161526.80252","162293.653184","163060.321437","163827.619469","164593.930632","165343.219233","169226.44747","169993.417163","156177.084544","156943.896253","157710.459389","158477.503902","159243.387174","159993.366769","169236.064804"
"Blocked","Male","done","23","M_done.wav","None","732.681563124","301","168477.115585","160760.309875","161526.80252","162293.653184","163060.321437","163827.619469","164593.930632","165343.219233","169226.44747","169993.417163","170760.077379","156943.896253","157710.459389","158477.503902","159243.387174","159993.366769","170002.991524"
"Blocked","Male","done","23","M_romp.wav","space","722.750421148","301","168477.115585","160760.309875","161526.80252","162293.653184","163060.321437","163827.619469","164593.930632","165343.219233","169226.44747","169993.417163","170760.077379","171526.758618","157710.459389","158477.503902","159243.387174","159993.366769","170770.175472"
"Blocked","Male","done","23","M_cad.wav","None","726.676564198","301","168477.115585","160760.309875","161526.80252","162293.653184","163060.321437","163827.619469","164593.930632","165343.219233","169226.44747","169993.417163","170760.077379","171526.758618","172293.321754","158477.503902","159243.387174","159993.366769","171537.381371"
"Blocked","Male","done","23","M_jolt.wav","None","725.521815941","301","168477.115585","160760.309875","161526.80252","162293.653184","163060.321437","163827.619469","164593.930632","165343.219233","169226.44747","169993.417163","170760.077379","171526.758618","172293.321754","173060.235488","159243.387174","159993.366769","172303.009579"
"Blocked","Male","done","23","M_done.wav","None","722.504013218","301","168477.115585","160760.309875","161526.80252","162293.653184","163060.321437","163827.619469","164593.930632","165343.219233","169226.44747","169993.417163","170760.077379","171526.758618","172293.321754","173060.235488","173826.886738","159993.366769","173070.351513"
"Blocked","Male","done","23","M_jaw.wav","space","527.840092313","301","168477.115585","160760.309875","161526.80252","162293.653184","163060.321437","163827.619469","164593.930632","165343.219233","169226.44747","169993.417163","170760.077379","171526.758618","172293.321754","173060.235488","173826.886738","174576.122471","173837.016057"
"Blocked","Male","done","23","M_done.wav","None","735.961232334","301","168477.115585","175342.797526","161526.80252","162293.653184","163060.321437","163827.619469","164593.930632","165343.219233","169226.44747","169993.417163","170760.077379","171526.758618","172293.321754","173060.235488","173826.886738","174576.122471","174585.28038"
"Blocked","Male","done","23","M_cling.wav","None","733.824562281","301","168477.115585","175342.797526","176109.895526","162293.653184","163060.321437","163827.619469","164593.930632","165343.219233","169226.44747","169993.417163","170760.077379","171526.758618","172293.321754","173060.235488","173826.886738","174576.122471","175351.88309"
"Blocked","Male","done","23","M_jaw.wav","space","5.20641403273","301","168477.115585","175342.797526","176109.895526","176876.426817","163060.321437","163827.619469","164593.930632","165343.219233","169226.44747","169993.417163","170760.077379","171526.758618","172293.321754","173060.235488","173826.886738","174576.122471","176119.594172"
"Blocked","Male","done","23","M_done.wav","None","727.378687821","301","168477.115585","175342.797526","176109.895526","176876.426817","177643.163088","163827.619469","164593.930632","165343.219233","169226.44747","169993.417163","170760.077379","171526.758618","172293.321754","173060.235488","173826.886738","174576.122471","176886.116188"
"Blocked","Male","done","23","M_dime.wav","None","725.282209925","301","168477.115585","175342.797526","176109.895526","176876.426817","177643.163088","178410.078987","164593.930632","165343.219233","169226.44747","169993.417163","170760.077379","171526.758618","172293.321754","173060.235488","173826.886738","174576.122471","177652.88183"
"Blocked","Male","done","23","M_park.wav","space","128.452804405","301","168477.115585","175342.797526","176109.895526","176876.426817","177643.163088","178410.078987","179176.648615","165343.219233","169226.44747","169993.417163","170760.077379","171526.758618","172293.321754","173060.235488","173826.886738","174576.122471","178420.252517"
"Blocked","Male","done","23","M_bluff.wav","None","719.185387716","301","168477.115585","175342.797526","176109.895526","176876.426817","177643.163088","178410.078987","179176.648615","179926.21887","169226.44747","169993.417163","170760.077379","171526.758618","172293.321754","173060.235488","173826.886738","174576.122471","179186.616548"
"Blocked","Male","ball","1","M_gnash.wav","None","734.648808371","301","183060.133462","175342.797526","176109.895526","176876.426817","177643.163088","178410.078987","179176.648615","179926.21887","169226.44747","169993.417163","170760.077379","171526.758618","172293.321754","173060.235488","173826.886738","174576.122471","179935.704807"
"Blocked","Male","ball","1","M_lash.wav","None","719.7177778","301","183060.133462","175342.797526","176109.895526","176876.426817","177643.163088","178410.078987","179176.648615","179926.21887","183809.529345","169993.417163","170760.077379","171526.758618","172293.321754","173060.235488","173826.886738","174576.122471","183069.97309"
"Blocked","Male","ball","1","M_dime.wav","None","735.129566398","301","183060.133462","175342.797526","176109.895526","176876.426817","177643.163088","178410.078987","179176.648615","179926.21887","183809.529345","184576.143804","170760.077379","171526.758618","172293.321754","173060.235488","173826.886738","174576.122471","183819.193365"
"Blocked","Male","ball","1","M_romp.wav","None","732.710625045","301","183060.133462","175342.797526","176109.895526","176876.426817","177643.163088","178410.078987","179176.648615","179926.21887","183809.529345","184576.143804","185343.010235","171526.758618","172293.321754","173060.235488","173826.886738","174576.122471","184586.080201"
"Blocked","Male","ball","1","M_ball.wav","None","730.569317006","301","183060.133462","175342.797526","176109.895526","176876.426817","177643.163088","178410.078987","179176.648615","179926.21887","183809.529345","184576.143804","185343.010235","186109.601814","172293.321754","173060.235488","173826.886738","174576.122471","185352.649211"
"Blocked","Male","ball","1","M_priest.wav","space","379.719162825","301","183060.133462","175342.797526","176109.895526","176876.426817","177643.163088","178410.078987","179176.648615","179926.21887","183809.529345","184576.143804","185343.010235","186109.601814","186876.06107","173060.235488","173826.886738","174576.122471","186119.790185"
"Blocked","Male","ball","1","M_ball.wav","None","725.718138739","301","183060.133462","175342.797526","176109.895526","176876.426817","177643.163088","178410.078987","179176.648615","179926.21887","183809.529345","184576.143804","185343.010235","186109.601814","186876.06107","187642.36945","173826.886738","174576.122471","186885.561229"
"Blocked","Male","ball","1","M_park.wav","space","480.629296042","301","183060.133462","175342.797526","176109.895526","176876.426817","177643.163088","178410.078987","179176.648615","179926.21887","183809.529345","184576.143804","185343.010235","186109.601814","186876.06107","187642.36945","188409.904615","174576.122471","187651.792936"
"Blocked","Male","ball","1","M_dime.wav","None","719.853812363","301","183060.133462","175342.797526","176109.895526","176876.426817","177643.163088","178410.078987","179176.648615","179926.21887","183809.529345","184576.143804","185343.010235","186109.601814","186876.06107","187642.36945","188409.904615","189159.402524","188420.348669"
"Blocked","Male","ball","1","M_ball.wav","None","735.304556787","301","183060.133462","189926.245149","176109.895526","176876.426817","177643.163088","178410.078987","179176.648615","179926.21887","183809.529345","184576.143804","185343.010235","186109.601814","186876.06107","187642.36945","188409.904615","189159.402524","189169.093132"
"Blocked","Male","ball","1","M_reek.wav","space","364.339527674","301","183060.133462","189926.245149","190692.297847","176876.426817","177643.163088","178410.078987","179176.648615","179926.21887","183809.529345","184576.143804","185343.010235","186109.601814","186876.06107","187642.36945","188409.904615","189159.402524","189936.030054"
"Blocked","Male","ball","1","M_gnash.wav","None","730.846023653","301","183060.133462","189926.245149","190692.297847","191459.328447","177643.163088","178410.078987","179176.648615","179926.21887","183809.529345","184576.143804","185343.010235","186109.601814","186876.06107","187642.36945","188409.904615","189159.402524","190701.691033"
"Blocked","Male","ball","1","M_park.wav","None","727.841514628","301","183060.133462","189926.245149","190692.297847","191459.328447","192225.713192","178410.078987","179176.648615","179926.21887","183809.529345","184576.143804","185343.010235","186109.601814","186876.06107","187642.36945","188409.904615","189159.402524","191469.264535"
"Blocked","Male","ball","1","M_priest.wav","None","726.948942523","301","183060.133462","189926.245149","190692.297847","191459.328447","192225.713192","192992.720296","179176.648615","179926.21887","183809.529345","184576.143804","185343.010235","186109.601814","186876.06107","187642.36945","188409.904615","189159.402524","192235.169141"
"Blocked","Male","ball","1","M_ball.wav","None","724.984170403","301","183060.133462","189926.245149","190692.297847","191459.328447","192225.713192","192992.720296","193759.741003","179926.21887","183809.529345","184576.143804","185343.010235","186109.601814","186876.06107","187642.36945","188409.904615","189159.402524","193001.711562"
"Blocked","Male","ball","1","M_romp.wav","space","362.414638512","301","183060.133462","189926.245149","190692.297847","191459.328447","192225.713192","192992.720296","193759.741003","194509.481609","183809.529345","184576.143804","185343.010235","186109.601814","186876.06107","187642.36945","188409.904615","189159.402524","193769.780354"
"Blocked","Male","ball","2","M_bluff.wav","None","735.167594627","301","197643.479369","189926.245149","190692.297847","191459.328447","192225.713192","192992.720296","193759.741003","194509.481609","183809.529345","184576.143804","185343.010235","186109.601814","186876.06107","187642.36945","188409.904615","189159.402524","194519.44274"
"Blocked","Male","ball","2","M_depth.wav","None","720.374144148","301","197643.479369","189926.245149","190692.297847","191459.328447","192225.713192","192992.720296","193759.741003","194509.481609","198409.03894","184576.143804","185343.010235","186109.601814","186876.06107","187642.36945","188409.904615","189159.402524","197653.690927"
"Blocked","Male","ball","2","M_greet.wav","None","720.462257508","301","197643.479369","189926.245149","190692.297847","191459.328447","192225.713192","192992.720296","193759.741003","194509.481609","198409.03894","199158.996275","185343.010235","186109.601814","186876.06107","187642.36945","188409.904615","189159.402524","198418.237042"
"Blocked","Male","ball","2","M_priest.wav","None","734.48896734","301","197643.479369","189926.245149","190692.297847","191459.328447","192225.713192","192992.720296","193759.741003","194509.481609","198409.03894","199158.996275","199925.168621","186109.601814","186876.06107","187642.36945","188409.904615","189159.402524","199168.455006"
"Blocked","Male","ball","2","M_gnash.wav","None","734.93973678","301","197643.479369","189926.245149","190692.297847","191459.328447","192225.713192","192992.720296","193759.741003","194509.481609","198409.03894","199158.996275","199925.168621","200692.157484","186876.06107","187642.36945","188409.904615","189159.402524","199934.640646"
"Blocked","Male","ball","2","M_ball.wav","None","730.975875165","301","197643.479369","189926.245149","190692.297847","191459.328447","192225.713192","192992.720296","193759.741003","194509.481609","198409.03894","199158.996275","199925.168621","200692.157484","201459.168915","187642.36945","188409.904615","189159.402524","200703.482361"
"Blocked","Male","ball","2","M_cad.wav","space","391.110821161","301","197643.479369","189926.245149","190692.297847","191459.328447","192225.713192","192992.720296","193759.741003","194509.481609","198409.03894","199158.996275","199925.168621","200692.157484","201459.168915","202225.797286","188409.904615","189159.402524","201468.904044"
"Blocked","Male","ball","2","M_ball.wav","None","726.030090824","301","197643.479369","189926.245149","190692.297847","191459.328447","192225.713192","192992.720296","193759.741003","194509.481609","198409.03894","199158.996275","199925.168621","200692.157484","201459.168915","202225.797286","202992.455028","189159.402524","202236.710968"
"Blocked","Male","ball","2","M_reek.wav","space","441.763910931","301","197643.479369","189926.245149","190692.297847","191459.328447","192225.713192","192992.720296","193759.741003","194509.481609","198409.03894","199158.996275","199925.168621","200692.157484","201459.168915","202225.797286","202992.455028","203759.456567","203002.181191"
"Blocked","Male","ball","2","M_cling.wav","None","721.658743918","301","197643.479369","204525.92046","190692.297847","191459.328447","192225.713192","192992.720296","193759.741003","194509.481609","198409.03894","199158.996275","199925.168621","200692.157484","201459.168915","202225.797286","202992.455028","203759.456567","203769.444286"
"Blocked","Male","ball","2","M_ball.wav","None","718.561174814","301","197643.479369","204525.92046","205275.718881","191459.328447","192225.713192","192992.720296","193759.741003","194509.481609","198409.03894","199158.996275","199925.168621","200692.157484","201459.168915","202225.797286","202992.455028","203759.456567","204537.425892"
"Blocked","Male","ball","2","M_jolt.wav","space","487.095884513","301","197643.479369","204525.92046","205275.718881","206041.92709","192225.713192","192992.720296","193759.741003","194509.481609","198409.03894","199158.996275","199925.168621","200692.157484","201459.168915","202225.797286","202992.455028","203759.456567","205284.80599"
"Blocked","Male","ball","2","M_priest.wav","None","738.143660128","301","197643.479369","204525.92046","205275.718881","206041.92709","206808.924301","192992.720296","193759.741003","194509.481609","198409.03894","199158.996275","199925.168621","200692.157484","201459.168915","202225.797286","202992.455028","203759.456567","206046.381913"
"Blocked","Male","ball","2","M_depth.wav","None","729.999208357","301","197643.479369","204525.92046","205275.718881","206041.92709","206808.924301","207575.50104","193759.741003","194509.481609","198409.03894","199158.996275","199925.168621","200692.157484","201459.168915","202225.797286","202992.455028","203759.456567","206819.057639"
"Blocked","Male","ball","2","M_ball.wav","None","728.661741596","301","197643.479369","204525.92046","205275.718881","206041.92709","206808.924301","207575.50104","208342.234219","194509.481609","198409.03894","199158.996275","199925.168621","200692.157484","201459.168915","202225.797286","202992.455028","203759.456567","207584.987287"
"Blocked","Male","ball","2","M_romp.wav","space","476.804251317","301","197643.479369","204525.92046","205275.718881","206041.92709","206808.924301","207575.50104","208342.234219","209109.281206","198409.03894","199158.996275","199925.168621","200692.157484","201459.168915","202225.797286","202992.455028","203759.456567","208351.01185"
"Blocked","Male","done","19","M_jolt.wav","None","722.158361692","301","212226.120368","204525.92046","205275.718881","206041.92709","206808.924301","207575.50104","208342.234219","209109.281206","198409.03894","199158.996275","199925.168621","200692.157484","201459.168915","202225.797286","202992.455028","203759.456567","209119.571912"
"Blocked","Male","done","19","M_done.wav","None","719.823513646","301","212226.120368","204525.92046","205275.718881","206041.92709","206808.924301","207575.50104","208342.234219","209109.281206","212975.75864","199158.996275","199925.168621","200692.157484","201459.168915","202225.797286","202992.455028","203759.456567","212236.186617"
"Blocked","Male","done","19","M_reek.wav","space","522.328837775","301","212226.120368","204525.92046","205275.718881","206041.92709","206808.924301","207575.50104","208342.234219","209109.281206","212975.75864","213742.160699","199925.168621","200692.157484","201459.168915","202225.797286","202992.455028","203759.456567","212985.31816"
"Blocked","Male","done","19","M_done.wav","None","732.174834237","301","212226.120368","204525.92046","205275.718881","206041.92709","206808.924301","207575.50104","208342.234219","209109.281206","212975.75864","213742.160699","214508.752279","200692.157484","201459.168915","202225.797286","202992.455028","203759.456567","213751.817298"
"Blocked","Male","done","19","M_jolt.wav","space","700.954900589","301","212226.120368","204525.92046","205275.718881","206041.92709","206808.924301","207575.50104","208342.234219","209109.281206","212975.75864","213742.160699","214508.752279","215275.226374","201459.168915","202225.797286","202992.455028","203759.456567","214518.667653"
"Blocked","Male","done","19","M_bluff.wav","None","727.212045342","301","212226.120368","204525.92046","205275.718881","206041.92709","206808.924301","207575.50104","208342.234219","209109.281206","212975.75864","213742.160699","214508.752279","215275.226374","216042.071163","202225.797286","202992.455028","203759.456567","215284.887302"
"Blocked","Male","done","19","M_dime.wav","None","724.211246707","301","212226.120368","204525.92046","205275.718881","206041.92709","206808.924301","207575.50104","208342.234219","209109.281206","212975.75864","213742.160699","214508.752279","215275.226374","216042.071163","216808.974695","202992.455028","203759.456567","216052.475025"
"Blocked","Male","done","19","M_done.wav","None","722.128062975","301","212226.120368","204525.92046","205275.718881","206041.92709","206808.924301","207575.50104","208342.234219","209109.281206","212975.75864","213742.160699","214508.752279","215275.226374","216042.071163","216808.974695","217575.927385","203759.456567","216819.289516"
"Blocked","Male","done","19","M_cling.wav","space","297.639614902","301","212226.120368","204525.92046","205275.718881","206041.92709","206808.924301","207575.50104","208342.234219","209109.281206","212975.75864","213742.160699","214508.752279","215275.226374","216042.071163","216808.974695","217575.927385","218325.637384","217585.910158"
"Blocked","Male","done","19","M_lash.wav","None","734.313668683","301","212226.120368","219091.924432","205275.718881","206041.92709","206808.924301","207575.50104","208342.234219","209109.281206","212975.75864","213742.160699","214508.752279","215275.226374","216042.071163","216808.974695","217575.927385","218325.637384","218335.22813"
"Blocked","Male","done","19","M_bluff.wav","None","732.904164586","301","212226.120368","219091.924432","219858.193857","206041.92709","206808.924301","207575.50104","208342.234219","209109.281206","212975.75864","213742.160699","214508.752279","215275.226374","216042.071163","216808.974695","217575.927385","218325.637384","219101.638536"
"Blocked","Male","done","19","M_done.wav","None","732.03663528","301","212226.120368","219091.924432","219858.193857","220625.021951","206808.924301","207575.50104","208342.234219","209109.281206","212975.75864","213742.160699","214508.752279","215275.226374","216042.071163","216808.974695","217575.927385","218325.637384","219867.21975"
"Blocked","Male","done","19","M_greet.wav","space","464.725309052","301","212226.120368","219091.924432","219858.193857","220625.021951","221391.927956","207575.50104","208342.234219","209109.281206","212975.75864","213742.160699","214508.752279","215275.226374","216042.071163","216808.974695","217575.927385","218325.637384","220634.711941"
"Blocked","Male","done","19","M_lash.wav","None","726.132425945","301","212226.120368","219091.924432","219858.193857","220625.021951","221391.927956","222159.347492","208342.234219","209109.281206","212975.75864","213742.160699","214508.752279","215275.226374","216042.071163","216808.974695","217575.927385","218325.637384","221401.318979"
"Blocked","Male","done","19","M_jolt.wav","None","723.203045316","301","212226.120368","219091.924432","219858.193857","220625.021951","221391.927956","222159.347492","222925.018674","209109.281206","212975.75864","213742.160699","214508.752279","215275.226374","216042.071163","216808.974695","217575.927385","218325.637384","222168.993579"
"Blocked","Male","done","19","M_cling.wav","None","722.656124271","301","212226.120368","219091.924432","219858.193857","220625.021951","221391.927956","222159.347492","222925.018674","223691.596341","212975.75864","213742.160699","214508.752279","215275.226374","216042.071163","216808.974695","217575.927385","218325.637384","222934.289739"
"Blocked","Male","cave","9","M_cad.wav","None","720.178440679","301","226808.902968","219091.924432","219858.193857","220625.021951","221391.927956","222159.347492","222925.018674","223691.596341","212975.75864","213742.160699","214508.752279","215275.226374","216042.071163","216808.974695","217575.927385","218325.637384","223701.387738"
"Blocked","Male","cave","9","M_priest.wav","None","719.871744048","301","226808.902968","219091.924432","219858.193857","220625.021951","221391.927956","222159.347492","222925.018674","223691.596341","227558.204863","213742.160699","214508.752279","215275.226374","216042.071163","216808.974695","217575.927385","218325.637384","226818.528032"
"Blocked","Male","cave","9","M_cad.wav","None","735.587756149","301","226808.902968","219091.924432","219858.193857","220625.021951","221391.927956","222159.347492","222925.018674","223691.596341","227558.204863","228325.233918","214508.752279","215275.226374","216042.071163","216808.974695","217575.927385","218325.637384","227567.722027"
"Blocked","Male","cave","9","M_cad.wav","None","733.104197308","301","226808.902968","219091.924432","219858.193857","220625.021951","221391.927956","222159.347492","222925.018674","223691.596341","227558.204863","228325.233918","229091.601968","215275.226374","216042.071163","216808.974695","217575.927385","218325.637384","228334.678427"
"Blocked","Male","cave","9","M_reek.wav","None","730.903529096","301","226808.902968","219091.924432","219858.193857","220625.021951","221391.927956","222159.347492","222925.018674","223691.596341","227558.204863","228325.233918","229091.601968","229857.900455","216042.071163","216808.974695","217575.927385","218325.637384","229101.575775"
"Blocked","Male","cave","9","M_cave.wav","None","730.053622276","301","226808.902968","219091.924432","219858.193857","220625.021951","221391.927956","222159.347492","222925.018674","223691.596341","227558.204863","228325.233918","229091.601968","229857.900455","230625.045139","216808.974695","217575.927385","218325.637384","229867.401233"
"Blocked","Male","cave","9","M_lash.wav","space","544.444348197","301","226808.902968","219091.924432","219858.193857","220625.021951","221391.927956","222159.347492","222925.018674","223691.596341","227558.204863","228325.233918","229091.601968","229857.900455","230625.045139","231391.515833","217575.927385","218325.637384","230634.675768"
"Blocked","Male","cave","9","M_jaw.wav","None","726.190549787","301","226808.902968","219091.924432","219858.193857","220625.021951","221391.927956","222159.347492","222925.018674","223691.596341","227558.204863","228325.233918","229091.601968","229857.900455","230625.045139","231391.515833","232157.707038","218325.637384","231400.693529"
"Blocked","Male","cave","9","M_cave.wav","None","725.155450404","301","226808.902968","219091.924432","219858.193857","220625.021951","221391.927956","222159.347492","222925.018674","223691.596341","227558.204863","228325.233918","229091.601968","229857.900455","230625.045139","231391.515833","232157.707038","232924.585836","232167.146292"
"Blocked","Male","cave","9","M_knife.wav","space","548.949565738","301","226808.902968","233691.212662","219858.193857","220625.021951","221391.927956","222159.347492","222925.018674","223691.596341","227558.204863","228325.233918","229091.601968","229857.900455","230625.045139","231391.515833","232157.707038","232924.585836","232934.111966"
"Blocked","Male","cave","9","M_cave.wav","None","720.231617335","301","226808.902968","233691.212662","234441.277897","220625.021951","221391.927956","222159.347492","222925.018674","223691.596341","227558.204863","228325.233918","229091.601968","229857.900455","230625.045139","231391.515833","232157.707038","232924.585836","233700.495166"
"Blocked","Male","cave","9","M_priest.wav","None","734.344276134","301","226808.902968","233691.212662","234441.277897","235208.185757","221391.927956","222159.347492","222925.018674","223691.596341","227558.204863","228325.233918","229091.601968","229857.900455","230625.045139","231391.515833","232157.707038","232924.585836","234450.769399"
"Blocked","Male","cave","9","M_cave.wav","space","0.0346270389855","301","226808.902968","233691.212662","234441.277897","235208.185757","235974.622133","222159.347492","222925.018674","223691.596341","227558.204863","228325.233918","229091.601968","229857.900455","230625.045139","231391.515833","232157.707038","232924.585836","235218.554682"
"Blocked","Male","cave","9","M_bluff.wav","space","546.758790966","301","226808.902968","233691.212662","234441.277897","235208.185757","235974.622133","236741.450537","222925.018674","223691.596341","227558.204863","228325.233918","229091.601968","229857.900455","230625.045139","231391.515833","232157.707038","232924.585836","235984.193092"
"Blocked","Male","cave","9","M_jaw.wav","None","725.421336479","301","226808.902968","233691.212662","234441.277897","235208.185757","235974.622133","236741.450537","237508.348812","223691.596341","227558.204863","228325.233918","229091.601968","229857.900455","230625.045139","231391.515833","232157.707038","232924.585836","236750.776324"
"Blocked","Male","cave","9","M_gnash.wav","None","722.538021393","301","226808.902968","233691.212662","234441.277897","235208.185757","235974.622133","236741.450537","237508.348812","238274.378631","227558.204863","228325.233918","229091.601968","229857.900455","230625.045139","231391.515833","232157.707038","232924.585836","237518.470403"
"Blocked","Male","cave","10","M_bluff.wav","None","722.527200356","301","241391.590961","233691.212662","234441.277897","235208.185757","235974.622133","236741.450537","237508.348812","238274.378631","227558.204863","228325.233918","229091.601968","229857.900455","230625.045139","231391.515833","232157.707038","232924.585836","238283.531284"
"Blocked","Male","cave","10","M_cave.wav","None","719.705101568","301","241391.590961","233691.212662","234441.277897","235208.185757","235974.622133","236741.450537","237508.348812","238274.378631","242141.434521","228325.233918","229091.601968","229857.900455","230625.045139","231391.515833","232157.707038","232924.585836","241402.023267"
"Blocked","Male","cave","10","M_lash.wav","space","467.785777524","301","241391.590961","233691.212662","234441.277897","235208.185757","235974.622133","236741.450537","237508.348812","238274.378631","242141.434521","242907.592027","229091.601968","229857.900455","230625.045139","231391.515833","232157.707038","232924.585836","242150.997133"
"Blocked","Male","cave","10","M_park.wav","None","732.850369532","301","241391.590961","233691.212662","234441.277897","235208.185757","235974.622133","236741.450537","237508.348812","238274.378631","242141.434521","242907.592027","243674.366326","229857.900455","230625.045139","231391.515833","232157.707038","232924.585836","242917.137326"
"Blocked","Male","cave","10","M_lash.wav","None","730.607963167","301","241391.590961","233691.212662","234441.277897","235208.185757","235974.622133","236741.450537","237508.348812","238274.378631","242141.434521","242907.592027","243674.366326","244441.245433","230625.045139","231391.515833","232157.707038","232924.585836","243683.868031"
"Blocked","Male","cave","10","M_cave.wav","None","729.060570244","301","241391.590961","233691.212662","234441.277897","235208.185757","235974.622133","236741.450537","237508.348812","238274.378631","242141.434521","242907.592027","243674.366326","244441.245433","245207.80486","231391.515833","232157.707038","232924.585836","244450.260506"
"Blocked","Male","cave","10","M_cad.wav","space","385.090982076","301","241391.590961","233691.212662","234441.277897","235208.185757","235974.622133","236741.450537","237508.348812","238274.378631","242141.434521","242907.592027","243674.366326","244441.245433","245207.80486","245974.698189","232157.707038","232924.585836","245217.589455"
"Blocked","Male","cave","10","M_cave.wav","None","723.242309876","301","241391.590961","233691.212662","234441.277897","235208.185757","235974.622133","236741.450537","237508.348812","238274.378631","242141.434521","242907.592027","243674.366326","244441.245433","245207.80486","245974.698189","246741.262252","232924.585836","245984.705077"
"Blocked","Male","cave","10","M_dime.wav","space","547.544390894","301","241391.590961","233691.212662","234441.277897","235208.185757","235974.622133","236741.450537","237508.348812","238274.378631","242141.434521","242907.592027","243674.366326","244441.245433","245207.80486","245974.698189","246741.262252","247491.247412","246751.105899"
"Blocked","Male","cave","10","M_priest.wav","None","735.30362919","301","241391.590961","248257.68719","234441.277897","235208.185757","235974.622133","236741.450537","237508.348812","238274.378631","242141.434521","242907.592027","243674.366326","244441.245433","245207.80486","245974.698189","246741.262252","247491.247412","247500.972029"
"Blocked","Male","cave","10","M_lash.wav","None","733.567333315","301","241391.590961","248257.68719","249024.304121","235208.185757","235974.622133","236741.450537","237508.348812","238274.378631","242141.434521","242907.592027","243674.366326","244441.245433","245207.80486","245974.698189","246741.262252","247491.247412","248267.480442"
"Blocked","Male","cave","10","M_depth.wav","None","731.571644079","301","241391.590961","248257.68719","249024.304121","249790.984123","235974.622133","236741.450537","237508.348812","238274.378631","242141.434521","242907.592027","243674.366326","244441.245433","245207.80486","245974.698189","246741.262252","247491.247412","249034.202182"
"Blocked","Male","cave","10","M_bluff.wav","None","729.935519397","301","241391.590961","248257.68719","249024.304121","249790.984123","250557.702153","236741.450537","237508.348812","238274.378631","242141.434521","242907.592027","243674.366326","244441.245433","245207.80486","245974.698189","246741.262252","247491.247412","249800.779849"
"Blocked","Male","cave","10","M_depth.wav","None","728.83333033","301","241391.590961","248257.68719","249024.304121","249790.984123","250557.702153","251323.933551","237508.348812","238274.378631","242141.434521","242907.592027","243674.366326","244441.245433","245207.80486","245974.698189","246741.262252","247491.247412","250567.116982"
"Blocked","Male","cave","10","M_cave.wav","None","660.228006076","301","241391.590961","248257.68719","249024.304121","249790.984123","250557.702153","251323.933551","252090.993522","238274.378631","242141.434521","242907.592027","243674.366326","244441.245433","245207.80486","245974.698189","246741.262252","247491.247412","251400.704968"
"Blocked","Male","cave","10","M_park.wav","space","461.735330988","301","241391.590961","248257.68719","249024.304121","249790.984123","250557.702153","251323.933551","252090.993522","252857.940647","242141.434521","242907.592027","243674.366326","244441.245433","245207.80486","245974.698189","246741.262252","247491.247412","252100.764514"
"Blocked","Male","tile","14","M_bluff.wav","None","721.877944656","301","255974.458273","248257.68719","249024.304121","249790.984123","250557.702153","251323.933551","252090.993522","252857.940647","242141.434521","242907.592027","243674.366326","244441.245433","245207.80486","245974.698189","246741.262252","247491.247412","252867.798206"
"Blocked","Male","tile","14","M_lash.wav","None","720.398569014","301","255974.458273","248257.68719","249024.304121","249790.984123","250557.702153","251323.933551","252090.993522","252857.940647","256740.982454","242907.592027","243674.366326","244441.245433","245207.80486","245974.698189","246741.262252","247491.247412","255984.14548"
"Blocked","Male","tile","14","M_jolt.wav","None","718.563648406","301","255974.458273","248257.68719","249024.304121","249790.984123","250557.702153","251323.933551","252090.993522","252857.940647","256740.982454","257490.302899","243674.366326","244441.245433","245207.80486","245974.698189","246741.262252","247491.247412","256751.125995"
"Blocked","Male","tile","14","M_depth.wav","None","735.919803847","301","255974.458273","248257.68719","249024.304121","249790.984123","250557.702153","251323.933551","252090.993522","252857.940647","256740.982454","257490.302899","258257.369364","244441.245433","245207.80486","245974.698189","246741.262252","247491.247412","257499.217492"
"Blocked","Male","tile","14","M_tile.wav","None","733.413057867","301","255974.458273","248257.68719","249024.304121","249790.984123","250557.702153","251323.933551","252090.993522","252857.940647","256740.982454","257490.302899","258257.369364","259024.293919","245207.80486","245974.698189","246741.262252","247491.247412","258266.777391"
"Blocked","Male","tile","14","M_reek.wav","space","392.780336086","301","255974.458273","248257.68719","249024.304121","249790.984123","250557.702153","251323.933551","252090.993522","252857.940647","256740.982454","257490.302899","258257.369364","259024.293919","259790.658568","245974.698189","246741.262252","247491.247412","259033.485836"
"Blocked","Male","tile","14","M_greet.wav","None","728.871976491","301","255974.458273","248257.68719","249024.304121","249790.984123","250557.702153","251323.933551","252090.993522","252857.940647","256740.982454","257490.302899","258257.369364","259024.293919","259790.658568","260557.41679","246741.262252","247491.247412","259799.84523"
"Blocked","Male","tile","14","M_tile.wav","None","726.961927954","301","255974.458273","248257.68719","249024.304121","249790.984123","250557.702153","251323.933551","252090.993522","252857.940647","256740.982454","257490.302899","258257.369364","259024.293919","259790.658568","260557.41679","261323.667974","247491.247412","260566.916331"
"Blocked","Male","tile","14","M_knife.wav","space","469.64914212","301","255974.458273","248257.68719","249024.304121","249790.984123","250557.702153","251323.933551","252090.993522","252857.940647","256740.982454","257490.302899","258257.369364","259024.293919","259790.658568","260557.41679","261323.667974","262091.120591","261332.581021"
"Blocked","Male","tile","14","M_dime.wav","None","721.637410577","301","255974.458273","262857.947758","249024.304121","249790.984123","250557.702153","251323.933551","252090.993522","252857.940647","256740.982454","257490.302899","258257.369364","259024.293919","259790.658568","260557.41679","261323.667974","262091.120591","262100.852319"
"Blocked","Male","tile","14","M_tile.wav","None","720.200081822","301","255974.458273","262857.947758","263623.573183","249790.984123","250557.702153","251323.933551","252090.993522","252857.940647","256740.982454","257490.302899","258257.369364","259024.293919","259790.658568","260557.41679","261323.667974","262091.120591","262867.725242"
"Blocked","Male","tile","14","M_cling.wav","space","601.76251363","301","255974.458273","262857.947758","263623.573183","264373.553396","250557.702153","251323.933551","252090.993522","252857.940647","256740.982454","257490.302899","258257.369364","259024.293919","259790.658568","260557.41679","261323.667974","262091.120591","263632.381112"
"Blocked","Male","tile","14","M_reek.wav","None","735.692564398","301","255974.458273","262857.947758","263623.573183","264373.553396","265140.536693","251323.933551","252090.993522","252857.940647","256740.982454","257490.302899","258257.369364","259024.293919","259790.658568","260557.41679","261323.667974","262091.120591","264382.531987"
"Blocked","Male","tile","14","M_romp.wav","None","733.218590263","301","255974.458273","262857.947758","263623.573183","264373.553396","265140.536693","265907.209276","252090.993522","252857.940647","256740.982454","257490.302899","258257.369364","259024.293919","259790.658568","260557.41679","261323.667974","262091.120591","265150.278314"
"Blocked","Male","tile","14","M_tile.wav","None","732.063842006","301","255974.458273","262857.947758","263623.573183","264373.553396","265140.536693","265907.209276","266674.106933","252857.940647","256740.982454","257490.302899","258257.369364","259024.293919","259790.658568","260557.41679","261323.667974","262091.120591","265916.603081"
"Blocked","Male","tile","14","M_romp.wav","space","406.612269115","301","255974.458273","262857.947758","263623.573183","264373.553396","265140.536693","265907.209276","266674.106933","267440.440665","256740.982454","257490.302899","258257.369364","259024.293919","259790.658568","260557.41679","261323.667974","262091.120591","266683.462711"
"Blocked","Male","cave","8","M_park.wav","None","728.087304626","301","270573.850693","262857.947758","263623.573183","264373.553396","265140.536693","265907.209276","266674.106933","267440.440665","256740.982454","257490.302899","258257.369364","259024.293919","259790.658568","260557.41679","261323.667974","262091.120591","267449.521282"
"Blocked","Male","cave","8","M_cave.wav","None","720.840990543","301","270573.850693","262857.947758","263623.573183","264373.553396","265140.536693","265907.209276","266674.106933","267440.440665","271323.971579","257490.302899","258257.369364","259024.293919","259790.658568","260557.41679","261323.667974","262091.120591","270583.163805"
"Blocked","Male","cave","8","M_cad.wav","space","588.370837737","301","270573.850693","262857.947758","263623.573183","264373.553396","265140.536693","265907.209276","266674.106933","267440.440665","271323.971579","272090.308093","258257.369364","259024.293919","259790.658568","260557.41679","261323.667974","262091.120591","271333.539446"
"Blocked","Male","cave","8","M_gnash.wav","None","733.145935461","301","270573.850693","262857.947758","263623.573183","264373.553396","265140.536693","265907.209276","266674.106933","267440.440665","271323.971579","272090.308093","272856.592668","259024.293919","259790.658568","260557.41679","261323.667974","262091.120591","272099.365831"
"Blocked","Male","cave","8","M_park.wav","None","732.442265842","301","270573.850693","262857.947758","263623.573183","264373.553396","265140.536693","265907.209276","266674.106933","267440.440665","271323.971579","272090.308093","272856.592668","273623.440549","259790.658568","260557.41679","261323.667974","262091.120591","272865.284659"
"Blocked","Male","cave","8","M_cling.wav","None","729.724975303","301","270573.850693","262857.947758","263623.573183","264373.553396","265140.536693","265907.209276","266674.106933","267440.440665","271323.971579","272090.308093","272856.592668","273623.440549","274390.195679","260557.41679","261323.667974","262091.120591","273633.005325"
"Blocked","Male","cave","8","M_cave.wav","None","728.154703043","301","270573.850693","262857.947758","263623.573183","264373.553396","265140.536693","265907.209276","266674.106933","267440.440665","271323.971579","272090.308093","272856.592668","273623.440549","274390.195679","275156.904434","261323.667974","262091.120591","274399.278151"
"Blocked","Male","cave","8","M_gnash.wav","space","563.463835977","301","270573.850693","262857.947758","263623.573183","264373.553396","265140.536693","265907.209276","266674.106933","267440.440665","271323.971579","272090.308093","272856.592668","273623.440549","274390.195679","275156.904434","275923.623701","262091.120591","275166.334722"
"Blocked","Male","cave","8","M_depth.wav","None","722.755986266","301","270573.850693","262857.947758","263623.573183","264373.553396","265140.536693","265907.209276","266674.106933","267440.440665","271323.971579","272090.308093","272856.592668","273623.440549","274390.195679","275156.904434","275923.623701","276690.512083","275933.21352"
"Blocked","Male","cave","8","M_bluff.wav","None","720.978879835","301","270573.850693","277457.185593","263623.573183","264373.553396","265140.536693","265907.209276","266674.106933","267440.440665","271323.971579","272090.308093","272856.592668","273623.440549","274390.195679","275156.904434","275923.623701","276690.512083","276700.194344"
"Blocked","Male","cave","8","M_cling.wav","None","718.868489377","301","270573.850693","277457.185593","278206.632798","264373.553396","265140.536693","265907.209276","266674.106933","267440.440665","271323.971579","272090.308093","272856.592668","273623.440549","274390.195679","275156.904434","275923.623701","276690.512083","277467.305019"
"Blocked","Male","cave","8","M_cave.wav","None","735.769238323","301","270573.850693","277457.185593","278206.632798","278973.222214","265140.536693","265907.209276","266674.106933","267440.440665","271323.971579","272090.308093","272856.592668","273623.440549","274390.195679","275156.904434","275923.623701","276690.512083","278215.575525"
"Blocked","Male","cave","8","M_greet.wav","space","483.588666189","301","270573.850693","277457.185593","278206.632798","278973.222214","279740.106577","265907.209276","266674.106933","267440.440665","271323.971579","272090.308093","272856.592668","273623.440549","274390.195679","275156.904434","275923.623701","276690.512083","278982.098778"
"Blocked","Male","cave","8","M_lash.wav","None","730.253964197","301","270573.850693","277457.185593","278206.632798","278973.222214","279740.106577","280506.75659","266674.106933","267440.440665","271323.971579","272090.308093","272856.592668","273623.440549","274390.195679","275156.904434","275923.623701","276690.512083","279749.37486"
"Blocked","Male","cave","8","M_cave.wav","None","728.782008402","301","270573.850693","277457.185593","278206.632798","278973.222214","279740.106577","280506.75659","281273.67929","267440.440665","271323.971579","272090.308093","272856.592668","273623.440549","274390.195679","275156.904434","275923.623701","276690.512083","280515.766406"
"Blocked","Male","cave","8","M_jaw.wav","space","558.738489635","301","270573.850693","277457.185593","278206.632798","278973.222214","279740.106577","280506.75659","281273.67929","282040.358983","271323.971579","272090.308093","272856.592668","273623.440549","274390.195679","275156.904434","275923.623701","276690.512083","281282.827305"
"Blocked","Male","cave","11","M_greet.wav","None","723.148322199","301","285173.414084","277457.185593","278206.632798","278973.222214","279740.106577","280506.75659","281273.67929","282040.358983","271323.971579","272090.308093","272856.592668","273623.440549","274390.195679","275156.904434","275923.623701","276690.512083","282050.173258"
"Blocked","Male","cave","11","M_romp.wav","None","726.397693623","301","285173.414084","277457.185593","278206.632798","278973.222214","279740.106577","280506.75659","281273.67929","282040.358983","285940.224247","272090.308093","272856.592668","273623.440549","274390.195679","275156.904434","275923.623701","276690.512083","285177.565303"
"Blocked","Male","cave","11","M_cave.wav","None","718.873126432","301","285173.414084","277457.185593","278206.632798","278973.222214","279740.106577","280506.75659","281273.67929","282040.358983","285940.224247","286689.302922","272856.592668","273623.440549","274390.195679","275156.904434","275923.623701","276690.512083","285950.001732"
"Blocked","Male","cave","11","M_cad.wav","space","430.923810694","301","285173.414084","277457.185593","278206.632798","278973.222214","279740.106577","280506.75659","281273.67929","282040.358983","285940.224247","286689.302922","287456.514077","273623.440549","274390.195679","275156.904434","275923.623701","276690.512083","286698.510916"
"Blocked","Male","cave","11","M_bluff.wav","None","731.382742058","301","285173.414084","277457.185593","278206.632798","278973.222214","279740.106577","280506.75659","281273.67929","282040.358983","285940.224247","286689.302922","287456.514077","288223.294559","274390.195679","275156.904434","275923.623701","276690.512083","287466.130175"
"Blocked","Male","cave","11","M_cave.wav","None","730.608890764","301","285173.414084","277457.185593","278206.632798","278973.222214","279740.106577","280506.75659","281273.67929","282040.358983","285940.224247","286689.302922","287456.514077","288223.294559","288989.820286","275156.904434","275923.623701","276690.512083","288232.617256"
"Blocked","Male","cave","11","M_knife.wav","space","482.524814084","301","285173.414084","277457.185593","278206.632798","278973.222214","279740.106577","280506.75659","281273.67929","282040.358983","285940.224247","286689.302922","287456.514077","288223.294559","288989.820286","289756.091257","275923.623701","276690.512083","288998.885753"
"Blocked","Male","cave","11","M_depth.wav","None","726.869795006","301","285173.414084","277457.185593","278206.632798","278973.222214","279740.106577","280506.75659","281273.67929","282040.358983","285940.224247","286689.302922","287456.514077","288223.294559","288989.820286","289756.091257","290523.7909","276690.512083","289765.067993"
"Blocked","Male","cave","11","M_park.wav","None","723.540348932","301","285173.414084","277457.185593","278206.632798","278973.222214","279740.106577","280506.75659","281273.67929","282040.358983","285940.224247","286689.302922","287456.514077","288223.294559","288989.820286","289756.091257","290523.7909","291290.119376","290533.505932"
"Blocked","Male","cave","11","M_lash.wav","None","721.955236979","301","285173.414084","292056.800925","278206.632798","278973.222214","279740.106577","280506.75659","281273.67929","282040.358983","285940.224247","286689.302922","287456.514077","288223.294559","288989.820286","289756.091257","290523.7909","291290.119376","291300.350722"
"Blocked","Male","cave","11","M_greet.wav","None","720.632301178","301","285173.414084","292056.800925","292823.624381","278973.222214","279740.106577","280506.75659","281273.67929","282040.358983","285940.224247","286689.302922","287456.514077","288223.294559","288989.820286","289756.091257","290523.7909","291290.119376","292066.849551"
"Blocked","Male","cave","11","M_depth.wav","None","719.742820598","301","285173.414084","292056.800925","292823.624381","293572.79488","279740.106577","280506.75659","281273.67929","282040.358983","285940.224247","286689.302922","287456.514077","288223.294559","288989.820286","289756.091257","290523.7909","291290.119376","292833.043848"
"Blocked","Male","cave","11","M_cave.wav","None","735.379684716","301","285173.414084","292056.800925","292823.624381","293572.79488","294339.630085","280506.75659","281273.67929","282040.358983","285940.224247","286689.302922","287456.514077","288223.294559","288989.820286","289756.091257","290523.7909","291290.119376","293582.435711"
"Blocked","Male","cave","11","M_jaw.wav","space","315.99871628","301","285173.414084","292056.800925","292823.624381","293572.79488","294339.630085","295106.266494","281273.67929","282040.358983","285940.224247","286689.302922","287456.514077","288223.294559","288989.820286","289756.091257","290523.7909","291290.119376","294349.262569"
"Blocked","Male","cave","11","M_cave.wav","None","730.618475005","301","285173.414084","292056.800925","292823.624381","293572.79488","294339.630085","295106.266494","295872.30497","282040.358983","285940.224247","286689.302922","287456.514077","288223.294559","288989.820286","289756.091257","290523.7909","291290.119376","295115.655044"
"Blocked","Male","cave","11","M_park.wav","space","624.053632375","301","285173.414084","292056.800925","292823.624381","293572.79488","294339.630085","295106.266494","295872.30497","296639.178512","285940.224247","286689.302922","287456.514077","288223.294559","288989.820286","289756.091257","290523.7909","291290.119376","295881.128048"
"Blocked","Male","tile","13","M_lash.wav","None","729.444867466","301","299772.87885","292056.800925","292823.624381","293572.79488","294339.630085","295106.266494","295872.30497","296639.178512","285940.224247","286689.302922","287456.514077","288223.294559","288989.820286","289756.091257","290523.7909","291290.119376","296648.274587"
"Blocked","Male","tile","13","M_tile.wav","None","720.241510775","301","299772.87885","292056.800925","292823.624381","293572.79488","294339.630085","295106.266494","295872.30497","296639.178512","300539.870186","286689.302922","287456.514077","288223.294559","288989.820286","289756.091257","290523.7909","291290.119376","299782.765781"
"Blocked","Male","tile","13","M_cad.wav","space","488.82506974","301","299772.87885","292056.800925","292823.624381","293572.79488","294339.630085","295106.266494","295872.30497","296639.178512","300539.870186","301289.488362","287456.514077","288223.294559","288989.820286","289756.091257","290523.7909","291290.119376","300544.184955"
"Blocked","Male","tile","13","M_reek.wav","None","733.486021869","301","299772.87885","292056.800925","292823.624381","293572.79488","294339.630085","295106.266494","295872.30497","296639.178512","300539.870186","301289.488362","302056.160016","288223.294559","288989.820286","289756.091257","290523.7909","291290.119376","301298.78045"
"Blocked","Male","tile","13","M_tile.wav","None","737.516355235","301","299772.87885","292056.800925","292823.624381","293572.79488","294339.630085","295106.266494","295872.30497","296639.178512","300539.870186","301289.488362","302056.160016","302822.615252","288989.820286","289756.091257","290523.7909","291290.119376","302060.215392"
"Blocked","Male","tile","13","M_jaw.wav","space","416.600298602","301","299772.87885","292056.800925","292823.624381","293572.79488","294339.630085","295106.266494","295872.30497","296639.178512","300539.870186","301289.488362","302056.160016","302822.615252","303589.423869","289756.091257","290523.7909","291290.119376","302832.380988"
"Blocked","Male","tile","13","M_tile.wav","None","727.711972781","301","299772.87885","292056.800925","292823.624381","293572.79488","294339.630085","295106.266494","295872.30497","296639.178512","300539.870186","301289.488362","302056.160016","302822.615252","303589.423869","304356.060278","290523.7909","291290.119376","303599.151886"
