"Condition","Talker","Target","Trial","current_stimulus","response_response","response_time_response","subject_nr","time_Audio1","time_Audio10","time_Audio11","time_Audio12","time_Audio13","time_Audio14","time_Audio15","time_Audio16","time_Audio2","time_Audio3","time_Audio4","time_Audio5","time_Audio6","time_Audio7","time_Audio8","time_Audio9","time_response","title"
"Blocked","Male","tile","18","M_knife.wav","NA","NA","233","932283.956415","NA","NA","NA","NA","NA","NA","NA","NA","NA","NA","NA","NA","NA","NA","NA","NA","Mapping"
"Blocked","Male","tile","18","M_tile.wav","None","718.206251273","233","932283.956415","NA","NA","NA","NA","NA","NA","NA","933050.677816","NA","NA","NA","NA","NA","NA","NA","932298.076355","Mapping"
"Blocked","Male","tile","18","M_ball.wav","space","698.471416719","233","932283.956415","NA","NA","NA","NA","NA","NA","NA","933050.677816","933817.242466","NA","NA","NA","NA","NA","NA","933061.534742","Mapping"
"Blocked","Male","tile","18","M_tile.wav","None","720.954801072","233","932283.956415","NA","NA","NA","NA","NA","NA","NA","933050.677816","933817.242466","934566.5333","NA","NA","NA","NA","NA","933827.459403","Mapping"
"Blocked","Male","tile","18","M_cad.wav","space","471.34289064","233","932283.956415","NA","NA","NA","NA","NA","NA","NA","933050.677816","933817.242466","934566.5333","935333.241715","NA","NA","NA","NA","934576.642954","Mapping"
"Blocked","Male","tile","18","M_cave.wav","None","734.465669841","233","932283.956415","NA","NA","NA","NA","NA","NA","NA","933050.677816","933817.242466","934566.5333","935333.241715","936100.012893","NA","NA","NA","935343.508429","Mapping"
"Blocked","Male","tile","18","M_greet.wav","None","733.361303108","233","932283.956415","NA","NA","NA","NA","NA","NA","NA","933050.677816","933817.242466","934566.5333","935333.241715","936100.012893","936866.960299","NA","NA","936110.721725","Mapping"
"Blocked","Male","tile","18","M_tile.wav","None","733.566594194","233","932283.956415","NA","NA","NA","NA","NA","NA","NA","933050.677816","933817.242466","934566.5333","935333.241715","936100.012893","936866.960299","937633.292141","NA","936876.671738","Mapping"
"Blocked","Male","tile","18","M_jolt.wav","space","372.87524587","233","932283.956415","NA","NA","NA","NA","NA","NA","NA","933050.677816","933817.242466","934566.5333","935333.241715","936100.012893","936866.960299","937633.292141","938400.242021","937643.054903","Mapping"
"Blocked","Male","tile","18","M_greet.wav","None","729.62803673","233","932283.956415","939166.852119","NA","NA","NA","NA","NA","NA","933050.677816","933817.242466","934566.5333","935333.241715","936100.012893","936866.960299","937633.292141","938400.242021","938410.024261","Mapping"
"Blocked","Male","tile","18","M_jaw.wav","None","725.504284725","233","932283.956415","939166.852119","939933.775101","NA","NA","NA","NA","NA","933050.677816","933817.242466","934566.5333","935333.241715","936100.012893","936866.960299","937633.292141","938400.242021","939177.350404","Mapping"
"Blocked","Male","tile","18","M_cave.wav","None","725.529636838","233","932283.956415","939166.852119","939933.775101","940700.700556","NA","NA","NA","NA","933050.677816","933817.242466","934566.5333","935333.241715","936100.012893","936866.960299","937633.292141","938400.242021","939943.840234","Mapping"
"Blocked","Male","tile","18","M_tile.wav","None","721.325190505","233","932283.956415","939166.852119","939933.775101","940700.700556","941450.976106","NA","NA","NA","933050.677816","933817.242466","934566.5333","935333.241715","936100.012893","936866.960299","937633.292141","938400.242021","940711.269332","Mapping"
"Blocked","Male","tile","18","M_bluff.wav","space","515.256924438","233","932283.956415","939166.852119","939933.775101","940700.700556","941450.976106","942217.035876","NA","NA","933050.677816","933817.242466","934566.5333","935333.241715","936100.012893","936866.960299","937633.292141","938400.242021","941460.612417","Mapping"
"Blocked","Male","tile","18","M_done.wav","None","735.158836236","233","932283.956415","939166.852119","939933.775101","940700.700556","941450.976106","942217.035876","942983.474074","NA","933050.677816","933817.242466","934566.5333","935333.241715","936100.012893","936866.960299","937633.292141","938400.242021","942226.807604","Mapping"
"Blocked","Male","tile","18","M_done.wav","None","734.566769446","233","932283.956415","939166.852119","939933.775101","940700.700556","941450.976106","942217.035876","942983.474074","943750.448688","933050.677816","933817.242466","934566.5333","935333.241715","936100.012893","936866.960299","937633.292141","938400.242021","942993.612482","Mapping"
"Blocked","Male","cave","8","M_bluff.wav","None","730.652636848","233","946900.630497","939166.852119","939933.775101","940700.700556","941450.976106","942217.035876","942983.474074","943750.448688","933050.677816","933817.242466","934566.5333","935333.241715","936100.012893","936866.960299","937633.292141","938400.242021","943761.116709","Mapping"
"Blocked","Male","cave","8","M_cave.wav","None","718.889524112","233","946900.630497","939166.852119","939933.775101","940700.700556","941450.976106","942217.035876","942983.474074","943750.448688","947650.367777","933817.242466","934566.5333","935333.241715","936100.012893","936866.960299","937633.292141","938400.242021","946910.77787","Mapping"
"Blocked","Male","cave","8","M_tile.wav","space","403.907887405","233","946900.630497","939166.852119","939933.775101","940700.700556","941450.976106","942217.035876","942983.474074","943750.448688","947650.367777","948417.124733","934566.5333","935333.241715","936100.012893","936866.960299","937633.292141","938400.242021","947659.8798","Mapping"
"Blocked","Male","cave","8","M_gnash.wav","None","729.119756026","233","946900.630497","939166.852119","939933.775101","940700.700556","941450.976106","942217.035876","942983.474074","943750.448688","947650.367777","948417.124733","949183.801921","935333.241715","936100.012893","936866.960299","937633.292141","938400.242021","948426.68375","Mapping"
"Blocked","Male","cave","8","M_cave.wav","None","728.971043834","233","946900.630497","939166.852119","939933.775101","940700.700556","941450.976106","942217.035876","942983.474074","943750.448688","947650.367777","948417.124733","949183.801921","949950.359151","936100.012893","936866.960299","937633.292141","938400.242021","949193.098141","Mapping"
"Blocked","Male","cave","8","M_greet.wav","space","486.984272022","233","946900.630497","939166.852119","939933.775101","940700.700556","941450.976106","942217.035876","942983.474074","943750.448688","947650.367777","948417.124733","949183.801921","949950.359151","950717.330054","936866.960299","937633.292141","938400.242021","949960.730366","Mapping"
"Blocked","Male","cave","8","M_priest.wav","None","720.577300526","233","946900.630497","939166.852119","939933.775101","940700.700556","941450.976106","942217.035876","942983.474074","943750.448688","947650.367777","948417.124733","949183.801921","949950.359151","950717.330054","951484.018374","937633.292141","938400.242021","950727.678081","Mapping"
"Blocked","Male","cave","8","M_reek.wav","None","719.72645598","233","946900.630497","939166.852119","939933.775101","940700.700556","941450.976106","942217.035876","942983.474074","943750.448688","947650.367777","948417.124733","949183.801921","949950.359151","950717.330054","951484.018374","952250.66279","938400.242021","951494.601063","Mapping"
"Blocked","Male","cave","8","M_cave.wav","None","719.577125274","233","946900.630497","939166.852119","939933.775101","940700.700556","941450.976106","942217.035876","942983.474074","943750.448688","947650.367777","948417.124733","949183.801921","949950.359151","950717.330054","951484.018374","952250.66279","953000.186431","952260.755749","Mapping"
"Blocked","Male","cave","8","M_knife.wav","space","413.303660927","233","946900.630497","953766.814771","939933.775101","940700.700556","941450.976106","942217.035876","942983.474074","943750.448688","947650.367777","948417.124733","949183.801921","949950.359151","950717.330054","951484.018374","952250.66279","953000.186431","953010.389147","Mapping"
"Blocked","Male","cave","8","M_cave.wav","None","730.778779485","233","946900.630497","953766.814771","954533.567398","940700.700556","941450.976106","942217.035876","942983.474074","943750.448688","947650.367777","948417.124733","949183.801921","949950.359151","950717.330054","951484.018374","952250.66279","953000.186431","953776.234969","Mapping"
"Blocked","Male","cave","8","M_reek.wav","space","472.20177378","233","946900.630497","953766.814771","954533.567398","955300.598281","941450.976106","942217.035876","942983.474074","943750.448688","947650.367777","948417.124733","949183.801921","949950.359151","950717.330054","951484.018374","952250.66279","953000.186431","954543.460013","Mapping"
"Blocked","Male","cave","8","M_greet.wav","None","722.328766831","233","946900.630497","953766.814771","954533.567398","955300.598281","956067.42882","942217.035876","942983.474074","943750.448688","947650.367777","948417.124733","949183.801921","949950.359151","950717.330054","951484.018374","952250.66279","953000.186431","955310.736998","Mapping"
"Blocked","Male","cave","8","M_tile.wav","None","717.955820961","233","946900.630497","953766.814771","954533.567398","955300.598281","956067.42882","956816.822918","942983.474074","943750.448688","947650.367777","948417.124733","949183.801921","949950.359151","950717.330054","951484.018374","952250.66279","953000.186431","956078.34418","Mapping"
"Blocked","Male","cave","8","M_priest.wav","None","732.959068846","233","946900.630497","953766.814771","954533.567398","955300.598281","956067.42882","956816.822918","957583.451566","943750.448688","947650.367777","948417.124733","949183.801921","949950.359151","950717.330054","951484.018374","952250.66279","953000.186431","956826.53683","Mapping"
"Blocked","Male","cave","8","M_priest.wav","None","729.501275811","233","946900.630497","953766.814771","954533.567398","955300.598281","956067.42882","956816.822918","957583.451566","958350.189044","947650.367777","948417.124733","949183.801921","949950.359151","950717.330054","951484.018374","952250.66279","953000.186431","957593.253593","Mapping"
"Blocked","Male","cave","10","M_jolt.wav","None","726.284328615","233","961466.977983","953766.814771","954533.567398","955300.598281","956067.42882","956816.822918","957583.451566","958350.189044","947650.367777","948417.124733","949183.801921","949950.359151","950717.330054","951484.018374","952250.66279","953000.186431","958359.708487","Mapping"
"Blocked","Male","cave","10","M_cave.wav","None","718.727208208","233","961466.977983","953766.814771","954533.567398","955300.598281","956067.42882","956816.822918","957583.451566","958350.189044","962216.657448","948417.124733","949183.801921","949950.359151","950717.330054","951484.018374","952250.66279","953000.186431","961477.473177","Mapping"
"Blocked","Male","cave","10","M_tile.wav","space","493.0592163","233","961466.977983","953766.814771","954533.567398","955300.598281","956067.42882","956816.822918","957583.451566","958350.189044","962216.657448","962983.379158","949183.801921","949950.359151","950717.330054","951484.018374","952250.66279","953000.186431","962226.443398","Mapping"
"Blocked","Male","cave","10","M_cave.wav","None","728.926213691","233","961466.977983","953766.814771","954533.567398","955300.598281","956067.42882","956816.822918","957583.451566","958350.189044","962216.657448","962983.379158","963749.907325","949950.359151","950717.330054","951484.018374","952250.66279","953000.186431","962993.469025","Mapping"
"Blocked","Male","cave","10","M_cling.wav","space","415.886803064","233","961466.977983","953766.814771","954533.567398","955300.598281","956067.42882","956816.822918","957583.451566","958350.189044","962216.657448","962983.379158","963749.907325","964516.702","950717.330054","951484.018374","952250.66279","953000.186431","963759.593722","Mapping"
"Blocked","Male","cave","10","M_depth.wav","None","730.713543948","233","961466.977983","953766.814771","954533.567398","955300.598281","956067.42882","956816.822918","957583.451566","958350.189044","962216.657448","962983.379158","963749.907325","964516.702","965283.345798","951484.018374","952250.66279","953000.186431","964521.063506","Mapping"
"Blocked","Male","cave","10","M_romp.wav","None","725.229120464","233","961466.977983","953766.814771","954533.567398","955300.598281","956067.42882","956816.822918","957583.451566","958350.189044","962216.657448","962983.379158","963749.907325","964516.702","965283.345798","966050.022059","952250.66279","953000.186431","965292.838343","Mapping"
"Blocked","Male","cave","10","M_reek.wav","None","724.424342625","233","961466.977983","953766.814771","954533.567398","955300.598281","956067.42882","956816.822918","957583.451566","958350.189044","962216.657448","962983.379158","963749.907325","964516.702","965283.345798","966050.022059","966816.922162","953000.186431","966059.917766","Mapping"
"Blocked","Male","cave","10","M_cave.wav","None","720.577918924","233","961466.977983","953766.814771","954533.567398","955300.598281","956067.42882","956816.822918","957583.451566","958350.189044","962216.657448","962983.379158","963749.907325","964516.702","965283.345798","966050.022059","966816.922162","967566.244223","966827.069845","Mapping"
"Blocked","Male","cave","10","M_lash.wav","space","471.686072997","233","961466.977983","968333.175552","954533.567398","955300.598281","956067.42882","956816.822918","957583.451566","958350.189044","962216.657448","962983.379158","963749.907325","964516.702","965283.345798","966050.022059","966816.922162","967566.244223","967575.72471","Mapping"
"Blocked","Male","cave","10","M_park.wav","None","734.154950827","233","961466.977983","968333.175552","969099.969917","955300.598281","956067.42882","956816.822918","957583.451566","958350.189044","962216.657448","962983.379158","963749.907325","964516.702","965283.345798","966050.022059","966816.922162","967566.244223","968342.765795","Mapping"
"Blocked","Male","cave","10","M_knife.wav","None","732.735845842","233","961466.977983","968333.175552","969099.969917","969866.509215","956067.42882","956816.822918","957583.451566","958350.189044","962216.657448","962983.379158","963749.907325","964516.702","965283.345798","966050.022059","966816.922162","967566.244223","969110.514269","Mapping"
"Blocked","Male","cave","10","M_cave.wav","None","730.731785065","233","961466.977983","968333.175552","969099.969917","969866.509215","970633.223505","956816.822918","957583.451566","958350.189044","962216.657448","962983.379158","963749.907325","964516.702","965283.345798","966050.022059","966816.922162","967566.244223","969876.069469","Mapping"
"Blocked","Male","cave","10","M_romp.wav","space","436.696014483","233","961466.977983","968333.175552","969099.969917","969866.509215","970633.223505","971400.311585","957583.451566","958350.189044","962216.657448","962983.379158","963749.907325","964516.702","965283.345798","966050.022059","966816.922162","967566.244223","970642.643394","Mapping"
"Blocked","Male","cave","10","M_ball.wav","None","723.180538858","233","961466.977983","968333.175552","969099.969917","969866.509215","970633.223505","971400.311585","972167.282179","958350.189044","962216.657448","962983.379158","963749.907325","964516.702","965283.345798","966050.022059","966816.922162","967566.244223","971410.266034","Mapping"
"Blocked","Male","cave","10","M_park.wav","None","719.488701783","233","961466.977983","968333.175552","969099.969917","969866.509215","970633.223505","971400.311585","972167.282179","972916.210353","962216.657448","962983.379158","963749.907325","964516.702","965283.345798","966050.022059","966816.922162","967566.244223","972177.332163","Mapping"
"Blocked","Male","tile","16","M_cad.wav","None","734.751964221","233","976050.321648","968333.175552","969099.969917","969866.509215","970633.223505","971400.311585","972167.282179","972916.210353","962216.657448","962983.379158","963749.907325","964516.702","965283.345798","966050.022059","966816.922162","967566.244223","972925.438554","Mapping"
"Blocked","Male","tile","16","M_tile.wav","None","719.091414125","233","976050.321648","968333.175552","969099.969917","969866.509215","970633.223505","971400.311585","972167.282179","972916.210353","976816.81828","962983.379158","963749.907325","964516.702","965283.345798","966050.022059","966816.922162","967566.244223","976060.217664","Mapping"
"Blocked","Male","tile","16","M_jaw.wav","space","620.460525854","233","976050.321648","968333.175552","969099.969917","969866.509215","970633.223505","971400.311585","972167.282179","972916.210353","976816.81828","977566.472393","963749.907325","964516.702","965283.345798","966050.022059","966816.922162","967566.244223","976826.755107","Mapping"
"Blocked","Male","tile","16","M_gnash.wav","None","733.712833142","233","976050.321648","968333.175552","969099.969917","969866.509215","970633.223505","971400.311585","972167.282179","972916.210353","976816.81828","977566.472393","978333.032405","964516.702","965283.345798","966050.022059","966816.922162","967566.244223","977575.938348","Mapping"
"Blocked","Male","tile","16","M_tile.wav","None","735.463062651","233","976050.321648","968333.175552","969099.969917","969866.509215","970633.223505","971400.311585","972167.282179","972916.210353","976816.81828","977566.472393","978333.032405","979099.807911","965283.345798","966050.022059","966816.922162","967566.244223","978337.606622","Mapping"
"Blocked","Male","tile","16","M_jaw.wav","space","537.505646353","233","976050.321648","968333.175552","969099.969917","969866.509215","970633.223505","971400.311585","972167.282179","972916.210353","976816.81828","977566.472393","978333.032405","979099.807911","979866.778505","966050.022059","966816.922162","967566.244223","979109.653531","Mapping"
"Blocked","Male","tile","16","M_done.wav","None","722.330312594","233","976050.321648","968333.175552","969099.969917","969866.509215","970633.223505","971400.311585","972167.282179","972916.210353","976816.81828","977566.472393","978333.032405","979099.807911","979866.778505","980633.513509","966816.922162","967566.244223","979877.095924","Mapping"
"Blocked","Male","tile","16","M_reek.wav","None","717.995704268","233","976050.321648","968333.175552","969099.969917","969866.509215","970633.223505","971400.311585","972167.282179","972916.210353","976816.81828","977566.472393","978333.032405","979099.807911","979866.778505","980633.513509","981382.743127","967566.244223","980644.899121","Mapping"
"Blocked","Male","tile","16","M_lash.wav","None","734.26316143","233","976050.321648","968333.175552","969099.969917","969866.509215","970633.223505","971400.311585","972167.282179","972916.210353","976816.81828","977566.472393","978333.032405","979099.807911","979866.778505","980633.513509","981382.743127","982149.745257","981392.186822","Mapping"
"Blocked","Male","tile","16","M_tile.wav","None","730.256585986","233","976050.321648","982916.460474","969099.969917","969866.509215","970633.223505","971400.311585","972167.282179","972916.210353","976816.81828","977566.472393","978333.032405","979099.807911","979866.778505","980633.513509","981382.743127","982149.745257","982159.5748","Mapping"
"Blocked","Male","tile","16","M_park.wav","space","505.167057039","233","976050.321648","982916.460474","983682.668338","969866.509215","970633.223505","971400.311585","972167.282179","972916.210353","976816.81828","977566.472393","978333.032405","979099.807911","979866.778505","980633.513509","981382.743127","982149.745257","982925.943434","Mapping"
"Blocked","Male","tile","16","M_gnash.wav","None","724.789167056","233","976050.321648","982916.460474","983682.668338","984449.970675","970633.223505","971400.311585","972167.282179","972916.210353","976816.81828","977566.472393","978333.032405","979099.807911","979866.778505","980633.513509","981382.743127","982149.745257","983691.845217","Mapping"
"Blocked","Male","tile","16","M_tile.wav","None","719.886916806","233","976050.321648","982916.460474","983682.668338","984449.970675","985199.566044","971400.311585","972167.282179","972916.210353","976816.81828","977566.472393","978333.032405","979099.807911","979866.778505","980633.513509","981382.743127","982149.745257","984460.142164","Mapping"
"Blocked","Male","tile","16","M_lash.wav","space","525.830338709","233","976050.321648","982916.460474","983682.668338","984449.970675","985199.566044","985966.059275","972167.282179","972916.210353","976816.81828","977566.472393","978333.032405","979099.807911","979866.778505","980633.513509","981382.743127","982149.745257","985209.243166","Mapping"
"Blocked","Male","tile","16","M_romp.wav","None","731.37301032","233","976050.321648","982916.460474","983682.668338","984449.970675","985199.566044","985966.059275","986732.981329","972916.210353","976816.81828","977566.472393","978333.032405","979099.807911","979866.778505","980633.513509","981382.743127","982149.745257","985975.321795","Mapping"
"Blocked","Male","tile","16","M_knife.wav","None","727.633251343","233","976050.321648","982916.460474","983682.668338","984449.970675","985199.566044","985966.059275","986732.981329","987499.375006","976816.81828","977566.472393","978333.032405","979099.807911","979866.778505","980633.513509","981382.743127","982149.745257","986742.590123","Mapping"
"Blocked","Male","cave","12","M_bluff.wav","None","725.197275751","233","990616.672536","982916.460474","983682.668338","984449.970675","985199.566044","985966.059275","986732.981329","987499.375006","976816.81828","977566.472393","978333.032405","979099.807911","979866.778505","980633.513509","981382.743127","982149.745257","987508.535499","Mapping"
"Blocked","Male","cave","12","M_dime.wav","None","718.671556911","233","990616.672536","982916.460474","983682.668338","984449.970675","985199.566044","985966.059275","986732.981329","987499.375006","991383.238732","977566.472393","978333.032405","979099.807911","979866.778505","980633.513509","981382.743127","982149.745257","990627.017471","Mapping"
"Blocked","Male","cave","12","M_cave.wav","None","721.005505533","233","990616.672536","982916.460474","983682.668338","984449.970675","985199.566044","985966.059275","986732.981329","987499.375006","991383.238732","992132.618607","978333.032405","979099.807911","979866.778505","980633.513509","981382.743127","982149.745257","991393.449486","Mapping"
"Blocked","Male","cave","12","M_greet.wav","space","528.490465018","233","990616.672536","982916.460474","983682.668338","984449.970675","985199.566044","985966.059275","986732.981329","987499.375006","991383.238732","992132.618607","992899.211083","979099.807911","979866.778505","980633.513509","981382.743127","982149.745257","992142.47103","Mapping"
"Blocked","Male","cave","12","M_romp.wav","None","731.845117756","233","990616.672536","982916.460474","983682.668338","984449.970675","985199.566044","985966.059275","986732.981329","987499.375006","991383.238732","992132.618607","992899.211083","993666.153851","979866.778505","980633.513509","981382.743127","982149.745257","992908.9083","Mapping"
"Blocked","Male","cave","12","M_cave.wav","None","728.388561402","233","990616.672536","982916.460474","983682.668338","984449.970675","985199.566044","985966.059275","986732.981329","987499.375006","991383.238732","992132.618607","992899.211083","993666.153851","994432.794867","980633.513509","981382.743127","982149.745257","993675.880749","Mapping"
"Blocked","Male","cave","12","M_tile.wav","space","356.473607593","233","990616.672536","982916.460474","983682.668338","984449.970675","985199.566044","985966.059275","986732.981329","987499.375006","991383.238732","992132.618607","992899.211083","993666.153851","994432.794867","995199.903352","981382.743127","982149.745257","994442.45993","Mapping"
"Blocked","Male","cave","12","M_depth.wav","None","720.695713884","233","990616.672536","982916.460474","983682.668338","984449.970675","985199.566044","985966.059275","986732.981329","987499.375006","991383.238732","992132.618607","992899.211083","993666.153851","994432.794867","995199.903352","995949.323421","982149.745257","995209.910671","Mapping"
"Blocked","Male","cave","12","M_cave.wav","None","734.916444402","233","990616.672536","982916.460474","983682.668338","984449.970675","985199.566044","985966.059275","986732.981329","987499.375006","991383.238732","992132.618607","992899.211083","993666.153851","994432.794867","995199.903352","995949.323421","996716.117168","995959.291783","Mapping"
"Blocked","Male","cave","12","M_gnash.wav","space","385.048013064","233","990616.672536","997482.846298","983682.668338","984449.970675","985199.566044","985966.059275","986732.981329","987499.375006","991383.238732","992132.618607","992899.211083","993666.153851","994432.794867","995199.903352","995949.323421","996716.117168","996725.854578","Mapping"
"Blocked","Male","cave","12","M_dime.wav","None","727.434762055","233","990616.672536","997482.846298","998249.459488","984449.970675","985199.566044","985966.059275","986732.981329","987499.375006","991383.238732","992132.618607","992899.211083","993666.153851","994432.794867","995199.903352","995949.323421","996716.117168","997493.159388","Mapping"
"Blocked","Male","cave","12","M_cling.wav","None","724.599025561","233","990616.672536","997482.846298","998249.459488","999016.468729","985199.566044","985966.059275","986732.981329","987499.375006","991383.238732","992132.618607","992899.211083","993666.153851","994432.794867","995199.903352","995949.323421","996716.117168","998259.496178","Mapping"
"Blocked","Male","cave","12","M_jaw.wav","None","720.766823739","233","990616.672536","997482.846298","998249.459488","999016.468729","999766.173237","985966.059275","986732.981329","987499.375006","991383.238732","992132.618607","992899.211083","993666.153851","994432.794867","995199.903352","995949.323421","996716.117168","999026.853238","Mapping"
"Blocked","Male","cave","12","M_cling.wav","None","735.365363886","233","990616.672536","997482.846298","998249.459488","999016.468729","999766.173237","1000532.56104","986732.981329","987499.375006","991383.238732","992132.618607","992899.211083","993666.153851","994432.794867","995199.903352","995949.323421","996716.117168","999775.786359","Mapping"
"Blocked","Male","cave","12","M_cave.wav","None","732.391426805","233","990616.672536","997482.846298","998249.459488","999016.468729","999766.173237","1000532.56104","1001299.36592","987499.375006","991383.238732","992132.618607","992899.211083","993666.153851","994432.794867","995199.903352","995949.323421","996716.117168","1000542.39089","Mapping"
"Blocked","Male","cave","12","M_ball.wav","space","529.898748966","233","990616.672536","997482.846298","998249.459488","999016.468729","999766.173237","1000532.56104","1001299.36592","1002066.07928","991383.238732","992132.618607","992899.211083","993666.153851","994432.794867","995199.903352","995949.323421","996716.117168","1001308.93019","Mapping"
"Blocked","Male","cave","7","M_cad.wav","None","725.35309894","233","1005183.00024","997482.846298","998249.459488","999016.468729","999766.173237","1000532.56104","1001299.36592","1002066.07928","991383.238732","992132.618607","992899.211083","993666.153851","994432.794867","995199.903352","995949.323421","996716.117168","1002075.79536","Mapping"
"Blocked","Male","cave","7","M_jolt.wav","None","719.494266901","233","1005183.00024","997482.846298","998249.459488","999016.468729","999766.173237","1000532.56104","1001299.36592","1002066.07928","1005932.51769","992132.618607","992899.211083","993666.153851","994432.794867","995199.903352","995949.323421","996716.117168","1005193.19739","Mapping"
"Blocked","Male","cave","7","M_lash.wav","None","733.885042602","233","1005183.00024","997482.846298","998249.459488","999016.468729","999766.173237","1000532.56104","1001299.36592","1002066.07928","1005932.51769","1006698.9763","992899.211083","993666.153851","994432.794867","995199.903352","995949.323421","996716.117168","1005942.24737","Mapping"
"Blocked","Male","cave","7","M_cave.wav","None","731.116705691","233","1005183.00024","997482.846298","998249.459488","999016.468729","999766.173237","1000532.56104","1001299.36592","1002066.07928","1005932.51769","1006698.9763","1007465.81395","993666.153851","994432.794867","995199.903352","995949.323421","996716.117168","1006708.5347","Mapping"
"Blocked","Male","cave","7","M_greet.wav","space","443.436917732","233","1005183.00024","997482.846298","998249.459488","999016.468729","999766.173237","1000532.56104","1001299.36592","1002066.07928","1005932.51769","1006698.9763","1007465.81395","1008232.36561","994432.794867","995199.903352","995949.323421","996716.117168","1007475.26166","Mapping"
"Blocked","Male","cave","7","M_romp.wav","None","726.678215316","233","1005183.00024","997482.846298","998249.459488","999016.468729","999766.173237","1000532.56104","1001299.36592","1002066.07928","1005932.51769","1006698.9763","1007465.81395","1008232.36561","1008999.60982","995199.903352","995949.323421","996716.117168","1008241.25249","Mapping"
"Blocked","Male","cave","7","M_done.wav","None","721.832543844","233","1005183.00024","997482.846298","998249.459488","999016.468729","999766.173237","1000532.56104","1001299.36592","1002066.07928","1005932.51769","1006698.9763","1007465.81395","1008232.36561","1008999.60982","1009766.29567","995949.323421","996716.117168","1009009.65548","Mapping"
"Blocked","Male","cave","7","M_cave.wav","None","718.53366564","233","1005183.00024","997482.846298","998249.459488","999016.468729","999766.173237","1000532.56104","1001299.36592","1002066.07928","1005932.51769","1006698.9763","1007465.81395","1008232.36561","1008999.60982","1009766.29567","1010515.55435","996716.117168","1009776.41769","Mapping"
"Blocked","Male","cave","7","M_priest.wav","space","409.212372033","233","1005183.00024","997482.846298","998249.459488","999016.468729","999766.173237","1000532.56104","1001299.36592","1002066.07928","1005932.51769","1006698.9763","1007465.81395","1008232.36561","1008999.60982","1009766.29567","1010515.55435","1011282.33635","1010525.43151","Mapping"
"Blocked","Male","cave","7","M_reek.wav","None","729.545178474","233","1005183.00024","1012049.23398","998249.459488","999016.468729","999766.173237","1000532.56104","1001299.36592","1002066.07928","1005932.51769","1006698.9763","1007465.81395","1008232.36561","1008999.60982","1009766.29567","1010515.55435","1011282.33635","1011292.01038","Mapping"
"Blocked","Male","cave","7","M_bluff.wav","None","726.17951897","233","1005183.00024","1012049.23398","1012816.27444","999016.468729","999766.173237","1000532.56104","1001299.36592","1002066.07928","1005932.51769","1006698.9763","1007465.81395","1008232.36561","1008999.60982","1009766.29567","1010515.55435","1011282.33635","1012058.97664","Mapping"
"Blocked","Male","cave","7","M_cave.wav","None","722.665147274","233","1005183.00024","1012049.23398","1012816.27444","1013583.14456","999766.173237","1000532.56104","1001299.36592","1002066.07928","1005932.51769","1006698.9763","1007465.81395","1008232.36561","1008999.60982","1009766.29567","1010515.55435","1011282.33635","1012826.12501","Mapping"
"Blocked","Male","cave","7","M_dime.wav","space","365.231865901","233","1005183.00024","1012049.23398","1012816.27444","1013583.14456","1014332.45951","1000532.56104","1001299.36592","1002066.07928","1005932.51769","1006698.9763","1007465.81395","1008232.36561","1008999.60982","1009766.29567","1010515.55435","1011282.33635","1013593.35036","Mapping"
"Blocked","Male","cave","7","M_depth.wav","None","733.43334056","233","1005183.00024","1012049.23398","1012816.27444","1013583.14456","1014332.45951","1015098.79042","1001299.36592","1002066.07928","1005932.51769","1006698.9763","1007465.81395","1008232.36561","1008999.60982","1009766.29567","1010515.55435","1011282.33635","1014342.2232","Mapping"
"Blocked","Male","cave","7","M_cave.wav","None","730.900284485","233","1005183.00024","1012049.23398","1012816.27444","1013583.14456","1014332.45951","1015098.79042","1015865.88623","1002066.07928","1005932.51769","1006698.9763","1007465.81395","1008232.36561","1008999.60982","1009766.29567","1010515.55435","1011282.33635","1015108.27957","Mapping"
"Blocked","Male","cave","7","M_gnash.wav","space","546.539687202","233","1005183.00024","1012049.23398","1012816.27444","1013583.14456","1014332.45951","1015098.79042","1015865.88623","1016632.81849","1005932.51769","1006698.9763","1007465.81395","1008232.36561","1008999.60982","1009766.29567","1010515.55435","1011282.33635","1015875.97393","Mapping"
"Blocked","Male","done","24","M_jolt.wav","None","722.915577469","233","1019749.45037","1012049.23398","1012816.27444","1013583.14456","1014332.45951","1015098.79042","1015865.88623","1016632.81849","1005932.51769","1006698.9763","1007465.81395","1008232.36561","1008999.60982","1009766.29567","1010515.55435","1011282.33635","1016643.20145","Mapping"
"Blocked","Male","done","24","M_dime.wav","None","718.940537656","233","1019749.45037","1012049.23398","1012816.27444","1013583.14456","1014332.45951","1015098.79042","1015865.88623","1016632.81849","1020498.94618","1006698.9763","1007465.81395","1008232.36561","1008999.60982","1009766.29567","1010515.55435","1011282.33635","1019759.59218","Mapping"
"Blocked","Male","done","24","M_cling.wav","None","733.598439023","233","1019749.45037","1012049.23398","1012816.27444","1013583.14456","1014332.45951","1015098.79042","1015865.88623","1016632.81849","1020498.94618","1021265.77147","1007465.81395","1008232.36561","1008999.60982","1009766.29567","1010515.55435","1011282.33635","1020508.75007","Mapping"
"Blocked","Male","done","24","M_done.wav","None","730.635632179","233","1019749.45037","1012049.23398","1012816.27444","1013583.14456","1014332.45951","1015098.79042","1015865.88623","1016632.81849","1020498.94618","1021265.77147","1022032.31293","1008232.36561","1008999.60982","1009766.29567","1010515.55435","1011282.33635","1021275.38923","Mapping"
"Blocked","Male","done","24","M_reek.wav","space","396.498860908","233","1019749.45037","1012049.23398","1012816.27444","1013583.14456","1014332.45951","1015098.79042","1015865.88623","1016632.81849","1020498.94618","1021265.77147","1022032.31293","1022799.39575","1008999.60982","1009766.29567","1010515.55435","1011282.33635","1022041.90626","Mapping"
"Blocked","Male","done","24","M_cad.wav","None","723.153331666","233","1019749.45037","1012049.23398","1012816.27444","1013583.14456","1014332.45951","1015098.79042","1015865.88623","1016632.81849","1020498.94618","1021265.77147","1022032.31293","1022799.39575","1023566.07572","1009766.29567","1010515.55435","1011282.33635","1022809.52241","Mapping"
"Blocked","Male","done","24","M_done.wav","None","720.140747959","233","1019749.45037","1012049.23398","1012816.27444","1013583.14456","1014332.45951","1015098.79042","1015865.88623","1016632.81849","1020498.94618","1021265.77147","1022032.31293","1022799.39575","1023566.07572","1024316.07178","1010515.55435","1011282.33635","1023576.22464","Mapping"
"Blocked","Male","done","24","M_ball.wav","space","480.545121827","233","1019749.45037","1012049.23398","1012816.27444","1013583.14456","1014332.45951","1015098.79042","1015865.88623","1016632.81849","1020498.94618","1021265.77147","1022032.31293","1022799.39575","1023566.07572","1024316.07178","1025082.27872","1011282.33635","1024325.82156","Mapping"
"Blocked","Male","done","24","M_done.wav","None","731.950236717","233","1019749.45037","1012049.23398","1012816.27444","1013583.14456","1014332.45951","1015098.79042","1015865.88623","1016632.81849","1020498.94618","1021265.77147","1022032.31293","1022799.39575","1023566.07572","1024316.07178","1025082.27872","1025848.68816","1025092.07642","Mapping"
"Blocked","Male","done","24","M_cad.wav","space","444.058355875","233","1019749.45037","1026615.34711","1012816.27444","1013583.14456","1014332.45951","1015098.79042","1015865.88623","1016632.81849","1020498.94618","1021265.77147","1022032.31293","1022799.39575","1023566.07572","1024316.07178","1025082.27872","1025848.68816","1025858.29665","Mapping"
"Blocked","Male","done","24","M_lash.wav","None","726.379863219","233","1019749.45037","1026615.34711","1027382.68933","1013583.14456","1014332.45951","1015098.79042","1015865.88623","1016632.81849","1020498.94618","1021265.77147","1022032.31293","1022799.39575","1023566.07572","1024316.07178","1025082.27872","1025848.68816","1026624.62169","Mapping"
"Blocked","Male","done","24","M_knife.wav","None","722.528492566","233","1019749.45037","1026615.34711","1027382.68933","1028149.0861","1014332.45951","1015098.79042","1015865.88623","1016632.81849","1020498.94618","1021265.77147","1022032.31293","1022799.39575","1023566.07572","1024316.07178","1025082.27872","1025848.68816","1027392.48579","Mapping"
"Blocked","Male","done","24","M_done.wav","None","719.925254234","233","1019749.45037","1026615.34711","1027382.68933","1028149.0861","1028898.58593","1015098.79042","1015865.88623","1016632.81849","1020498.94618","1021265.77147","1022032.31293","1022799.39575","1023566.07572","1024316.07178","1025082.27872","1025848.68816","1028158.70231","Mapping"
"Blocked","Male","done","24","M_romp.wav","space","417.965065222","233","1019749.45037","1026615.34711","1027382.68933","1028149.0861","1028898.58593","1029665.51263","1015865.88623","1016632.81849","1020498.94618","1021265.77147","1022032.31293","1022799.39575","1023566.07572","1024316.07178","1025082.27872","1025848.68816","1028908.35055","Mapping"
"Blocked","Male","done","24","M_jolt.wav","None","730.124568916","233","1019749.45037","1026615.34711","1027382.68933","1028149.0861","1028898.58593","1029665.51263","1030432.2501","1016632.81849","1020498.94618","1021265.77147","1022032.31293","1022799.39575","1023566.07572","1024316.07178","1025082.27872","1025848.68816","1029675.37772","Mapping"
"Blocked","Male","done","24","M_cave.wav","None","727.552557131","233","1019749.45037","1026615.34711","1027382.68933","1028149.0861","1028898.58593","1029665.51263","1030432.2501","1031198.88494","1020498.94618","1021265.77147","1022032.31293","1022799.39575","1023566.07572","1024316.07178","1025082.27872","1025848.68816","1030441.73399","Mapping"
"Blocked","Male","tile","14","M_romp.wav","None","723.816817394","233","1034315.81702","1026615.34711","1027382.68933","1028149.0861","1028898.58593","1029665.51263","1030432.2501","1031198.88494","1020498.94618","1021265.77147","1022032.31293","1022799.39575","1023566.07572","1024316.07178","1025082.27872","1025848.68816","1031209.16093","Mapping"
"Blocked","Male","tile","14","M_cad.wav","None","719.615153619","233","1034315.81702","1026615.34711","1027382.68933","1028149.0861","1028898.58593","1029665.51263","1030432.2501","1031198.88494","1035065.15671","1021265.77147","1022032.31293","1022799.39575","1023566.07572","1024316.07178","1025082.27872","1025848.68816","1034325.98109","Mapping"
"Blocked","Male","tile","14","M_cad.wav","None","734.721046989","233","1034315.81702","1026615.34711","1027382.68933","1028149.0861","1028898.58593","1029665.51263","1030432.2501","1031198.88494","1035065.15671","1035832.15667","1022032.31293","1022799.39575","1023566.07572","1024316.07178","1025082.27872","1025848.68816","1035074.61617","Mapping"
"Blocked","Male","tile","14","M_tile.wav","None","731.683729333","233","1034315.81702","1026615.34711","1027382.68933","1028149.0861","1028898.58593","1029665.51263","1030432.2501","1031198.88494","1035065.15671","1035832.15667","1036598.76801","1022799.39575","1023566.07572","1024316.07178","1025082.27872","1025848.68816","1035841.43651","Mapping"
"Blocked","Male","tile","14","M_cave.wav","space","669.266916346","233","1034315.81702","1026615.34711","1027382.68933","1028149.0861","1028898.58593","1029665.51263","1030432.2501","1031198.88494","1035065.15671","1035832.15667","1036598.76801","1037365.41799","1023566.07572","1024316.07178","1025082.27872","1025848.68816","1036608.88632","Mapping"
"Blocked","Male","tile","14","M_tile.wav","None","724.705999484","233","1034315.81702","1026615.34711","1027382.68933","1028149.0861","1028898.58593","1029665.51263","1030432.2501","1031198.88494","1035065.15671","1035832.15667","1036598.76801","1037365.41799","1038132.36138","1024316.07178","1025082.27872","1025848.68816","1037375.16993","Mapping"
"Blocked","Male","tile","14","M_park.wav","space","471.556838602","233","1034315.81702","1026615.34711","1027382.68933","1028149.0861","1028898.58593","1029665.51263","1030432.2501","1031198.88494","1035065.15671","1035832.15667","1036598.76801","1037365.41799","1038132.36138","1038881.47907","1025082.27872","1025848.68816","1038142.57955","Mapping"
"Blocked","Male","tile","14","M_depth.wav","None","735.914455494","233","1034315.81702","1026615.34711","1027382.68933","1028149.0861","1028898.58593","1029665.51263","1030432.2501","1031198.88494","1035065.15671","1035832.15667","1036598.76801","1037365.41799","1038132.36138","1038881.47907","1039648.75327","1025848.68816","1038890.94008","Mapping"
"Blocked","Male","tile","14","M_tile.wav","None","731.982699945","233","1034315.81702","1026615.34711","1027382.68933","1028149.0861","1028898.58593","1029665.51263","1030432.2501","1031198.88494","1035065.15671","1035832.15667","1036598.76801","1037365.41799","1038132.36138","1038881.47907","1039648.75327","1040415.55382","1039658.6159","Mapping"
"Blocked","Male","tile","14","M_gnash.wav","space","453.369415947","233","1034315.81702","1041182.06746","1027382.68933","1028149.0861","1028898.58593","1029665.51263","1030432.2501","1031198.88494","1035065.15671","1035832.15667","1036598.76801","1037365.41799","1038132.36138","1038881.47907","1039648.75327","1040415.55382","1040424.74338","Mapping"
"Blocked","Male","tile","14","M_tile.wav","None","725.732763647","233","1034315.81702","1041182.06746","1041949.05568","1028149.0861","1028898.58593","1029665.51263","1030432.2501","1031198.88494","1035065.15671","1035832.15667","1036598.76801","1037365.41799","1038132.36138","1038881.47907","1039648.75327","1040415.55382","1041191.75726","Mapping"
"Blocked","Male","tile","14","M_done.wav","space","541.970416438","233","1034315.81702","1041182.06746","1041949.05568","1042715.78635","1028898.58593","1029665.51263","1030432.2501","1031198.88494","1035065.15671","1035832.15667","1036598.76801","1037365.41799","1038132.36138","1038881.47907","1039648.75327","1040415.55382","1041960.07523","Mapping"
"Blocked","Male","tile","14","M_romp.wav","None","718.887050753","233","1034315.81702","1041182.06746","1041949.05568","1042715.78635","1043464.73493","1029665.51263","1030432.2501","1031198.88494","1035065.15671","1035832.15667","1036598.76801","1037365.41799","1038132.36138","1038881.47907","1039648.75327","1040415.55382","1042725.69133","Mapping"
"Blocked","Male","tile","14","M_lash.wav","None","735.331045697","233","1034315.81702","1041182.06746","1041949.05568","1042715.78635","1043464.73493","1044231.97265","1030432.2501","1031198.88494","1035065.15671","1035832.15667","1036598.76801","1037365.41799","1038132.36138","1038881.47907","1039648.75327","1040415.55382","1043474.1607","Mapping"
"Blocked","Male","tile","14","M_cling.wav","None","732.233439456","233","1034315.81702","1041182.06746","1041949.05568","1042715.78635","1043464.73493","1044231.97265","1044998.2711","1031198.88494","1035065.15671","1035832.15667","1036598.76801","1037365.41799","1038132.36138","1038881.47907","1039648.75327","1040415.55382","1044241.25403","Mapping"
"Blocked","Male","tile","14","M_depth.wav","None","735.158527037","233","1034315.81702","1041182.06746","1041949.05568","1042715.78635","1043464.73493","1044231.97265","1044998.2711","1045765.27076","1035065.15671","1035832.15667","1036598.76801","1037365.41799","1038132.36138","1038881.47907","1039648.75327","1040415.55382","1045002.1673","Mapping"
"Blocked","Male","ball","3","M_bluff.wav","None","726.380172302","233","1048882.10422","1041182.06746","1041949.05568","1042715.78635","1043464.73493","1044231.97265","1044998.2711","1045765.27076","1035065.15671","1035832.15667","1036598.76801","1037365.41799","1038132.36138","1038881.47907","1039648.75327","1040415.55382","1045774.7967","Mapping"
"Blocked","Male","ball","3","M_jolt.wav","None","719.073482091","233","1048882.10422","1041182.06746","1041949.05568","1042715.78635","1043464.73493","1044231.97265","1044998.2711","1045765.27076","1049631.64208","1035832.15667","1036598.76801","1037365.41799","1038132.36138","1038881.47907","1039648.75327","1040415.55382","1048893.37513","Mapping"
"Blocked","Male","ball","3","M_reek.wav","None","734.732795507","233","1048882.10422","1041182.06746","1041949.05568","1042715.78635","1043464.73493","1044231.97265","1044998.2711","1045765.27076","1049631.64208","1050398.55703","1036598.76801","1037365.41799","1038132.36138","1038881.47907","1039648.75327","1040415.55382","1049641.629","Mapping"
"Blocked","Male","ball","3","M_priest.wav","None","731.842335314","233","1048882.10422","1041182.06746","1041949.05568","1042715.78635","1043464.73493","1044231.97265","1044998.2711","1045765.27076","1049631.64208","1050398.55703","1051165.12075","1037365.41799","1038132.36138","1038881.47907","1039648.75327","1040415.55382","1050408.35813","Mapping"
"Blocked","Male","ball","3","M_ball.wav","None","729.500966612","233","1048882.10422","1041182.06746","1041949.05568","1042715.78635","1043464.73493","1044231.97265","1044998.2711","1045765.27076","1049631.64208","1050398.55703","1051165.12075","1051931.82236","1038132.36138","1038881.47907","1039648.75327","1040415.55382","1051174.56259","Mapping"
"Blocked","Male","ball","3","M_park.wav","space","360.514192143","233","1048882.10422","1041182.06746","1041949.05568","1042715.78635","1043464.73493","1044231.97265","1044998.2711","1045765.27076","1049631.64208","1050398.55703","1051165.12075","1051931.82236","1052698.87489","1038881.47907","1039648.75327","1040415.55382","1051941.41941","Mapping"
"Blocked","Male","ball","3","M_knife.wav","None","721.705164411","233","1048882.10422","1041182.06746","1041949.05568","1042715.78635","1043464.73493","1044231.97265","1044998.2711","1045765.27076","1049631.64208","1050398.55703","1051165.12075","1051931.82236","1052698.87489","1053465.30381","1039648.75327","1040415.55382","1052709.4752","Mapping"
"Blocked","Male","ball","3","M_lash.wav","None","719.837449025","233","1048882.10422","1041182.06746","1041949.05568","1042715.78635","1043464.73493","1044231.97265","1044998.2711","1045765.27076","1049631.64208","1050398.55703","1051165.12075","1051931.82236","1052698.87489","1053465.30381","1054214.83394","1040415.55382","1053475.25671","Mapping"
"Blocked","Male","ball","3","M_ball.wav","None","734.705897397","233","1048882.10422","1041182.06746","1041949.05568","1042715.78635","1043464.73493","1044231.97265","1044998.2711","1045765.27076","1049631.64208","1050398.55703","1051165.12075","1051931.82236","1052698.87489","1053465.30381","1054214.83394","1054981.73126","1054224.34226","Mapping"
"Blocked","Male","ball","3","M_bluff.wav","space","406.300887931","233","1048882.10422","1055748.36517","1041949.05568","1042715.78635","1043464.73493","1044231.97265","1044998.2711","1045765.27076","1049631.64208","1050398.55703","1051165.12075","1051931.82236","1052698.87489","1053465.30381","1054214.83394","1054981.73126","1054991.54009","Mapping"
"Blocked","Male","ball","3","M_ball.wav","None","727.510818746","233","1048882.10422","1055748.36517","1056514.89828","1042715.78635","1043464.73493","1044231.97265","1044998.2711","1045765.27076","1049631.64208","1050398.55703","1051165.12075","1051931.82236","1052698.87489","1053465.30381","1054214.83394","1054981.73126","1055758.35425","Mapping"
"Blocked","Male","ball","3","M_cling.wav","space","489.630485419","233","1048882.10422","1055748.36517","1056514.89828","1057281.85187","1043464.73493","1044231.97265","1044998.2711","1045765.27076","1049631.64208","1050398.55703","1051165.12075","1051931.82236","1052698.87489","1053465.30381","1054214.83394","1054981.73126","1056524.19265","Mapping"
"Blocked","Male","ball","3","M_knife.wav","None","721.672391985","233","1048882.10422","1055748.36517","1056514.89828","1057281.85187","1058031.61822","1044231.97265","1044998.2711","1045765.27076","1049631.64208","1050398.55703","1051165.12075","1051931.82236","1052698.87489","1053465.30381","1054214.83394","1054981.73126","1057291.32463","Mapping"
"Blocked","Male","ball","3","M_cave.wav","None","735.703290207","233","1048882.10422","1055748.36517","1056514.89828","1057281.85187","1058031.61822","1058798.03353","1044998.2711","1045765.27076","1049631.64208","1050398.55703","1051165.12075","1051931.82236","1052698.87489","1053465.30381","1054214.83394","1054981.73126","1058041.19764","Mapping"
"Blocked","Male","ball","3","M_ball.wav","None","733.245981624","233","1048882.10422","1055748.36517","1056514.89828","1057281.85187","1058031.61822","1058798.03353","1059564.67641","1045765.27076","1049631.64208","1050398.55703","1051165.12075","1051931.82236","1052698.87489","1053465.30381","1054214.83394","1054981.73126","1058807.64758","Mapping"
"Blocked","Male","ball","3","M_jaw.wav","space","407.393196947","233","1048882.10422","1055748.36517","1056514.89828","1057281.85187","1058031.61822","1058798.03353","1059564.67641","1060331.6368","1049631.64208","1050398.55703","1051165.12075","1051931.82236","1052698.87489","1053465.30381","1054214.83394","1054981.73126","1059574.35167","Mapping"
"Blocked","Male","done","20","M_knife.wav","None","731.378575438","233","1063448.64525","1055748.36517","1056514.89828","1057281.85187","1058031.61822","1058798.03353","1059564.67641","1060331.6368","1049631.64208","1050398.55703","1051165.12075","1051931.82236","1052698.87489","1053465.30381","1054214.83394","1054981.73126","1060336.47227","Mapping"
"Blocked","Male","done","20","M_romp.wav","None","718.573549064","233","1063448.64525","1055748.36517","1056514.89828","1057281.85187","1058031.61822","1058798.03353","1059564.67641","1060331.6368","1064198.18899","1050398.55703","1051165.12075","1051931.82236","1052698.87489","1053465.30381","1054214.83394","1054981.73126","1063459.08108","Mapping"
"Blocked","Male","done","20","M_reek.wav","None","733.970374451","233","1063448.64525","1055748.36517","1056514.89828","1057281.85187","1058031.61822","1058798.03353","1059564.67641","1060331.6368","1064198.18899","1064964.87391","1051165.12075","1051931.82236","1052698.87489","1053465.30381","1054214.83394","1054981.73126","1064207.83612","Mapping"
"Blocked","Male","done","20","M_knife.wav","None","731.215950334","233","1063448.64525","1055748.36517","1056514.89828","1057281.85187","1058031.61822","1058798.03353","1059564.67641","1060331.6368","1064198.18899","1064964.87391","1065731.56964","1051931.82236","1052698.87489","1053465.30381","1054214.83394","1054981.73126","1064974.47992","Mapping"
"Blocked","Male","done","20","M_done.wav","None","728.260563686","233","1063448.64525","1055748.36517","1056514.89828","1057281.85187","1058031.61822","1058798.03353","1059564.67641","1060331.6368","1064198.18899","1064964.87391","1065731.56964","1066498.2762","1052698.87489","1053465.30381","1054214.83394","1054981.73126","1065741.30675","Mapping"
"Blocked","Male","done","20","M_gnash.wav","space","432.848044788","233","1063448.64525","1055748.36517","1056514.89828","1057281.85187","1058031.61822","1058798.03353","1059564.67641","1060331.6368","1064198.18899","1064964.87391","1065731.56964","1066498.2762","1067265.04707","1053465.30381","1054214.83394","1054981.73126","1066508.77387","Mapping"
"Blocked","Male","done","20","M_cling.wav","None","720.919246087","233","1063448.64525","1055748.36517","1056514.89828","1057281.85187","1058031.61822","1058798.03353","1059564.67641","1060331.6368","1064198.18899","1064964.87391","1065731.56964","1066498.2762","1067265.04707","1068015.10775","1054214.83394","1054981.73126","1067275.52093","Mapping"
"Blocked","Male","done","20","M_done.wav","None","735.647329828","233","1063448.64525","1055748.36517","1056514.89828","1057281.85187","1058031.61822","1058798.03353","1059564.67641","1060331.6368","1064198.18899","1064964.87391","1065731.56964","1066498.2762","1067265.04707","1068015.10775","1068781.52492","1054981.73126","1068024.66831","Mapping"
"Blocked","Male","done","20","M_cad.wav","space","358.294946956","233","1063448.64525","1055748.36517","1056514.89828","1057281.85187","1058031.61822","1058798.03353","1059564.67641","1060331.6368","1064198.18899","1064964.87391","1065731.56964","1066498.2762","1067265.04707","1068015.10775","1068781.52492","1069548.19284","1068791.28676","Mapping"
"Blocked","Male","done","20","M_done.wav","None","729.12810382","233","1063448.64525","1070314.6771","1056514.89828","1057281.85187","1058031.61822","1058798.03353","1059564.67641","1060331.6368","1064198.18899","1064964.87391","1065731.56964","1066498.2762","1067265.04707","1068015.10775","1068781.52492","1069548.19284","1069558.16707","Mapping"
"Blocked","Male","done","20","M_cave.wav","space","505.304020829","233","1063448.64525","1070314.6771","1071081.82732","1057281.85187","1058031.61822","1058798.03353","1059564.67641","1060331.6368","1064198.18899","1064964.87391","1065731.56964","1066498.2762","1067265.04707","1068015.10775","1068781.52492","1069548.19284","1070324.24168","Mapping"
"Blocked","Male","done","20","M_done.wav","None","722.400494968","233","1063448.64525","1070314.6771","1071081.82732","1071847.70066","1058031.61822","1058798.03353","1059564.67641","1060331.6368","1064198.18899","1064964.87391","1065731.56964","1066498.2762","1067265.04707","1068015.10775","1068781.52492","1069548.19284","1071092.23193","Mapping"
"Blocked","Male","done","20","M_cad.wav","space","452.661100077","233","1063448.64525","1070314.6771","1071081.82732","1071847.70066","1072598.2554","1058798.03353","1059564.67641","1060331.6368","1064198.18899","1064964.87391","1065731.56964","1066498.2762","1067265.04707","1068015.10775","1068781.52492","1069548.19284","1071856.8729","Mapping"
"Blocked","Male","done","20","M_reek.wav","None","735.065465909","233","1063448.64525","1070314.6771","1071081.82732","1071847.70066","1072598.2554","1073364.67226","1059564.67641","1060331.6368","1064198.18899","1064964.87391","1065731.56964","1066498.2762","1067265.04707","1068015.10775","1068781.52492","1069548.19284","1072608.33784","Mapping"
"Blocked","Male","done","20","M_ball.wav","None","732.836017967","233","1063448.64525","1070314.6771","1071081.82732","1071847.70066","1072598.2554","1073364.67226","1074131.39737","1060331.6368","1064198.18899","1064964.87391","1065731.56964","1066498.2762","1067265.04707","1068015.10775","1068781.52492","1069548.19284","1073374.62177","Mapping"
"Blocked","Male","done","20","M_park.wav","None","730.036454624","233","1063448.64525","1070314.6771","1071081.82732","1071847.70066","1072598.2554","1073364.67226","1074131.39737","1074898.07271","1064198.18899","1064964.87391","1065731.56964","1066498.2762","1067265.04707","1068015.10775","1068781.52492","1069548.19284","1074141.3543","Mapping"
"Blocked","Male","done","19","M_reek.wav","None","728.452869458","233","1078031.702","1070314.6771","1071081.82732","1071847.70066","1072598.2554","1073364.67226","1074131.39737","1074898.07271","1064198.18899","1064964.87391","1065731.56964","1066498.2762","1067265.04707","1068015.10775","1068781.52492","1069548.19284","1074907.55845","Mapping"
"Blocked","Male","done","19","M_done.wav","None","719.673896441","233","1078031.702","1070314.6771","1071081.82732","1071847.70066","1072598.2554","1073364.67226","1074131.39737","1074898.07271","1078781.11496","1064964.87391","1065731.56964","1066498.2762","1067265.04707","1068015.10775","1068781.52492","1069548.19284","1078042.14494","Mapping"
"Blocked","Male","done","19","M_priest.wav","space","662.095953128","233","1078031.702","1070314.6771","1071081.82732","1071847.70066","1072598.2554","1073364.67226","1074131.39737","1074898.07271","1078781.11496","1079547.98384","1065731.56964","1066498.2762","1067265.04707","1068015.10775","1068781.52492","1069548.19284","1078791.3421","Mapping"
"Blocked","Male","done","19","M_done.wav","None","731.181013747","233","1078031.702","1070314.6771","1071081.82732","1071847.70066","1072598.2554","1073364.67226","1074131.39737","1074898.07271","1078781.11496","1079547.98384","1080314.63134","1066498.2762","1067265.04707","1068015.10775","1068781.52492","1069548.19284","1079557.61087","Mapping"
"Blocked","Male","done","19","M_greet.wav","space","417.10309044","233","1078031.702","1070314.6771","1071081.82732","1071847.70066","1072598.2554","1073364.67226","1074131.39737","1074898.07271","1078781.11496","1079547.98384","1080314.63134","1081081.32028","1067265.04707","1068015.10775","1068781.52492","1069548.19284","1080324.30908","Mapping"
"Blocked","Male","done","19","M_jaw.wav","None","725.104523823","233","1078031.702","1070314.6771","1071081.82732","1071847.70066","1072598.2554","1073364.67226","1074131.39737","1074898.07271","1078781.11496","1079547.98384","1080314.63134","1081081.32028","1081848.42351","1068015.10775","1068781.52492","1069548.19284","1081090.88363","Mapping"
"Blocked","Male","done","19","M_jolt.wav","None","720.802378608","233","1078031.702","1070314.6771","1071081.82732","1071847.70066","1072598.2554","1073364.67226","1074131.39737","1074898.07271","1078781.11496","1079547.98384","1080314.63134","1081081.32028","1081848.42351","1082615.02897","1068781.52492","1069548.19284","1081858.97868","Mapping"
"Blocked","Male","done","19","M_cad.wav","None","718.721024692","233","1078031.702","1070314.6771","1071081.82732","1071847.70066","1072598.2554","1073364.67226","1074131.39737","1074898.07271","1078781.11496","1079547.98384","1080314.63134","1081081.32028","1081848.42351","1082615.02897","1083364.28796","1069548.19284","1082625.10585","Mapping"
"Blocked","Male","done","19","M_done.wav","None","733.799092472","233","1078031.702","1070314.6771","1071081.82732","1071847.70066","1072598.2554","1073364.67226","1074131.39737","1074898.07271","1078781.11496","1079547.98384","1080314.63134","1081081.32028","1081848.42351","1082615.02897","1083364.28796","1084130.95495","1083373.95921","Mapping"
"Blocked","Male","done","19","M_priest.wav","space","464.818717795","233","1078031.702","1084897.57092","1071081.82732","1071847.70066","1072598.2554","1073364.67226","1074131.39737","1074898.07271","1078781.11496","1079547.98384","1080314.63134","1081081.32028","1081848.42351","1082615.02897","1083364.28796","1084130.95495","1084140.44564","Mapping"
"Blocked","Male","done","19","M_jolt.wav","None","727.869150462","233","1078031.702","1084897.57092","1085664.44351","1071847.70066","1072598.2554","1073364.67226","1074131.39737","1074898.07271","1078781.11496","1079547.98384","1080314.63134","1081081.32028","1081848.42351","1082615.02897","1083364.28796","1084130.95495","1084906.88012","Mapping"
"Blocked","Male","done","19","M_ball.wav","None","724.644783186","233","1078031.702","1084897.57092","1085664.44351","1086431.58785","1072598.2554","1073364.67226","1074131.39737","1074898.07271","1078781.11496","1079547.98384","1080314.63134","1081081.32028","1081848.42351","1082615.02897","1083364.28796","1084130.95495","1085674.20689","Mapping"
"Blocked","Male","done","19","M_gnash.wav","None","721.018490731","233","1078031.702","1084897.57092","1085664.44351","1086431.58785","1087198.29967","1073364.67226","1074131.39737","1074898.07271","1078781.11496","1079547.98384","1080314.63134","1081081.32028","1081848.42351","1082615.02897","1083364.28796","1084130.95495","1086441.91609","Mapping"
"Blocked","Male","done","19","M_cave.wav","None","718.314771075","233","1078031.702","1084897.57092","1085664.44351","1086431.58785","1087198.29967","1087947.85856","1074131.39737","1074898.07271","1078781.11496","1079547.98384","1080314.63134","1081081.32028","1081848.42351","1082615.02897","1083364.28796","1084130.95495","1087208.69995","Mapping"
"Blocked","Male","done","19","M_done.wav","None","733.218465233","233","1078031.702","1084897.57092","1085664.44351","1086431.58785","1087198.29967","1087947.85856","1088714.27851","1074898.07271","1078781.11496","1079547.98384","1080314.63134","1081081.32028","1081848.42351","1082615.02897","1083364.28796","1084130.95495","1087957.80095","Mapping"
"Blocked","Male","done","19","M_cling.wav","space","593.21834764","233","1078031.702","1084897.57092","1085664.44351","1086431.58785","1087198.29967","1087947.85856","1088714.27851","1089481.14275","1078781.11496","1079547.98384","1080314.63134","1081081.32028","1081848.42351","1082615.02897","1083364.28796","1084130.95495","1088723.99768","Mapping"
"Blocked","Male","cave","11","M_tile.wav","None","727.063135942","233","1092614.8042","1084897.57092","1085664.44351","1086431.58785","1087198.29967","1087947.85856","1088714.27851","1089481.14275","1078781.11496","1079547.98384","1080314.63134","1081081.32028","1081848.42351","1082615.02897","1083364.28796","1084130.95495","1089490.96117","Mapping"
"Blocked","Male","cave","11","M_cad.wav","None","718.820887618","233","1092614.8042","1084897.57092","1085664.44351","1086431.58785","1087198.29967","1087947.85856","1088714.27851","1089481.14275","1093364.14636","1079547.98384","1080314.63134","1081081.32028","1081848.42351","1082615.02897","1083364.28796","1084130.95495","1092625.10833","Mapping"
"Blocked","Male","cave","11","M_cave.wav","None","734.370135353","233","1092614.8042","1084897.57092","1085664.44351","1086431.58785","1087198.29967","1087947.85856","1088714.27851","1089481.14275","1093364.14636","1094131.11603","1080314.63134","1081081.32028","1081848.42351","1082615.02897","1083364.28796","1084130.95495","1093373.67106","Mapping"
"Blocked","Male","cave","11","M_greet.wav","space","560.293257004","233","1092614.8042","1084897.57092","1085664.44351","1086431.58785","1087198.29967","1087947.85856","1088714.27851","1089481.14275","1093364.14636","1094131.11603","1094897.69088","1081081.32028","1081848.42351","1082615.02897","1083364.28796","1084130.95495","1094140.83118","Mapping"
"Blocked","Male","cave","11","M_cad.wav","None","727.845653309","233","1092614.8042","1084897.57092","1085664.44351","1086431.58785","1087198.29967","1087947.85856","1088714.27851","1089481.14275","1093364.14636","1094131.11603","1094897.69088","1095664.24131","1081848.42351","1082615.02897","1083364.28796","1084130.95495","1094907.17044","Mapping"
"Blocked","Male","cave","11","M_gnash.wav","None","725.439049187","233","1092614.8042","1084897.57092","1085664.44351","1086431.58785","1087198.29967","1087947.85856","1088714.27851","1089481.14275","1093364.14636","1094131.11603","1094897.69088","1095664.24131","1096431.43049","1082615.02897","1083364.28796","1084130.95495","1095673.53505","Mapping"
"Blocked","Male","cave","11","M_ball.wav","None","721.036422765","233","1092614.8042","1084897.57092","1085664.44351","1086431.58785","1087198.29967","1087947.85856","1088714.27851","1089481.14275","1093364.14636","1094131.11603","1094897.69088","1095664.24131","1096431.43049","1097198.07212","1083364.28796","1084130.95495","1096442.14148","Mapping"
"Blocked","Male","cave","11","M_priest.wav","None","718.750705244","233","1092614.8042","1084897.57092","1085664.44351","1086431.58785","1087198.29967","1087947.85856","1088714.27851","1089481.14275","1093364.14636","1094131.11603","1094897.69088","1095664.24131","1096431.43049","1097198.07212","1097947.58896","1084130.95495","1097208.40221","Mapping"
"Blocked","Male","cave","11","M_tile.wav","None","733.760445728","233","1092614.8042","1084897.57092","1085664.44351","1086431.58785","1087198.29967","1087947.85856","1088714.27851","1089481.14275","1093364.14636","1094131.11603","1094897.69088","1095664.24131","1096431.43049","1097198.07212","1097947.58896","1098714.00953","1097957.47539","Mapping"
"Blocked","Male","cave","11","M_cave.wav","None","732.198193553","233","1092614.8042","1099480.6926","1085664.44351","1086431.58785","1087198.29967","1087947.85856","1088714.27851","1089481.14275","1093364.14636","1094131.11603","1094897.69088","1095664.24131","1096431.43049","1097198.07212","1097947.58896","1098714.00953","1098723.1861","Mapping"
"Blocked","Male","cave","11","M_greet.wav","space","474.817688344","233","1092614.8042","1099480.6926","1100247.63351","1086431.58785","1087198.29967","1087947.85856","1088714.27851","1089481.14275","1093364.14636","1094131.11603","1094897.69088","1095664.24131","1096431.43049","1097198.07212","1097947.58896","1098714.00953","1099490.21173","Mapping"
"Blocked","Male","cave","11","M_cave.wav","None","724.749283632","233","1092614.8042","1099480.6926","1100247.63351","1101014.66254","1087198.29967","1087947.85856","1088714.27851","1089481.14275","1093364.14636","1094131.11603","1094897.69088","1095664.24131","1096431.43049","1097198.07212","1097947.58896","1098714.00953","1100257.54931","Mapping"
"Blocked","Male","cave","11","M_knife.wav","space","516.358199413","233","1092614.8042","1099480.6926","1100247.63351","1101014.66254","1101781.32025","1087947.85856","1088714.27851","1089481.14275","1093364.14636","1094131.11603","1094897.69088","1095664.24131","1096431.43049","1097198.07212","1097947.58896","1098714.00953","1101024.65316","Mapping"
"Blocked","Male","cave","11","M_cave.wav","None","717.636135989","233","1092614.8042","1099480.6926","1100247.63351","1101014.66254","1101781.32025","1102530.5508","1088714.27851","1089481.14275","1093364.14636","1094131.11603","1094897.69088","1095664.24131","1096431.43049","1097198.07212","1097947.58896","1098714.00953","1101791.93138","Mapping"
"Blocked","Male","cave","11","M_ball.wav","space","360.980734462","233","1092614.8042","1099480.6926","1100247.63351","1101014.66254","1101781.32025","1102530.5508","1103297.10308","1089481.14275","1093364.14636","1094131.11603","1094897.69088","1095664.24131","1096431.43049","1097198.07212","1097947.58896","1098714.00953","1102540.00778","Mapping"
"Blocked","Male","cave","11","M_ball.wav","None","733.107781154","233","1092614.8042","1099480.6926","1100247.63351","1101014.66254","1101781.32025","1102530.5508","1103297.10308","1104063.91909","1093364.14636","1094131.11603","1094897.69088","1095664.24131","1096431.43049","1097198.07212","1097947.58896","1098714.00953","1103306.0824","Mapping"
"Blocked","Male","ball","2","M_jaw.wav","None","729.914640309","233","1107197.89311","1099480.6926","1100247.63351","1101014.66254","1101781.32025","1102530.5508","1103297.10308","1104063.91909","1093364.14636","1094131.11603","1094897.69088","1095664.24131","1096431.43049","1097198.07212","1097947.58896","1098714.00953","1104073.40483","Mapping"
"Blocked","Male","ball","2","M_ball.wav","None","719.233324635","233","1107197.89311","1099480.6926","1100247.63351","1101014.66254","1101781.32025","1102530.5508","1103297.10308","1104063.91909","1107947.39387","1094131.11603","1094897.69088","1095664.24131","1096431.43049","1097198.07212","1097947.58896","1098714.00953","1107208.05501","Mapping"
"Blocked","Male","ball","2","M_jaw.wav","space","543.671796564","233","1107197.89311","1099480.6926","1100247.63351","1101014.66254","1101781.32025","1102530.5508","1103297.10308","1104063.91909","1107947.39387","1108714.03025","1094897.69088","1095664.24131","1096431.43049","1097198.07212","1097947.58896","1098714.00953","1107957.20486","Mapping"
"Blocked","Male","ball","2","M_ball.wav","None","730.658201966","233","1107197.89311","1099480.6926","1100247.63351","1101014.66254","1101781.32025","1102530.5508","1103297.10308","1104063.91909","1107947.39387","1108714.03025","1109480.8107","1095664.24131","1096431.43049","1097198.07212","1097947.58896","1098714.00953","1108723.69067","Mapping"
"Blocked","Male","ball","2","M_romp.wav","space","338.558566524","233","1107197.89311","1099480.6926","1100247.63351","1101014.66254","1101781.32025","1102530.5508","1103297.10308","1104063.91909","1107947.39387","1108714.03025","1109480.8107","1110247.43038","1096431.43049","1097198.07212","1097947.58896","1098714.00953","1109490.28315","Mapping"
"Blocked","Male","ball","2","M_cave.wav","None","723.79733948","233","1107197.89311","1099480.6926","1100247.63351","1101014.66254","1101781.32025","1102530.5508","1103297.10308","1104063.91909","1107947.39387","1108714.03025","1109480.8107","1110247.43038","1111014.33543","1097198.07212","1097947.58896","1098714.00953","1110257.69215","Mapping"
"Blocked","Male","ball","2","M_cling.wav","None","721.452260739","233","1107197.89311","1099480.6926","1100247.63351","1101014.66254","1101781.32025","1102530.5508","1103297.10308","1104063.91909","1107947.39387","1108714.03025","1109480.8107","1110247.43038","1111014.33543","1111780.54577","1097947.58896","1098714.00953","1111024.42777","Mapping"
"Blocked","Male","ball","2","M_romp.wav","None","720.057271305","233","1107197.89311","1099480.6926","1100247.63351","1101014.66254","1101781.32025","1102530.5508","1103297.10308","1104063.91909","1107947.39387","1108714.03025","1109480.8107","1110247.43038","1111014.33543","1111780.54577","1112530.63798","1098714.00953","1111790.10201","Mapping"
"Blocked","Male","ball","2","M_jolt.wav","None","734.010566841","233","1107197.89311","1099480.6926","1100247.63351","1101014.66254","1101781.32025","1102530.5508","1103297.10308","1104063.91909","1107947.39387","1108714.03025","1109480.8107","1110247.43038","1111014.33543","1111780.54577","1112530.63798","1113297.38597","1112540.56461","Mapping"
"Blocked","Male","ball","2","M_greet.wav","None","732.175623998","233","1107197.89311","1114063.91847","1100247.63351","1101014.66254","1101781.32025","1102530.5508","1103297.10308","1104063.91909","1107947.39387","1108714.03025","1109480.8107","1110247.43038","1111014.33543","1111780.54577","1112530.63798","1113297.38597","1113307.16172","Mapping"
"Blocked","Male","ball","2","M_cave.wav","None","729.93133578","233","1107197.89311","1114063.91847","1114830.72056","1101014.66254","1101781.32025","1102530.5508","1103297.10308","1104063.91909","1107947.39387","1108714.03025","1109480.8107","1110247.43038","1111014.33543","1111780.54577","1112530.63798","1113297.38597","1114073.73224","Mapping"
"Blocked","Male","ball","2","M_gnash.wav","None","727.683646488","233","1107197.89311","1114063.91847","1114830.72056","1115597.29356","1101781.32025","1102530.5508","1103297.10308","1104063.91909","1107947.39387","1108714.03025","1109480.8107","1110247.43038","1111014.33543","1111780.54577","1112530.63798","1113297.38597","1114840.16178","Mapping"
"Blocked","Male","ball","2","M_ball.wav","None","724.619431072","233","1107197.89311","1114063.91847","1114830.72056","1115597.29356","1116364.2286","1102530.5508","1103297.10308","1104063.91909","1107947.39387","1108714.03025","1109480.8107","1110247.43038","1111014.33543","1111780.54577","1112530.63798","1113297.38597","1115607.54482","Mapping"
"Blocked","Male","ball","2","M_lash.wav","space","398.629991687","233","1107197.89311","1114063.91847","1114830.72056","1115597.29356","1116364.2286","1117131.10799","1103297.10308","1104063.91909","1107947.39387","1108714.03025","1109480.8107","1110247.43038","1111014.33543","1111780.54577","1112530.63798","1113297.38597","1116374.14038","Mapping"
"Blocked","Male","ball","2","M_ball.wav","None","718.567056465","233","1107197.89311","1114063.91847","1114830.72056","1115597.29356","1116364.2286","1117131.10799","1117880.49188","1104063.91909","1107947.39387","1108714.03025","1109480.8107","1110247.43038","1111014.33543","1111780.54577","1112530.63798","1113297.38597","1117141.42448","Mapping"
"Blocked","Male","ball","2","M_jolt.wav","space","354.559516301","233","1107197.89311","1114063.91847","1114830.72056","1115597.29356","1116364.2286","1117131.10799","1117880.49188","1118647.04015","1107947.39387","1108714.03025","1109480.8107","1110247.43038","1111014.33543","1111780.54577","1112530.63798","1113297.38597","1117890.14025","Mapping"
"Blocked","Male","ball","1","M_done.wav","None","730.644598254","233","1121781.17958","1114063.91847","1114830.72056","1115597.29356","1116364.2286","1117131.10799","1117880.49188","1118647.04015","1107947.39387","1108714.03025","1109480.8107","1110247.43038","1111014.33543","1111780.54577","1112530.63798","1113297.38597","1118656.57041","Mapping"
"Blocked","Male","ball","1","M_cave.wav","None","719.150466262","233","1121781.17958","1114063.91847","1114830.72056","1115597.29356","1116364.2286","1117131.10799","1117880.49188","1118647.04015","1122530.18566","1108714.03025","1109480.8107","1110247.43038","1111014.33543","1111780.54577","1112530.63798","1113297.38597","1121791.66766","Mapping"
"Blocked","Male","ball","1","M_park.wav","None","735.27044768","233","1121781.17958","1114063.91847","1114830.72056","1115597.29356","1116364.2286","1117131.10799","1117880.49188","1118647.04015","1122530.18566","1123297.19892","1109480.8107","1110247.43038","1111014.33543","1111780.54577","1112530.63798","1113297.38597","1122539.8331","Mapping"
"Blocked","Male","ball","1","M_greet.wav","None","732.699054177","233","1121781.17958","1114063.91847","1114830.72056","1115597.29356","1116364.2286","1117131.10799","1117880.49188","1118647.04015","1122530.18566","1123297.19892","1124063.57652","1110247.43038","1111014.33543","1111780.54577","1112530.63798","1113297.38597","1123307.27457","Mapping"
"Blocked","Male","ball","1","M_ball.wav","None","731.303137261","233","1121781.17958","1114063.91847","1114830.72056","1115597.29356","1116364.2286","1117131.10799","1117880.49188","1118647.04015","1122530.18566","1123297.19892","1124063.57652","1124830.47106","1111014.33543","1111780.54577","1112530.63798","1113297.38597","1124073.03382","Mapping"
"Blocked","Male","ball","1","M_reek.wav","space","404.236847651","233","1121781.17958","1114063.91847","1114830.72056","1115597.29356","1116364.2286","1117131.10799","1117880.49188","1118647.04015","1122530.18566","1123297.19892","1124063.57652","1124830.47106","1125597.18411","1111780.54577","1112530.63798","1113297.38597","1124840.33956","Mapping"
"Blocked","Male","ball","1","M_ball.wav","None","724.578001769","233","1121781.17958","1114063.91847","1114830.72056","1115597.29356","1116364.2286","1117131.10799","1117880.49188","1118647.04015","1122530.18566","1123297.19892","1124063.57652","1124830.47106","1125597.18411","1126364.0465","1112530.63798","1113297.38597","1125606.97656","Mapping"
"Blocked","Male","ball","1","M_cave.wav","space","429.959130473","233","1121781.17958","1114063.91847","1114830.72056","1115597.29356","1116364.2286","1117131.10799","1117880.49188","1118647.04015","1122530.18566","1123297.19892","1124063.57652","1124830.47106","1125597.18411","1126364.0465","1127114.01071","1113297.38597","1126374.57694","Mapping"
"Blocked","Male","ball","1","M_dime.wav","None","735.243858886","233","1121781.17958","1114063.91847","1114830.72056","1115597.29356","1116364.2286","1117131.10799","1117880.49188","1118647.04015","1122530.18566","1123297.19892","1124063.57652","1124830.47106","1125597.18411","1126364.0465","1127114.01071","1127880.38738","1127123.66402","Mapping"
"Blocked","Male","ball","1","M_tile.wav","None","733.357283985","233","1121781.17958","1128647.14588","1114830.72056","1115597.29356","1116364.2286","1117131.10799","1117880.49188","1118647.04015","1122530.18566","1123297.19892","1124063.57652","1124830.47106","1125597.18411","1126364.0465","1127114.01071","1127880.38738","1127889.92197","Mapping"
"Blocked","Male","ball","1","M_ball.wav","None","731.095372816","233","1121781.17958","1128647.14588","1129413.59985","1115597.29356","1116364.2286","1117131.10799","1117880.49188","1118647.04015","1122530.18566","1123297.19892","1124063.57652","1124830.47106","1125597.18411","1126364.0465","1127114.01071","1127880.38738","1128656.83197","Mapping"
"Blocked","Male","ball","1","M_lash.wav","space","386.57718373","233","1121781.17958","1128647.14588","1129413.59985","1130180.09988","1116364.2286","1117131.10799","1117880.49188","1118647.04015","1122530.18566","1123297.19892","1124063.57652","1124830.47106","1125597.18411","1126364.0465","1127114.01071","1127880.38738","1129417.9156","Mapping"
"Blocked","Male","ball","1","M_bluff.wav","None","726.075636689","233","1121781.17958","1128647.14588","1129413.59985","1130180.09988","1130947.48353","1117131.10799","1117880.49188","1118647.04015","1122530.18566","1123297.19892","1124063.57652","1124830.47106","1125597.18411","1126364.0465","1127114.01071","1127880.38738","1130189.52595","Mapping"
"Blocked","Male","ball","1","M_ball.wav","None","722.291665967","233","1121781.17958","1128647.14588","1129413.59985","1130180.09988","1130947.48353","1131714.06766","1117880.49188","1118647.04015","1122530.18566","1123297.19892","1124063.57652","1124830.47106","1125597.18411","1126364.0465","1127114.01071","1127880.38738","1130957.55547","Mapping"
"Blocked","Male","ball","1","M_cling.wav","space","480.319116265","233","1121781.17958","1128647.14588","1129413.59985","1130180.09988","1130947.48353","1131714.06766","1132463.4633","1118647.04015","1122530.18566","1123297.19892","1124063.57652","1124830.47106","1125597.18411","1126364.0465","1127114.01071","1127880.38738","1131724.14578","Mapping"
"Blocked","Male","ball","1","M_bluff.wav","None","734.312010813","233","1121781.17958","1128647.14588","1129413.59985","1130180.09988","1130947.48353","1131714.06766","1132463.4633","1133230.33929","1122530.18566","1123297.19892","1124063.57652","1124830.47106","1125597.18411","1126364.0465","1127114.01071","1127880.38738","1132473.10703","Mapping"
"Blocked","Male","ball","5","M_bluff.wav","None","731.515539228","233","1136363.98621","1128647.14588","1129413.59985","1130180.09988","1130947.48353","1131714.06766","1132463.4633","1133230.33929","1122530.18566","1123297.19892","1124063.57652","1124830.47106","1125597.18411","1126364.0465","1127114.01071","1127880.38738","1133240.32497","Mapping"
"Blocked","Male","ball","5","M_park.wav","None","718.937136699","233","1136363.98621","1128647.14588","1129413.59985","1130180.09988","1130947.48353","1131714.06766","1132463.4633","1133230.33929","1137113.39113","1123297.19892","1124063.57652","1124830.47106","1125597.18411","1126364.0465","1127114.01071","1127880.38738","1136373.82997","Mapping"
"Blocked","Male","ball","5","M_ball.wav","None","734.098372166","233","1136363.98621","1128647.14588","1129413.59985","1130180.09988","1130947.48353","1131714.06766","1132463.4633","1133230.33929","1137113.39113","1137880.24083","1124063.57652","1124830.47106","1125597.18411","1126364.0465","1127114.01071","1127880.38738","1137123.06516","Mapping"
"Blocked","Male","ball","5","M_dime.wav","space","498.396164039","233","1136363.98621","1128647.14588","1129413.59985","1130180.09988","1130947.48353","1131714.06766","1132463.4633","1133230.33929","1137113.39113","1137880.24083","1138646.98017","1124830.47106","1125597.18411","1126364.0465","1127114.01071","1127880.38738","1137889.98876","Mapping"
"Blocked","Male","ball","5","M_gnash.wav","None","727.544518537","233","1136363.98621","1128647.14588","1129413.59985","1130180.09988","1130947.48353","1131714.06766","1132463.4633","1133230.33929","1137113.39113","1137880.24083","1138646.98017","1139413.54636","1125597.18411","1126364.0465","1127114.01071","1127880.38738","1138657.08055","Mapping"
"Blocked","Male","ball","5","M_ball.wav","None","725.619606324","233","1136363.98621","1128647.14588","1129413.59985","1130180.09988","1130947.48353","1131714.06766","1132463.4633","1133230.33929","1137113.39113","1137880.24083","1138646.98017","1139413.54636","1140180.51696","1126364.0465","1127114.01071","1127880.38738","1139423.25749","Mapping"
"Blocked","Male","ball","5","M_bluff.wav","space","397.322189063","233","1136363.98621","1128647.14588","1129413.59985","1130180.09988","1130947.48353","1131714.06766","1132463.4633","1133230.33929","1137113.39113","1137880.24083","1138646.98017","1139413.54636","1140180.51696","1140947.26216","1127114.01071","1127880.38738","1140190.96268","Mapping"
"Blocked","Male","ball","5","M_park.wav","None","718.710512854","233","1136363.98621","1128647.14588","1129413.59985","1130180.09988","1130947.48353","1131714.06766","1132463.4633","1133230.33929","1137113.39113","1137880.24083","1138646.98017","1139413.54636","1140180.51696","1140947.26216","1141696.74252","1127880.38738","1140957.69398","Mapping"
"Blocked","Male","ball","5","M_ball.wav","None","734.521011938","233","1136363.98621","1128647.14588","1129413.59985","1130180.09988","1130947.48353","1131714.06766","1132463.4633","1133230.33929","1137113.39113","1137880.24083","1138646.98017","1139413.54636","1140180.51696","1140947.26216","1141696.74252","1142463.3656","1141706.28484","Mapping"
"Blocked","Male","ball","5","M_romp.wav","space","394.998752396","233","1136363.98621","1143230.16739","1129413.59985","1130180.09988","1130947.48353","1131714.06766","1132463.4633","1133230.33929","1137113.39113","1137880.24083","1138646.98017","1139413.54636","1140180.51696","1140947.26216","1141696.74252","1142463.3656","1142473.27089","Mapping"
"Blocked","Male","ball","5","M_done.wav","None","728.526761872","233","1136363.98621","1143230.16739","1143996.98834","1130180.09988","1130947.48353","1131714.06766","1132463.4633","1133230.33929","1137113.39113","1137880.24083","1138646.98017","1139413.54636","1140180.51696","1140947.26216","1141696.74252","1142463.3656","1143239.68003","Mapping"
"Blocked","Male","ball","5","M_ball.wav","None","725.798308384","233","1136363.98621","1143230.16739","1143996.98834","1144763.90762","1130947.48353","1131714.06766","1132463.4633","1133230.33929","1137113.39113","1137880.24083","1138646.98017","1139413.54636","1140180.51696","1140947.26216","1141696.74252","1142463.3656","1144006.90415","Mapping"
"Blocked","Male","ball","5","M_depth.wav","space","414.134718594","233","1136363.98621","1143230.16739","1143996.98834","1144763.90762","1145530.51524","1131714.06766","1132463.4633","1133230.33929","1137113.39113","1137880.24083","1138646.98017","1139413.54636","1140180.51696","1140947.26216","1141696.74252","1142463.3656","1144774.09982","Mapping"
"Blocked","Male","ball","5","M_cad.wav","None","718.958160607","233","1136363.98621","1143230.16739","1143996.98834","1144763.90762","1145530.51524","1146279.97488","1132463.4633","1133230.33929","1137113.39113","1137880.24083","1138646.98017","1139413.54636","1140180.51696","1140947.26216","1141696.74252","1142463.3656","1145541.14585","Mapping"
"Blocked","Male","ball","5","M_cave.wav","None","734.75103674","233","1136363.98621","1143230.16739","1143996.98834","1144763.90762","1145530.51524","1146279.97488","1147046.59395","1133230.33929","1137113.39113","1137880.24083","1138646.98017","1139413.54636","1140180.51696","1140947.26216","1141696.74252","1142463.3656","1146289.85235","Mapping"
"Blocked","Male","ball","5","M_cave.wav","None","732.937117573","233","1136363.98621","1143230.16739","1143996.98834","1144763.90762","1145530.51524","1146279.97488","1147046.59395","1147813.2566","1137113.39113","1137880.24083","1138646.98017","1139413.54636","1140180.51696","1140947.26216","1141696.74252","1142463.3656","1147056.22933","Mapping"
"Blocked","Male","tile","15","M_priest.wav","None","730.410863296","233","1150947.10448","1143230.16739","1143996.98834","1144763.90762","1145530.51524","1146279.97488","1147046.59395","1147813.2566","1137113.39113","1137880.24083","1138646.98017","1139413.54636","1140180.51696","1140947.26216","1141696.74252","1142463.3656","1147823.15169","Mapping"
"Blocked","Male","tile","15","M_reek.wav","None","719.158195658","233","1150947.10448","1143230.16739","1143996.98834","1144763.90762","1145530.51524","1146279.97488","1147046.59395","1147813.2566","1151696.52517","1137880.24083","1138646.98017","1139413.54636","1140180.51696","1140947.26216","1141696.74252","1142463.3656","1150957.06017","Mapping"
"Blocked","Male","tile","15","M_greet.wav","None","734.74980006","233","1150947.10448","1143230.16739","1143996.98834","1144763.90762","1145530.51524","1146279.97488","1147046.59395","1147813.2566","1151696.52517","1152463.31954","1138646.98017","1139413.54636","1140180.51696","1140947.26216","1141696.74252","1142463.3656","1151706.15901","Mapping"
"Blocked","Male","tile","15","M_tile.wav","None","732.648968115","233","1150947.10448","1143230.16739","1143996.98834","1144763.90762","1145530.51524","1146279.97488","1147046.59395","1147813.2566","1151696.52517","1152463.31954","1153229.87491","1139413.54636","1140180.51696","1140947.26216","1141696.74252","1142463.3656","1152472.83836","Mapping"
"Blocked","Male","tile","15","M_greet.wav","space","396.104046726","233","1150947.10448","1143230.16739","1143996.98834","1144763.90762","1145530.51524","1146279.97488","1147046.59395","1147813.2566","1151696.52517","1152463.31954","1153229.87491","1153996.67206","1140180.51696","1140947.26216","1141696.74252","1142463.3656","1153239.9453","Mapping"
"Blocked","Male","tile","15","M_reek.wav","None","727.009648923","233","1150947.10448","1143230.16739","1143996.98834","1144763.90762","1145530.51524","1146279.97488","1147046.59395","1147813.2566","1151696.52517","1152463.31954","1153229.87491","1153996.67206","1154762.96711","1140947.26216","1141696.74252","1142463.3656","1154006.60579","Mapping"
"Blocked","Male","tile","15","M_greet.wav","None","726.296386332","233","1150947.10448","1143230.16739","1143996.98834","1144763.90762","1145530.51524","1146279.97488","1147046.59395","1147813.2566","1151696.52517","1152463.31954","1153229.87491","1153996.67206","1154762.96711","1155530.30748","1141696.74252","1142463.3656","1154772.01568","Mapping"
"Blocked","Male","tile","15","M_tile.wav","None","722.602075897","233","1150947.10448","1143230.16739","1143996.98834","1144763.90762","1145530.51524","1146279.97488","1147046.59395","1147813.2566","1151696.52517","1152463.31954","1153229.87491","1153996.67206","1154762.96711","1155530.30748","1156296.82606","1142463.3656","1155540.37632","Mapping"
"Blocked","Male","tile","15","M_lash.wav","space","408.509002998","233","1150947.10448","1143230.16739","1143996.98834","1144763.90762","1145530.51524","1146279.97488","1147046.59395","1147813.2566","1151696.52517","1152463.31954","1153229.87491","1153996.67206","1154762.96711","1155530.30748","1156296.82606","1157046.44616","1156307.50552","Mapping"
"Blocked","Male","tile","15","M_park.wav","None","734.43537089","233","1150947.10448","1157813.08872","1143996.98834","1144763.90762","1145530.51524","1146279.97488","1147046.59395","1147813.2566","1151696.52517","1152463.31954","1153229.87491","1153996.67206","1154762.96711","1155530.30748","1156296.82606","1157046.44616","1157056.1239","Mapping"
"Blocked","Male","tile","15","M_lash.wav","None","732.380914968","233","1150947.10448","1157813.08872","1158579.89546","1144763.90762","1145530.51524","1146279.97488","1147046.59395","1147813.2566","1151696.52517","1152463.31954","1153229.87491","1153996.67206","1154762.96711","1155530.30748","1156296.82606","1157046.44616","1157822.72874","Mapping"
"Blocked","Male","tile","15","M_tile.wav","None","729.762836359","233","1150947.10448","1157813.08872","1158579.89546","1159346.55595","1145530.51524","1146279.97488","1147046.59395","1147813.2566","1151696.52517","1152463.31954","1153229.87491","1153996.67206","1154762.96711","1155530.30748","1156296.82606","1157046.44616","1158589.87062","Mapping"
"Blocked","Male","tile","15","M_gnash.wav","space","623.301827582","233","1150947.10448","1157813.08872","1158579.89546","1159346.55595","1160113.12462","1146279.97488","1147046.59395","1147813.2566","1151696.52517","1152463.31954","1153229.87491","1153996.67206","1154762.96711","1155530.30748","1156296.82606","1157046.44616","1159356.67179","Mapping"
"Blocked","Male","tile","15","M_priest.wav","None","725.094939349","233","1150947.10448","1157813.08872","1158579.89546","1159346.55595","1160113.12462","1160880.27206","1147046.59395","1147813.2566","1151696.52517","1152463.31954","1153229.87491","1153996.67206","1154762.96711","1155530.30748","1156296.82606","1157046.44616","1160122.88985","Mapping"
"Blocked","Male","tile","15","M_tile.wav","None","722.172325128","233","1150947.10448","1157813.08872","1158579.89546","1159346.55595","1160113.12462","1160880.27206","1161646.91369","1147813.2566","1151696.52517","1152463.31954","1153229.87491","1153996.67206","1154762.96711","1155530.30748","1156296.82606","1157046.44616","1160890.41943","Mapping"
"Blocked","Male","tile","15","M_jaw.wav","space","547.017668956","233","1150947.10448","1157813.08872","1158579.89546","1159346.55595","1160113.12462","1160880.27206","1161646.91369","1162396.06076","1151696.52517","1152463.31954","1153229.87491","1153996.67206","1154762.96711","1155530.30748","1156296.82606","1157046.44616","1161656.94204","Mapping"
"Blocked","Male","ball","6","M_greet.wav","None","735.206448939","233","1165530.17855","1157813.08872","1158579.89546","1159346.55595","1160113.12462","1160880.27206","1161646.91369","1162396.06076","1151696.52517","1152463.31954","1153229.87491","1153996.67206","1154762.96711","1155530.30748","1156296.82606","1157046.44616","1162405.14736","Mapping"
"Blocked","Male","ball","6","M_ball.wav","None","719.473242993","233","1165530.17855","1157813.08872","1158579.89546","1159346.55595","1160113.12462","1160880.27206","1161646.91369","1162396.06076","1166279.55904","1152463.31954","1153229.87491","1153996.67206","1154762.96711","1155530.30748","1156296.82606","1157046.44616","1165540.46011","Mapping"
"Blocked","Male","ball","6","M_done.wav","space","522.370072198","233","1165530.17855","1157813.08872","1158579.89546","1159346.55595","1160113.12462","1160880.27206","1161646.91369","1162396.06076","1166279.55904","1167046.45482","1153229.87491","1153996.67206","1154762.96711","1155530.30748","1156296.82606","1157046.44616","1166289.4597","Mapping"
"Blocked","Male","ball","6","M_dime.wav","None","731.225534691","233","1165530.17855","1157813.08872","1158579.89546","1159346.55595","1160113.12462","1160880.27206","1161646.91369","1162396.06076","1166279.55904","1167046.45482","1167812.95516","1153996.67206","1154762.96711","1155530.30748","1156296.82606","1157046.44616","1167056.353","Mapping"
"Blocked","Male","ball","6","M_priest.wav","None","729.576713988","233","1165530.17855","1157813.08872","1158579.89546","1159346.55595","1160113.12462","1160880.27206","1161646.91369","1162396.06076","1166279.55904","1167046.45482","1167812.95516","1168579.74458","1154762.96711","1155530.30748","1156296.82606","1157046.44616","1167822.55684","Mapping"
"Blocked","Male","ball","6","M_cling.wav","None","727.384985308","233","1165530.17855","1157813.08872","1158579.89546","1159346.55595","1160113.12462","1160880.27206","1161646.91369","1162396.06076","1166279.55904","1167046.45482","1167812.95516","1168579.74458","1169346.4261","1155530.30748","1156296.82606","1157046.44616","1168589.33111","Mapping"
"Blocked","Male","ball","6","M_ball.wav","None","725.009916816","233","1165530.17855","1157813.08872","1158579.89546","1159346.55595","1160113.12462","1160880.27206","1161646.91369","1162396.06076","1166279.55904","1167046.45482","1167812.95516","1168579.74458","1169346.4261","1170113.5924","1156296.82606","1157046.44616","1169356.26615","Mapping"
"Blocked","Male","ball","6","M_romp.wav","space","408.093474107","233","1165530.17855","1157813.08872","1158579.89546","1159346.55595","1160113.12462","1160880.27206","1161646.91369","1162396.06076","1166279.55904","1167046.45482","1167812.95516","1168579.74458","1169346.4261","1170113.5924","1170880.12273","1157046.44616","1170123.68288","Mapping"
"Blocked","Male","ball","6","M_park.wav","None","718.683305546","233","1165530.17855","1157813.08872","1158579.89546","1159346.55595","1160113.12462","1160880.27206","1161646.91369","1162396.06076","1166279.55904","1167046.45482","1167812.95516","1168579.74458","1169346.4261","1170113.5924","1170880.12273","1171629.63184","1170890.13469","Mapping"
"Blocked","Male","ball","6","M_park.wav","None","734.131762758","233","1165530.17855","1172396.28399","1158579.89546","1159346.55595","1160113.12462","1160880.27206","1161646.91369","1162396.06076","1166279.55904","1167046.45482","1167812.95516","1168579.74458","1169346.4261","1170113.5924","1170880.12273","1171629.63184","1171639.26691","Mapping"
"Blocked","Male","ball","6","M_ball.wav","None","731.955183437","233","1165530.17855","1172396.28399","1173162.7126","1159346.55595","1160113.12462","1160880.27206","1161646.91369","1162396.06076","1166279.55904","1167046.45482","1167812.95516","1168579.74458","1169346.4261","1170113.5924","1170880.12273","1171629.63184","1172406.04025","Mapping"
"Blocked","Male","ball","6","M_greet.wav","space","463.39868533","233","1165530.17855","1172396.28399","1173162.7126","1173929.4204","1160113.12462","1160880.27206","1161646.91369","1162396.06076","1166279.55904","1167046.45482","1167812.95516","1168579.74458","1169346.4261","1170113.5924","1170880.12273","1171629.63184","1173172.29635","Mapping"
"Blocked","Male","ball","6","M_greet.wav","None","726.907621836","233","1165530.17855","1172396.28399","1173162.7126","1173929.4204","1174696.26207","1160880.27206","1161646.91369","1162396.06076","1166279.55904","1167046.45482","1167812.95516","1168579.74458","1169346.4261","1170113.5924","1170880.12273","1171629.63184","1173938.78061","Mapping"
"Blocked","Male","ball","6","M_ball.wav","None","724.51956803","233","1165530.17855","1172396.28399","1173162.7126","1173929.4204","1174696.26207","1175463.71064","1161646.91369","1162396.06076","1166279.55904","1167046.45482","1167812.95516","1168579.74458","1169346.4261","1170113.5924","1170880.12273","1171629.63184","1174705.73513","Mapping"
"Blocked","Male","ball","6","M_cad.wav","space","442.031107144","233","1165530.17855","1172396.28399","1173162.7126","1173929.4204","1174696.26207","1175463.71064","1176212.79278","1162396.06076","1166279.55904","1167046.45482","1167812.95516","1168579.74458","1169346.4261","1170113.5924","1170880.12273","1171629.63184","1175473.62366","Mapping"
"Blocked","Male","ball","6","M_jolt.wav","None","735.818921006","233","1165530.17855","1172396.28399","1173162.7126","1173929.4204","1174696.26207","1175463.71064","1176212.79278","1176979.48327","1166279.55904","1167046.45482","1167812.95516","1168579.74458","1169346.4261","1170113.5924","1170880.12273","1171629.63184","1176222.43157","Mapping"
"Blocked","Male","ball","4","M_dime.wav","None","733.508160454","233","1180113.19449","1172396.28399","1173162.7126","1173929.4204","1174696.26207","1175463.71064","1176212.79278","1176979.48327","1166279.55904","1167046.45482","1167812.95516","1168579.74458","1169346.4261","1170113.5924","1170880.12273","1171629.63184","1176989.41082","Mapping"
"Blocked","Male","ball","4","M_depth.wav","None","718.924151501","233","1180113.19449","1172396.28399","1173162.7126","1173929.4204","1174696.26207","1175463.71064","1176212.79278","1176979.48327","1180862.55273","1167046.45482","1167812.95516","1168579.74458","1169346.4261","1170113.5924","1170880.12273","1171629.63184","1180123.5991","Mapping"
"Blocked","Male","ball","4","M_ball.wav","None","735.038876883","233","1180113.19449","1172396.28399","1173162.7126","1173929.4204","1174696.26207","1175463.71064","1176212.79278","1176979.48327","1180862.55273","1181629.46705","1167812.95516","1168579.74458","1169346.4261","1170113.5924","1170880.12273","1171629.63184","1180872.18749","Mapping"
"Blocked","Male","ball","4","M_priest.wav","space","420.589636546","233","1180113.19449","1172396.28399","1173162.7126","1173929.4204","1174696.26207","1175463.71064","1176212.79278","1176979.48327","1180862.55273","1181629.46705","1182396.12569","1168579.74458","1169346.4261","1170113.5924","1170880.12273","1171629.63184","1181638.98278","Mapping"
"Blocked","Male","ball","4","M_gnash.wav","None","729.064414045","233","1180113.19449","1172396.28399","1173162.7126","1173929.4204","1174696.26207","1175463.71064","1176212.79278","1176979.48327","1180862.55273","1181629.46705","1182396.12569","1183162.6588","1169346.4261","1170113.5924","1170880.12273","1171629.63184","1182405.90978","Mapping"
"Blocked","Male","ball","4","M_ball.wav","None","727.425796213","233","1180113.19449","1172396.28399","1173162.7126","1173929.4204","1174696.26207","1175463.71064","1176212.79278","1176979.48327","1180862.55273","1181629.46705","1182396.12569","1183162.6588","1183929.38731","1170113.5924","1170880.12273","1171629.63184","1183172.26018","Mapping"
"Blocked","Male","ball","4","M_knife.wav","None","725.550042232","233","1180113.19449","1172396.28399","1173162.7126","1173929.4204","1174696.26207","1175463.71064","1176212.79278","1176979.48327","1180862.55273","1181629.46705","1182396.12569","1183162.6588","1183929.38731","1184696.47509","1170880.12273","1171629.63184","1183939.04619","Mapping"
"Blocked","Male","ball","4","M_lash.wav","space","17.0527569717","233","1180113.19449","1172396.28399","1173162.7126","1173929.4204","1174696.26207","1175463.71064","1176212.79278","1176979.48327","1180862.55273","1181629.46705","1182396.12569","1183162.6588","1183929.38731","1184696.47509","1185463.05148","1171629.63184","1184706.48302","Mapping"
"Blocked","Male","ball","4","M_depth.wav","None","719.379563583","233","1180113.19449","1172396.28399","1173162.7126","1173929.4204","1174696.26207","1175463.71064","1176212.79278","1176979.48327","1180862.55273","1181629.46705","1182396.12569","1183162.6588","1183929.38731","1184696.47509","1185463.05148","1186212.25822","1185472.89494","Mapping"
"Blocked","Male","ball","4","M_jolt.wav","None","735.391952796","233","1180113.19449","1186979.24026","1173162.7126","1173929.4204","1174696.26207","1175463.71064","1176212.79278","1176979.48327","1180862.55273","1181629.46705","1182396.12569","1183162.6588","1183929.38731","1184696.47509","1185463.05148","1186212.25822","1186221.92329","Mapping"
"Blocked","Male","ball","4","M_ball.wav","None","732.803245541","233","1180113.19449","1186979.24026","1187746.11346","1173929.4204","1174696.26207","1175463.71064","1176212.79278","1176979.48327","1180862.55273","1181629.46705","1182396.12569","1183162.6588","1183929.38731","1184696.47509","1185463.05148","1186212.25822","1186989.20336","Mapping"
"Blocked","Male","ball","4","M_tile.wav","space","423.55986347","233","1180113.19449","1186979.24026","1187746.11346","1188512.39862","1174696.26207","1175463.71064","1176212.79278","1176979.48327","1180862.55273","1181629.46705","1182396.12569","1183162.6588","1183929.38731","1184696.47509","1185463.05148","1186212.25822","1187755.89879","Mapping"
"Blocked","Male","ball","4","M_cad.wav","None","733.849178534","233","1180113.19449","1186979.24026","1187746.11346","1188512.39862","1189279.35066","1175463.71064","1176212.79278","1176979.48327","1180862.55273","1181629.46705","1182396.12569","1183162.6588","1183929.38731","1184696.47509","1185463.05148","1186212.25822","1188516.14518","Mapping"
"Blocked","Male","ball","4","M_ball.wav","None","725.769246113","233","1180113.19449","1186979.24026","1187746.11346","1188512.39862","1189279.35066","1190045.9991","1176212.79278","1176979.48327","1180862.55273","1181629.46705","1182396.12569","1183162.6588","1183929.38731","1184696.47509","1185463.05148","1186212.25822","1189289.07354","Mapping"
