"Condition","Talker","Target","Trial","current_stimulus","response_response","response_time_response","subject_nr","time_Audio1","time_Audio10","time_Audio11","time_Audio12","time_Audio13","time_Audio14","time_Audio15","time_Audio16","time_Audio2","time_Audio3","time_Audio4","time_Audio5","time_Audio6","time_Audio7","time_Audio8","time_Audio9","time_response"
"Mixed","Both","ball","5","F_dime.wav","NA","NA","124","202949.618052","NA","NA","NA","NA","NA","NA","NA","NA","NA","NA","NA","NA","NA","NA","NA","NA"
"Mixed","Both","ball","5","M_ball.wav","None","718.616516097","124","202949.618052","NA","NA","NA","NA","NA","NA","NA","203716.286615","NA","NA","NA","NA","NA","NA","NA","202963.618482"
"Mixed","Both","ball","5","F_lash.wav","None","721.966367273","124","202949.618052","NA","NA","NA","NA","NA","NA","NA","203716.286615","204482.787608","NA","NA","NA","NA","NA","NA","203726.62246"
"Mixed","Both","ball","5","F_ball.wav","space","0.0343177816831","124","202949.618052","NA","NA","NA","NA","NA","NA","NA","203716.286615","204482.787608","205249.287983","NA","NA","NA","NA","NA","204492.856949"
"Mixed","Both","ball","5","M_dime.wav","None","722.557808505","124","202949.618052","NA","NA","NA","NA","NA","NA","NA","203716.286615","204482.787608","205249.287983","206015.956855","NA","NA","NA","NA","205259.400916"
"Mixed","Both","ball","5","F_cad.wav","space","0.0352453207597","124","202949.618052","NA","NA","NA","NA","NA","NA","NA","203716.286615","204482.787608","205249.287983","206015.956855","206782.824523","NA","NA","NA","206025.810704"
"Mixed","Both","ball","5","F_knife.wav","None","722.262242518","124","202949.618052","NA","NA","NA","NA","NA","NA","NA","203716.286615","204482.787608","205249.287983","206015.956855","206782.824523","207549.445783","NA","NA","206792.841305"
"Mixed","Both","ball","5","M_park.wav","None","722.447125823","124","202949.618052","NA","NA","NA","NA","NA","NA","NA","203716.286615","204482.787608","205249.287983","206015.956855","206782.824523","207549.445783","208316.013866","NA","207559.557789"
"Mixed","Both","ball","5","M_greet.wav","None","722.721977509","124","202949.618052","NA","NA","NA","NA","NA","NA","NA","203716.286615","204482.787608","205249.287983","206015.956855","206782.824523","207549.445783","208316.013866","209082.539592","208325.78393"
"Mixed","Both","ball","5","F_ball.wav","None","722.201336059","124","202949.618052","209832.783527","NA","NA","NA","NA","NA","NA","203716.286615","204482.787608","205249.287983","206015.956855","206782.824523","207549.445783","208316.013866","209082.539592","209092.633975"
"Mixed","Both","ball","5","F_greet.wav","space","482.258309843","124","202949.618052","209832.783527","210599.024199","NA","NA","NA","NA","NA","203716.286615","204482.787608","205249.287983","206015.956855","206782.824523","207549.445783","208316.013866","209082.539592","209841.667821"
"Mixed","Both","ball","5","M_ball.wav","None","735.920113104","124","202949.618052","209832.783527","210599.024199","211365.956793","NA","NA","NA","NA","203716.286615","204482.787608","205249.287983","206015.956855","206782.824523","207549.445783","208316.013866","209082.539592","210608.508282"
"Mixed","Both","ball","5","M_lash.wav","space","588.362799201","124","202949.618052","209832.783527","210599.024199","211365.956793","212132.44882","NA","NA","NA","203716.286615","204482.787608","205249.287983","206015.956855","206782.824523","207549.445783","208316.013866","209082.539592","211375.481686"
"Mixed","Both","ball","5","M_greet.wav","None","732.172669901","124","202949.618052","209832.783527","210599.024199","211365.956793","212132.44882","212899.285262","NA","NA","203716.286615","204482.787608","205249.287983","206015.956855","206782.824523","207549.445783","208316.013866","209082.539592","212142.280718"
"Mixed","Both","ball","5","F_greet.wav","None","729.431882559","124","202949.618052","209832.783527","210599.024199","211365.956793","212132.44882","212899.285262","213665.887353","NA","203716.286615","204482.787608","205249.287983","206015.956855","206782.824523","207549.445783","208316.013866","209082.539592","212908.597756"
"Mixed","Both","ball","5","M_depth.wav","None","726.072447083","124","202949.618052","209832.783527","210599.024199","211365.956793","212132.44882","212899.285262","213665.887353","214432.48388","203716.286615","204482.787608","205249.287983","206015.956855","206782.824523","207549.445783","208316.013866","209082.539592","213675.313621"
"Mixed","Both","done","44","F_cling.wav","None","726.436030352","124","217582.289474","209832.783527","210599.024199","211365.956793","212132.44882","212899.285262","213665.887353","214432.48388","203716.286615","204482.787608","205249.287983","206015.956855","206782.824523","207549.445783","208316.013866","209082.539592","214442.00259"
"Mixed","Both","done","44","F_lash.wav","None","726.137991005","124","217582.289474","209832.783527","210599.024199","211365.956793","212132.44882","212899.285262","213665.887353","214432.48388","218348.955873","204482.787608","205249.287983","206015.956855","206782.824523","207549.445783","208316.013866","209082.539592","217591.554974"
"Mixed","Both","done","44","M_priest.wav","None","722.965603054","124","217582.289474","209832.783527","210599.024199","211365.956793","212132.44882","212899.285262","213665.887353","214432.48388","218348.955873","219116.134256","205249.287983","206015.956855","206782.824523","207549.445783","208316.013866","209082.539592","218358.257855"
"Mixed","Both","done","44","M_done.wav","None","722.169182438","124","217582.289474","209832.783527","210599.024199","211365.956793","212132.44882","212899.285262","213665.887353","214432.48388","218348.955873","219116.134256","219883.131775","206015.956855","206782.824523","207549.445783","208316.013866","209082.539592","219125.582475"
"Mixed","Both","done","44","F_jaw.wav","space","462.864418048","124","217582.289474","209832.783527","210599.024199","211365.956793","212132.44882","212899.285262","213665.887353","214432.48388","218348.955873","219116.134256","219883.131775","220649.545892","206782.824523","207549.445783","208316.013866","209082.539592","219892.746328"
"Mixed","Both","done","44","F_done.wav","None","722.313255479","124","217582.289474","209832.783527","210599.024199","211365.956793","212132.44882","212899.285262","213665.887353","214432.48388","218348.955873","219116.134256","219883.131775","220649.545892","221416.229604","207549.445783","208316.013866","209082.539592","220659.047597"
"Mixed","Both","done","44","F_reek.wav","space","513.623861945","124","217582.289474","209832.783527","210599.024199","211365.956793","212132.44882","212899.285262","213665.887353","214432.48388","218348.955873","219116.134256","219883.131775","220649.545892","221416.229604","222182.381236","208316.013866","209082.539592","221425.946491"
"Mixed","Both","done","44","M_tile.wav","None","722.80297993","124","217582.289474","209832.783527","210599.024199","211365.956793","212132.44882","212899.285262","213665.887353","214432.48388","218348.955873","219116.134256","219883.131775","220649.545892","221416.229604","222182.381236","222949.321249","209082.539592","222191.804412"
"Mixed","Both","done","44","F_done.wav","None","722.004085954","124","217582.289474","209832.783527","210599.024199","211365.956793","212132.44882","212899.285262","213665.887353","214432.48388","218348.955873","219116.134256","219883.131775","220649.545892","221416.229604","222182.381236","222949.321249","223715.378893","222959.362765"
"Mixed","Both","done","44","M_bluff.wav","space","422.561085725","124","217582.289474","224482.438246","210599.024199","211365.956793","212132.44882","212899.285262","213665.887353","214432.48388","218348.955873","219116.134256","219883.131775","220649.545892","221416.229604","222182.381236","222949.321249","223715.378893","223724.92481"
"Mixed","Both","done","44","M_jolt.wav","None","719.721487781","124","217582.289474","224482.438246","225249.291693","211365.956793","212132.44882","212899.285262","213665.887353","214432.48388","218348.955873","219116.134256","219883.131775","220649.545892","221416.229604","222182.381236","222949.321249","223715.378893","224492.10443"
"Mixed","Both","done","44","M_romp.wav","None","719.327914994","124","217582.289474","224482.438246","225249.291693","226015.807217","212132.44882","212899.285262","213665.887353","214432.48388","218348.955873","219116.134256","219883.131775","220649.545892","221416.229604","222182.381236","222949.321249","223715.378893","225258.918612"
"Mixed","Both","done","44","F_jolt.wav","None","719.643886259","124","217582.289474","224482.438246","225249.291693","226015.807217","226782.328306","212899.285262","213665.887353","214432.48388","218348.955873","219116.134256","219883.131775","220649.545892","221416.229604","222182.381236","222949.321249","223715.378893","226025.623347"
"Mixed","Both","done","44","M_done.wav","None","720.099602069","124","217582.289474","224482.438246","225249.291693","226015.807217","226782.328306","227531.957302","213665.887353","214432.48388","218348.955873","219116.134256","219883.131775","220649.545892","221416.229604","222182.381236","222949.321249","223715.378893","226791.987688"
"Mixed","Both","done","44","M_cave.wav","space","485.858279222","124","217582.289474","224482.438246","225249.291693","226015.807217","226782.328306","227531.957302","228298.353178","214432.48388","218348.955873","219116.134256","219883.131775","220649.545892","221416.229604","222182.381236","222949.321249","223715.378893","227541.523006"
"Mixed","Both","done","44","F_priest.wav","None","736.288333952","124","217582.289474","224482.438246","225249.291693","226015.807217","226782.328306","227531.957302","228298.353178","229082.278653","218348.955873","219116.134256","219883.131775","220649.545892","221416.229604","222182.381236","222949.321249","223715.378893","228307.581268"
"Mixed","Both","cave","19","M_depth.wav","None","719.23516423","124","232199.066494","224482.438246","225249.291693","226015.807217","226782.328306","227531.957302","228298.353178","229082.278653","218348.955873","219116.134256","219883.131775","220649.545892","221416.229604","222182.381236","222949.321249","223715.378893","229092.273793"
"Mixed","Both","cave","19","M_cave.wav","None","720.186787832","124","232199.066494","224482.438246","225249.291693","226015.807217","226782.328306","227531.957302","228298.353178","229082.278653","232948.421875","219116.134256","219883.131775","220649.545892","221416.229604","222182.381236","222949.321249","223715.378893","232208.704234"
"Mixed","Both","cave","19","M_done.wav","space","517.40685961","124","232199.066494","224482.438246","225249.291693","226015.807217","226782.328306","227531.957302","228298.353178","229082.278653","232948.421875","233714.950075","219883.131775","220649.545892","221416.229604","222182.381236","222949.321249","223715.378893","232957.786928"
"Mixed","Both","cave","19","F_cave.wav","None","731.323999702","124","232199.066494","224482.438246","225249.291693","226015.807217","226782.328306","227531.957302","228298.353178","229082.278653","232948.421875","233714.950075","234481.815888","220649.545892","221416.229604","222182.381236","222949.321249","223715.378893","233724.266279"
"Mixed","Both","cave","19","M_priest.wav","space","520.129405952","124","232199.066494","224482.438246","225249.291693","226015.807217","226782.328306","227531.957302","228298.353178","229082.278653","232948.421875","233714.950075","234481.815888","235248.657895","221416.229604","222182.381236","222949.321249","223715.378893","234491.002859"
"Mixed","Both","cave","19","M_cave.wav","None","728.098125488","124","232199.066494","224482.438246","225249.291693","226015.807217","226782.328306","227531.957302","228298.353178","229082.278653","232948.421875","233714.950075","234481.815888","235248.657895","236015.234017","222182.381236","222949.321249","223715.378893","235257.94751"
"Mixed","Both","cave","19","F_depth.wav","space","386.436178756","124","232199.066494","224482.438246","225249.291693","226015.807217","226782.328306","227531.957302","228298.353178","229082.278653","232948.421875","233714.950075","234481.815888","235248.657895","236015.234017","236781.757579","222949.321249","223715.378893","236024.675434"
"Mixed","Both","cave","19","F_depth.wav","None","725.031164242","124","232199.066494","224482.438246","225249.291693","226015.807217","226782.328306","227531.957302","228298.353178","229082.278653","232948.421875","233714.950075","234481.815888","235248.657895","236015.234017","236781.757579","237548.931016","223715.378893","236791.321118"
"Mixed","Both","cave","19","F_gnash.wav","None","721.4815896","124","232199.066494","224482.438246","225249.291693","226015.807217","226782.328306","227531.957302","228298.353178","229082.278653","232948.421875","233714.950075","234481.815888","235248.657895","236015.234017","236781.757579","237548.931016","238315.562478","237558.731379"
"Mixed","Both","cave","19","M_priest.wav","None","721.570012043","124","232199.066494","239065.166432","225249.291693","226015.807217","226782.328306","227531.957302","228298.353178","229082.278653","232948.421875","233714.950075","234481.815888","235248.657895","236015.234017","236781.757579","237548.931016","238315.562478","238325.252777"
"Mixed","Both","cave","19","F_lash.wav","None","735.420186073","124","232199.066494","239065.166432","239831.65815","226015.807217","226782.328306","227531.957302","228298.353178","229082.278653","232948.421875","233714.950075","234481.815888","235248.657895","236015.234017","236781.757579","237548.931016","238315.562478","239074.860441"
"Mixed","Both","cave","19","M_lash.wav","None","732.874793815","124","232199.066494","239065.166432","239831.65815","240598.523654","226782.328306","227531.957302","228298.353178","229082.278653","232948.421875","233714.950075","234481.815888","235248.657895","236015.234017","236781.757579","237548.931016","238315.562478","239840.9793"
"Mixed","Both","cave","19","F_depth.wav","None","729.546584422","124","232199.066494","239065.166432","239831.65815","240598.523654","241365.041342","227531.957302","228298.353178","229082.278653","232948.421875","233714.950075","234481.815888","235248.657895","236015.234017","236781.757579","237548.931016","238315.562478","240607.944666"
"Mixed","Both","cave","19","F_cave.wav","None","726.847844082","124","232199.066494","239065.166432","239831.65815","240598.523654","241365.041342","242132.068851","228298.353178","229082.278653","232948.421875","233714.950075","234481.815888","235248.657895","236015.234017","236781.757579","237548.931016","238315.562478","241374.185338"
"Mixed","Both","cave","19","F_jolt.wav","space","516.898275877","124","232199.066494","239065.166432","239831.65815","240598.523654","241365.041342","242132.068851","242898.974856","229082.278653","232948.421875","233714.950075","234481.815888","235248.657895","236015.234017","236781.757579","237548.931016","238315.562478","242142.042349"
"Mixed","Both","cave","19","M_cad.wav","None","719.603075879","124","232199.066494","239065.166432","239831.65815","240598.523654","241365.041342","242132.068851","242898.974856","243665.218311","232948.421875","233714.950075","234481.815888","235248.657895","236015.234017","236781.757579","237548.931016","238315.562478","242908.287659"
"Mixed","Both","done","39","M_cave.wav","None","720.001904469","124","246781.710276","239065.166432","239831.65815","240598.523654","241365.041342","242132.068851","242898.974856","243665.218311","232948.421875","233714.950075","234481.815888","235248.657895","236015.234017","236781.757579","237548.931016","238315.562478","243675.143578"
"Mixed","Both","done","39","F_gnash.wav","None","720.585925621","124","246781.710276","239065.166432","239831.65815","240598.523654","241365.041342","242132.068851","242898.974856","243665.218311","247531.462631","233714.950075","234481.815888","235248.657895","236015.234017","236781.757579","237548.931016","238315.562478","246791.289892"
"Mixed","Both","done","39","F_park.wav","None","734.523594612","124","246781.710276","239065.166432","239831.65815","240598.523654","241365.041342","242132.068851","242898.974856","243665.218311","247531.462631","248297.951876","234481.815888","235248.657895","236015.234017","236781.757579","237548.931016","238315.562478","247540.986597"
"Mixed","Both","done","39","M_jolt.wav","None","734.84791338","124","246781.710276","239065.166432","239831.65815","240598.523654","241365.041342","242132.068851","242898.974856","243665.218311","247531.462631","248297.951876","249064.802849","235248.657895","236015.234017","236781.757579","237548.931016","238315.562478","248307.606002"
"Mixed","Both","done","39","F_done.wav","None","731.837839354","124","246781.710276","239065.166432","239831.65815","240598.523654","241365.041342","242132.068851","242898.974856","243665.218311","247531.462631","248297.951876","249064.802849","249831.290238","236015.234017","236781.757579","237548.931016","238315.562478","249074.028466"
"Mixed","Both","done","39","M_romp.wav","space","450.06603864","124","246781.710276","239065.166432","239831.65815","240598.523654","241365.041342","242132.068851","242898.974856","243665.218311","247531.462631","248297.951876","249064.802849","249831.290238","250598.133791","236781.757579","237548.931016","238315.562478","249840.650035"
"Mixed","Both","done","39","M_greet.wav","None","725.189459103","124","246781.710276","239065.166432","239831.65815","240598.523654","241365.041342","242132.068851","242898.974856","243665.218311","247531.462631","248297.951876","249064.802849","249831.290238","250598.133791","251364.660445","237548.931016","238315.562478","250607.393417"
"Mixed","Both","done","39","M_knife.wav","None","722.402914602","124","246781.710276","239065.166432","239831.65815","240598.523654","241365.041342","242132.068851","242898.974856","243665.218311","247531.462631","248297.951876","249064.802849","249831.290238","250598.133791","251364.660445","252131.619318","238315.562478","251373.781254"
"Mixed","Both","done","39","M_done.wav","None","721.537549223","124","246781.710276","239065.166432","239831.65815","240598.523654","241365.041342","242132.068851","242898.974856","243665.218311","247531.462631","248297.951876","249064.802849","249831.290238","250598.133791","251364.660445","252131.619318","252898.319107","252141.520471"
"Mixed","Both","done","39","M_reek.wav","space","477.870267583","124","246781.710276","253648.190493","239831.65815","240598.523654","241365.041342","242132.068851","242898.974856","243665.218311","247531.462631","248297.951876","249064.802849","249831.290238","250598.133791","251364.660445","252131.619318","252898.319107","252908.727607"
"Mixed","Both","done","39","M_done.wav","None","735.582809197","124","246781.710276","253648.190493","254414.610484","240598.523654","241365.041342","242132.068851","242898.974856","243665.218311","247531.462631","248297.951876","249064.802849","249831.290238","250598.133791","251364.660445","252131.619318","252898.319107","253657.553381"
"Mixed","Both","done","39","F_jaw.wav","space","602.927463886","124","246781.710276","253648.190493","254414.610484","255181.170528","241365.041342","242132.068851","242898.974856","243665.218311","247531.462631","248297.951876","249064.802849","249831.290238","250598.133791","251364.660445","252131.619318","252898.319107","254423.629266"
"Mixed","Both","done","39","F_romp.wav","None","729.571627104","124","246781.710276","253648.190493","254414.610484","255181.170528","255948.030776","242132.068851","242898.974856","243665.218311","247531.462631","248297.951876","249064.802849","249831.290238","250598.133791","251364.660445","252131.619318","252898.319107","255190.694803"
"Mixed","Both","done","39","F_cad.wav","None","729.290282936","124","246781.710276","253648.190493","254414.610484","255181.170528","255948.030776","256714.574744","242898.974856","243665.218311","247531.462631","248297.951876","249064.802849","249831.290238","250598.133791","251364.660445","252131.619318","252898.319107","255957.568963"
"Mixed","Both","done","39","F_done.wav","None","726.406659232","124","246781.710276","253648.190493","254414.610484","255181.170528","255948.030776","256714.574744","257481.890707","243665.218311","247531.462631","248297.951876","249064.802849","249831.290238","250598.133791","251364.660445","252131.619318","252898.319107","256724.05388"
"Mixed","Both","done","39","F_priest.wav","space","398.839748814","124","246781.710276","253648.190493","254414.610484","255181.170528","255948.030776","256714.574744","257481.890707","258248.362948","247531.462631","248297.951876","249064.802849","249831.290238","250598.133791","251364.660445","252131.619318","252898.319107","257491.653043"
"Mixed","Both","tile","27","F_jolt.wav","None","719.519600098","124","261364.614379","253648.190493","254414.610484","255181.170528","255948.030776","256714.574744","257481.890707","258248.362948","247531.462631","248297.951876","249064.802849","249831.290238","250598.133791","251364.660445","252131.619318","252898.319107","258258.219889"
"Mixed","Both","tile","27","M_depth.wav","None","719.987064367","124","261364.614379","253648.190493","254414.610484","255181.170528","255948.030776","256714.574744","257481.890707","258248.362948","262114.45763","248297.951876","249064.802849","249831.290238","250598.133791","251364.660445","252131.619318","252898.319107","261374.537482"
"Mixed","Both","tile","27","F_done.wav","None","734.504735214","124","261364.614379","253648.190493","254414.610484","255181.170528","255948.030776","256714.574744","257481.890707","258248.362948","262114.45763","262881.000979","249064.802849","249831.290238","250598.133791","251364.660445","252131.619318","252898.319107","262123.87957"
"Mixed","Both","tile","27","F_tile.wav","None","731.727775012","124","261364.614379","253648.190493","254414.610484","255181.170528","255948.030776","256714.574744","257481.890707","258248.362948","262114.45763","262881.000979","263647.75982","249831.290238","250598.133791","251364.660445","252131.619318","252898.319107","262890.466821"
"Mixed","Both","tile","27","M_cling.wav","space","448.869552754","124","261364.614379","253648.190493","254414.610484","255181.170528","255948.030776","256714.574744","257481.890707","258248.362948","262114.45763","262881.000979","263647.75982","264414.363457","250598.133791","251364.660445","252131.619318","252898.319107","263657.420438"
"Mixed","Both","tile","27","M_depth.wav","None","732.402382826","124","261364.614379","253648.190493","254414.610484","255181.170528","255948.030776","256714.574744","257481.890707","258248.362948","262114.45763","262881.000979","263647.75982","264414.363457","265180.680494","251364.660445","252131.619318","252898.319107","264423.502198"
"Mixed","Both","tile","27","M_bluff.wav","None","730.206970358","124","261364.614379","253648.190493","254414.610484","255181.170528","255948.030776","256714.574744","257481.890707","258248.362948","262114.45763","262881.000979","263647.75982","264414.363457","265180.680494","265947.244867","252131.619318","252898.319107","265189.518104"
"Mixed","Both","tile","27","M_tile.wav","None","727.225649229","124","261364.614379","253648.190493","254414.610484","255181.170528","255948.030776","256714.574744","257481.890707","258248.362948","262114.45763","262881.000979","263647.75982","264414.363457","265180.680494","265947.244867","266714.207759","252898.319107","265956.117722"
"Mixed","Both","tile","27","M_priest.wav","space","462.44982176","124","261364.614379","253648.190493","254414.610484","255181.170528","255948.030776","256714.574744","257481.890707","258248.362948","262114.45763","262881.000979","263647.75982","264414.363457","265180.680494","265947.244867","266714.207759","267480.919297","266723.77099"
"Mixed","Both","tile","27","F_ball.wav","None","720.201009593","124","261364.614379","268230.603326","254414.610484","255181.170528","255948.030776","256714.574744","257481.890707","258248.362948","262114.45763","262881.000979","263647.75982","264414.363457","265180.680494","265947.244867","266714.207759","267480.919297","267490.617634"
"Mixed","Both","tile","27","F_tile.wav","None","735.592084297","124","261364.614379","268230.603326","268997.108647","255181.170528","255948.030776","256714.574744","257481.890707","258248.362948","262114.45763","262881.000979","263647.75982","264414.363457","265180.680494","265947.244867","266714.207759","267480.919297","268239.32747"
"Mixed","Both","tile","27","F_jolt.wav","space","588.027350372","124","261364.614379","268230.603326","268997.108647","269764.185314","255948.030776","256714.574744","257481.890707","258248.362948","262114.45763","262881.000979","263647.75982","264414.363457","265180.680494","265947.244867","266714.207759","267480.919297","269006.090948"
"Mixed","Both","tile","27","F_jaw.wav","None","729.296775477","124","261364.614379","268230.603326","268997.108647","269764.185314","270530.996404","256714.574744","257481.890707","258248.362948","262114.45763","262881.000979","263647.75982","264414.363457","265180.680494","265947.244867","266714.207759","267480.919297","269773.252945"
"Mixed","Both","tile","27","M_tile.wav","None","725.834695739","124","261364.614379","268230.603326","268997.108647","269764.185314","270530.996404","271298.011236","257481.890707","258248.362948","262114.45763","262881.000979","263647.75982","264414.363457","265180.680494","265947.244867","266714.207759","267480.919297","270540.820573"
"Mixed","Both","tile","27","F_gnash.wav","space","414.477540704","124","261364.614379","268230.603326","268997.108647","269764.185314","270530.996404","271298.011236","272064.463381","258248.362948","262114.45763","262881.000979","263647.75982","264414.363457","265180.680494","265947.244867","266714.207759","267480.919297","271307.606311"
"Mixed","Both","tile","27","M_depth.wav","None","720.332097495","124","261364.614379","268230.603326","268997.108647","269764.185314","270530.996404","271298.011236","272064.463381","272813.48084","262114.45763","262881.000979","263647.75982","264414.363457","265180.680494","265947.244867","266714.207759","267480.919297","272074.080406"
"Mixed","Both","tile","36","M_jaw.wav","None","736.634912901","124","275947.808792","268230.603326","268997.108647","269764.185314","270530.996404","271298.011236","272064.463381","272813.48084","262114.45763","262881.000979","263647.75982","264414.363457","265180.680494","265947.244867","266714.207759","267480.919297","272822.28846"
"Mixed","Both","tile","36","F_cad.wav","None","721.93730541","124","275947.808792","268230.603326","268997.108647","269764.185314","270530.996404","271298.011236","272064.463381","272813.48084","276714.294636","262881.000979","263647.75982","264414.363457","265180.680494","265947.244867","266714.207759","267480.919297","275957.833922"
"Mixed","Both","tile","36","M_gnash.wav","None","719.21043063","124","275947.808792","268230.603326","268997.108647","269764.185314","270530.996404","271298.011236","272064.463381","272813.48084","276714.294636","277480.75791","263647.75982","264414.363457","265180.680494","265947.244867","266714.207759","267480.919297","276724.42241"
"Mixed","Both","tile","36","F_priest.wav","None","720.753495465","124","275947.808792","268230.603326","268997.108647","269764.185314","270530.996404","271298.011236","272064.463381","272813.48084","276714.294636","277480.75791","278230.179763","264414.363457","265180.680494","265947.244867","266714.207759","267480.919297","277490.327324"
"Mixed","Both","tile","36","F_lash.wav","None","728.214682313","124","275947.808792","268230.603326","268997.108647","269764.185314","270530.996404","271298.011236","272064.463381","272813.48084","276714.294636","277480.75791","278230.179763","278997.195833","265180.680494","265947.244867","266714.207759","267480.919297","278247.07031"
"Mixed","Both","tile","36","F_tile.wav","None","733.108835062","124","275947.808792","268230.603326","268997.108647","269764.185314","270530.996404","271298.011236","272064.463381","272813.48084","276714.294636","277480.75791","278230.179763","278997.195833","279763.855739","265947.244867","266714.207759","267480.919297","279006.495032"
"Mixed","Both","tile","36","M_done.wav","space","604.712299246","124","275947.808792","268230.603326","268997.108647","269764.185314","270530.996404","271298.011236","272064.463381","272813.48084","276714.294636","277480.75791","278230.179763","278997.195833","279763.855739","280530.512244","266714.207759","267480.919297","279773.107326"
"Mixed","Both","tile","36","F_bluff.wav","None","727.519669395","124","275947.808792","268230.603326","268997.108647","269764.185314","270530.996404","271298.011236","272064.463381","272813.48084","276714.294636","277480.75791","278230.179763","278997.195833","279763.855739","280530.512244","281297.256863","267480.919297","280540.071146"
"Mixed","Both","tile","36","M_cave.wav","None","727.981259348","124","275947.808792","268230.603326","268997.108647","269764.185314","270530.996404","271298.011236","272064.463381","272813.48084","276714.294636","277480.75791","278230.179763","278997.195833","279763.855739","280530.512244","281297.256863","282063.8234","281306.993537"
"Mixed","Both","tile","36","M_tile.wav","None","726.332149468","124","275947.808792","282830.326248","268997.108647","269764.185314","270530.996404","271298.011236","272064.463381","272813.48084","276714.294636","277480.75791","278230.179763","278997.195833","279763.855739","280530.512244","281297.256863","282063.8234","282073.052418"
"Mixed","Both","tile","36","M_reek.wav","space","473.269825801","124","275947.808792","282830.326248","283597.554408","269764.185314","270530.996404","271298.011236","272064.463381","272813.48084","276714.294636","277480.75791","278230.179763","278997.195833","279763.855739","280530.512244","281297.256863","282063.8234","282840.459587"
"Mixed","Both","tile","36","F_tile.wav","None","719.960784947","124","275947.808792","282830.326248","283597.554408","284346.813019","270530.996404","271298.011236","272064.463381","272813.48084","276714.294636","277480.75791","278230.179763","278997.195833","279763.855739","280530.512244","281297.256863","282063.8234","283607.859335"
"Mixed","Both","tile","36","M_dime.wav","space","541.539701051","124","275947.808792","282830.326248","283597.554408","284346.813019","285113.57928","271298.011236","272064.463381","272813.48084","276714.294636","277480.75791","278230.179763","278997.195833","279763.855739","280530.512244","281297.256863","282063.8234","284356.138189"
"Mixed","Both","tile","36","M_tile.wav","None","732.360335765","124","275947.808792","282830.326248","283597.554408","284346.813019","285113.57928","285880.254644","272064.463381","272813.48084","276714.294636","277480.75791","278230.179763","278997.195833","279763.855739","280530.512244","281297.256863","282063.8234","285123.106955"
"Mixed","Both","tile","36","F_greet.wav","space","535.939096066","124","275947.808792","282830.326248","283597.554408","284346.813019","285113.57928","285880.254644","286647.12695","272813.48084","276714.294636","277480.75791","278230.179763","278997.195833","279763.855739","280530.512244","281297.256863","282063.8234","285889.701008"
"Mixed","Both","tile","36","F_depth.wav","None","725.808416319","124","275947.808792","282830.326248","283597.554408","284346.813019","285113.57928","285880.254644","286647.12695","287413.981015","276714.294636","277480.75791","278230.179763","278997.195833","279763.855739","280530.512244","281297.256863","282063.8234","286657.310065"
"Mixed","Both","done","38","M_cave.wav","None","723.503557907","124","290530.552127","282830.326248","283597.554408","284346.813019","285113.57928","285880.254644","286647.12695","287413.981015","276714.294636","277480.75791","278230.179763","278997.195833","279763.855739","280530.512244","281297.256863","282063.8234","287423.872892"
"Mixed","Both","done","38","M_gnash.wav","None","720.079505991","124","290530.552127","282830.326248","283597.554408","284346.813019","285113.57928","285880.254644","286647.12695","287413.981015","291279.729736","277480.75791","278230.179763","278997.195833","279763.855739","280530.512244","281297.256863","282063.8234","290540.233151"
"Mixed","Both","done","38","M_done.wav","None","735.145334387","124","290530.552127","282830.326248","283597.554408","284346.813019","285113.57928","285880.254644","286647.12695","287413.981015","291279.729736","292046.912448","278230.179763","278997.195833","279763.855739","280530.512244","281297.256863","282063.8234","291288.904959"
"Mixed","Both","done","38","F_greet.wav","space","456.840250932","124","290530.552127","282830.326248","283597.554408","284346.813019","285113.57928","285880.254644","286647.12695","287413.981015","291279.729736","292046.912448","292813.508356","278997.195833","279763.855739","280530.512244","281297.256863","282063.8234","292056.628717"
"Mixed","Both","done","38","F_done.wav","None","728.021760588","124","290530.552127","282830.326248","283597.554408","284346.813019","285113.57928","285880.254644","286647.12695","287413.981015","291279.729736","292046.912448","292813.508356","293579.753048","279763.855739","280530.512244","281297.256863","282063.8234","292823.138985"
"Mixed","Both","done","38","M_depth.wav","space","516.138028121","124","290530.552127","282830.326248","283597.554408","284346.813019","285113.57928","285880.254644","286647.12695","287413.981015","291279.729736","292046.912448","292813.508356","293579.753048","294347.558736","280530.512244","281297.256863","282063.8234","293589.268047"
"Mixed","Both","done","38","M_knife.wav","None","720.736800286","124","290530.552127","282830.326248","283597.554408","284346.813019","285113.57928","285880.254644","286647.12695","287413.981015","291279.729736","292046.912448","292813.508356","293579.753048","294347.558736","295113.110579","281297.256863","282063.8234","294357.517703"
"Mixed","Both","done","38","F_park.wav","None","721.759842127","124","290530.552127","282830.326248","283597.554408","284346.813019","285113.57928","285880.254644","286647.12695","287413.981015","291279.729736","292046.912448","292813.508356","293579.753048","294347.558736","295113.110579","295863.468288","282063.8234","295122.146675"
"Mixed","Both","done","38","F_romp.wav","None","734.923350741","124","290530.552127","282830.326248","283597.554408","284346.813019","285113.57928","285880.254644","286647.12695","287413.981015","291279.729736","292046.912448","292813.508356","293579.753048","294347.558736","295113.110579","295863.468288","296629.863545","295873.20187"
"Mixed","Both","done","38","F_done.wav","None","732.153192221","124","290530.552127","297396.718846","283597.554408","284346.813019","285113.57928","285880.254644","286647.12695","287413.981015","291279.729736","292046.912448","292813.508356","293579.753048","294347.558736","295113.110579","295863.468288","296629.863545","296639.87167"
"Mixed","Both","done","38","M_ball.wav","space","490.749031072","124","290530.552127","297396.718846","298163.35","284346.813019","285113.57928","285880.254644","286647.12695","287413.981015","291279.729736","292046.912448","292813.508356","293579.753048","294347.558736","295113.110579","295863.468288","296629.863545","297406.517663"
"Mixed","Both","done","38","M_done.wav","None","726.258567127","124","290530.552127","297396.718846","298163.35","298930.177476","285113.57928","285880.254644","286647.12695","287413.981015","291279.729736","292046.912448","292813.508356","293579.753048","294347.558736","295113.110579","295863.468288","296629.863545","298173.180043"
"Mixed","Both","done","38","F_romp.wav","space","541.103153781","124","290530.552127","297396.718846","298163.35","298930.177476","299697.053182","285880.254644","286647.12695","287413.981015","291279.729736","292046.912448","292813.508356","293579.753048","294347.558736","295113.110579","295863.468288","296629.863545","298940.136133"
"Mixed","Both","done","38","M_tile.wav","None","719.386657234","124","290530.552127","297396.718846","298163.35","298930.177476","299697.053182","300446.31674","286647.12695","287413.981015","291279.729736","292046.912448","292813.508356","293579.753048","294347.558736","295113.110579","295863.468288","296629.863545","299707.36924"
"Mixed","Both","done","38","F_cave.wav","None","734.255235468","124","290530.552127","297396.718846","298163.35","298930.177476","299697.053182","300446.31674","301213.10928","287413.981015","291279.729736","292046.912448","292813.508356","293579.753048","294347.558736","295113.110579","295863.468288","296629.863545","300456.376497"
"Mixed","Both","done","38","F_greet.wav","None","731.987477397","124","290530.552127","297396.718846","298163.35","298930.177476","299697.053182","300446.31674","301213.10928","301979.781553","291279.729736","292046.912448","292813.508356","293579.753048","294347.558736","295113.110579","295863.468288","296629.863545","301222.89975"
"Mixed","Both","done","48","F_knife.wav","None","728.729758644","124","305113.459013","297396.718846","298163.35","298930.177476","299697.053182","300446.31674","301213.10928","301979.781553","291279.729736","292046.912448","292813.508356","293579.753048","294347.558736","295113.110579","295863.468288","296629.863545","301990.111524"
"Mixed","Both","done","48","F_gnash.wav","None","719.801871863","124","305113.459013","297396.718846","298163.35","298930.177476","299697.053182","300446.31674","301213.10928","301979.781553","305862.948883","292046.912448","292813.508356","293579.753048","294347.558736","295113.110579","295863.468288","296629.863545","305123.562671"
"Mixed","Both","done","48","F_greet.wav","None","734.496696852","124","305113.459013","297396.718846","298163.35","298930.177476","299697.053182","300446.31674","301213.10928","301979.781553","305862.948883","306629.286016","292813.508356","293579.753048","294347.558736","295113.110579","295863.468288","296629.863545","305872.651549"
"Mixed","Both","done","48","M_done.wav","None","732.61880147","124","305113.459013","297396.718846","298163.35","298930.177476","299697.053182","300446.31674","301213.10928","301979.781553","305862.948883","306629.286016","307396.418024","293579.753048","294347.558736","295113.110579","295863.468288","296629.863545","306638.403733"
"Mixed","Both","done","48","M_bluff.wav","space","555.3521564","124","305113.459013","297396.718846","298163.35","298930.177476","299697.053182","300446.31674","301213.10928","301979.781553","305862.948883","306629.286016","307396.418024","308162.601191","294347.558736","295113.110579","295863.468288","296629.863545","307405.658172"
"Mixed","Both","done","48","M_done.wav","None","726.043694303","124","305113.459013","297396.718846","298163.35","298930.177476","299697.053182","300446.31674","301213.10928","301979.781553","305862.948883","306629.286016","307396.418024","308162.601191","308929.680022","295113.110579","295863.468288","296629.863545","308171.98634"
"Mixed","Both","done","48","F_cad.wav","space","621.564818022","124","305113.459013","297396.718846","298163.35","298930.177476","299697.053182","300446.31674","301213.10928","301979.781553","305862.948883","306629.286016","307396.418024","308162.601191","308929.680022","309696.812339","295863.468288","296629.863545","308939.37805"
"Mixed","Both","done","48","F_jolt.wav","None","718.262826209","124","305113.459013","297396.718846","298163.35","298930.177476","299697.053182","300446.31674","301213.10928","301979.781553","305862.948883","306629.286016","307396.418024","308162.601191","308929.680022","309696.812339","310446.18287","296629.863545","309707.074292"
"Mixed","Both","done","48","M_knife.wav","None","733.45695989","124","305113.459013","297396.718846","298163.35","298930.177476","299697.053182","300446.31674","301213.10928","301979.781553","305862.948883","306629.286016","307396.418024","308162.601191","308929.680022","309696.812339","310446.18287","311212.974173","310456.111229"
"Mixed","Both","done","48","M_depth.wav","None","731.21640872","124","305113.459013","311979.443322","298163.35","298930.177476","299697.053182","300446.31674","301213.10928","301979.781553","305862.948883","306629.286016","307396.418024","308162.601191","308929.680022","309696.812339","310446.18287","311212.974173","311222.525964"
"Mixed","Both","done","48","M_priest.wav","None","728.552913759","124","305113.459013","311979.443322","312746.228442","298930.177476","299697.053182","300446.31674","301213.10928","301979.781553","305862.948883","306629.286016","307396.418024","308162.601191","308929.680022","309696.812339","310446.18287","311212.974173","311988.982437"
"Mixed","Both","done","48","F_done.wav","None","726.28824733","124","305113.459013","311979.443322","312746.228442","313513.187005","299697.053182","300446.31674","301213.10928","301979.781553","305862.948883","306629.286016","307396.418024","308162.601191","308929.680022","309696.812339","310446.18287","311212.974173","312755.197139"
"Mixed","Both","done","48","M_dime.wav","space","397.014721413","124","305113.459013","311979.443322","312746.228442","313513.187005","314279.968724","300446.31674","301213.10928","301979.781553","305862.948883","306629.286016","307396.418024","308162.601191","308929.680022","309696.812339","310446.18287","311212.974173","313523.762456"
"Mixed","Both","done","48","M_gnash.wav","None","719.346774335","124","305113.459013","311979.443322","312746.228442","313513.187005","314279.968724","315029.296899","301213.10928","301979.781553","305862.948883","306629.286016","307396.418024","308162.601191","308929.680022","309696.812339","310446.18287","311212.974173","314289.587296"
"Mixed","Both","done","48","F_done.wav","None","734.640769777","124","305113.459013","311979.443322","312746.228442","313513.187005","314279.968724","315029.296899","315795.747498","301979.781553","305862.948883","306629.286016","307396.418024","308162.601191","308929.680022","309696.812339","310446.18287","311212.974173","315038.937112"
"Mixed","Both","done","48","F_bluff.wav","space","483.487876889","124","305113.459013","311979.443322","312746.228442","313513.187005","314279.968724","315029.296899","315795.747498","316562.774697","305862.948883","306629.286016","307396.418024","308162.601191","308929.680022","309696.812339","310446.18287","311212.974173","315805.272081"
"Mixed","Both","ball","7","F_reek.wav","None","728.568063001","124","319696.461432","311979.443322","312746.228442","313513.187005","314279.968724","315029.296899","315795.747498","316562.774697","305862.948883","306629.286016","307396.418024","308162.601191","308929.680022","309696.812339","310446.18287","311212.974173","316572.32927"
"Mixed","Both","ball","7","M_cad.wav","None","718.486974074","124","319696.461432","311979.443322","312746.228442","313513.187005","314279.968724","315029.296899","315795.747498","316562.774697","320446.159682","306629.286016","307396.418024","308162.601191","308929.680022","309696.812339","310446.18287","311212.974173","319706.843343"
"Mixed","Both","ball","7","M_lash.wav","None","734.454649792","124","319696.461432","311979.443322","312746.228442","313513.187005","314279.968724","315029.296899","315795.747498","316562.774697","320446.159682","321212.671496","307396.418024","308162.601191","308929.680022","309696.812339","310446.18287","311212.974173","320455.245555"
"Mixed","Both","ball","7","F_ball.wav","None","731.103871018","124","319696.461432","311979.443322","312746.228442","313513.187005","314279.968724","315029.296899","315795.747498","316562.774697","320446.159682","321212.671496","321978.901039","308162.601191","308929.680022","309696.812339","310446.18287","311212.974173","321222.597073"
"Mixed","Both","ball","7","F_romp.wav","space","268.342715572","124","319696.461432","311979.443322","312746.228442","313513.187005","314279.968724","315029.296899","315795.747498","316562.774697","320446.159682","321212.671496","321978.901039","322745.604847","308929.680022","309696.812339","310446.18287","311212.974173","321988.23301"
"Mixed","Both","ball","7","F_tile.wav","None","725.799450418","124","319696.461432","311979.443322","312746.228442","313513.187005","314279.968724","315029.296899","315795.747498","316562.774697","320446.159682","321212.671496","321978.901039","322745.604847","323512.854339","309696.812339","310446.18287","311212.974173","322754.965262"
"Mixed","Both","ball","7","F_ball.wav","None","721.861249709","124","319696.461432","311979.443322","312746.228442","313513.187005","314279.968724","315029.296899","315795.747498","316562.774697","320446.159682","321212.671496","321978.901039","322745.604847","323512.854339","324279.517337","310446.18287","311212.974173","323523.338276"
"Mixed","Both","ball","7","F_lash.wav","space","526.609598077","124","319696.461432","311979.443322","312746.228442","313513.187005","314279.968724","315029.296899","315795.747498","316562.774697","320446.159682","321212.671496","321978.901039","322745.604847","323512.854339","324279.517337","325028.955267","311212.974173","324289.893374"
"Mixed","Both","ball","7","F_cad.wav","None","733.881140419","124","319696.461432","311979.443322","312746.228442","313513.187005","314279.968724","315029.296899","315795.747498","316562.774697","320446.159682","321212.671496","321978.901039","322745.604847","323512.854339","324279.517337","325028.955267","325795.410194","325038.627325"
"Mixed","Both","ball","7","F_cave.wav","None","737.311994075","124","319696.461432","326562.595997","312746.228442","313513.187005","314279.968724","315029.296899","315795.747498","316562.774697","320446.159682","321212.671496","321978.901039","322745.604847","323512.854339","324279.517337","325028.955267","325795.410194","325799.203085"
"Mixed","Both","ball","7","M_ball.wav","None","728.054841689","124","319696.461432","326562.595997","327328.740518","313513.187005","314279.968724","315029.296899","315795.747498","316562.774697","320446.159682","321212.671496","321978.901039","322745.604847","323512.854339","324279.517337","325028.955267","325795.410194","326572.522501"
"Mixed","Both","ball","7","M_tile.wav","space","398.392380564","124","319696.461432","326562.595997","327328.740518","328096.338753","314279.968724","315029.296899","315795.747498","316562.774697","320446.159682","321212.671496","321978.901039","322745.604847","323512.854339","324279.517337","325028.955267","325795.410194","327338.014365"
"Mixed","Both","ball","7","M_bluff.wav","space","645.99538967","124","319696.461432","326562.595997","327328.740518","328096.338753","328862.779149","315029.296899","315795.747498","316562.774697","320446.159682","321212.671496","321978.901039","322745.604847","323512.854339","324279.517337","325028.955267","325795.410194","328106.31998"
"Mixed","Both","ball","7","M_ball.wav","None","718.319095089","124","319696.461432","326562.595997","327328.740518","328096.338753","328862.779149","329612.250778","315795.747498","316562.774697","320446.159682","321212.671496","321978.901039","322745.604847","323512.854339","324279.517337","325028.955267","325795.410194","328872.931656"
"Mixed","Both","ball","7","M_knife.wav","space","482.265420782","124","319696.461432","326562.595997","327328.740518","328096.338753","328862.779149","329612.250778","330379.039608","316562.774697","320446.159682","321212.671496","321978.901039","322745.604847","323512.854339","324279.517337","325028.955267","325795.410194","329622.014969"
"Mixed","Both","ball","7","M_depth.wav","None","729.626350105","124","319696.461432","326562.595997","327328.740518","328096.338753","328862.779149","329612.250778","330379.039608","331145.303468","320446.159682","321212.671496","321978.901039","322745.604847","323512.854339","324279.517337","325028.955267","325795.410194","330388.677348"
"Mixed","Both","done","43","M_lash.wav","None","727.890672744","124","334279.555056","326562.595997","327328.740518","328096.338753","328862.779149","329612.250778","330379.039608","331145.303468","320446.159682","321212.671496","321978.901039","322745.604847","323512.854339","324279.517337","325028.955267","325795.410194","331154.738702"
"Mixed","Both","done","43","M_done.wav","None","720.174730232","124","334279.555056","326562.595997","327328.740518","328096.338753","328862.779149","329612.250778","330379.039608","331145.303468","335028.42937","321212.671496","321978.901039","322745.604847","323512.854339","324279.517337","325028.955267","325795.410194","334288.891974"
"Mixed","Both","done","43","M_dime.wav","space","674.395388225","124","334279.555056","326562.595997","327328.740518","328096.338753","328862.779149","329612.250778","330379.039608","331145.303468","335028.42937","335795.619501","321978.901039","322745.604847","323512.854339","324279.517337","325028.955267","325795.410194","335037.774635"
"Mixed","Both","done","43","M_dime.wav","None","731.164468278","124","334279.555056","326562.595997","327328.740518","328096.338753","328862.779149","329612.250778","330379.039608","331145.303468","335028.42937","335795.619501","336562.167797","322745.604847","323512.854339","324279.517337","325028.955267","325795.410194","335805.544151"
"Mixed","Both","done","43","F_tile.wav","None","728.983586829","124","334279.555056","326562.595997","327328.740518","328096.338753","328862.779149","329612.250778","330379.039608","331145.303468","335028.42937","335795.619501","336562.167797","337328.785656","323512.854339","324279.517337","325028.955267","325795.410194","336571.765964"
"Mixed","Both","done","43","F_done.wav","None","725.985879602","124","334279.555056","326562.595997","327328.740518","328096.338753","328862.779149","329612.250778","330379.039608","331145.303468","335028.42937","335795.619501","336562.167797","337328.785656","338095.12279","324279.517337","325028.955267","325795.410194","337338.770903"
"Mixed","Both","done","43","F_reek.wav","space","415.505838348","124","334279.555056","326562.595997","327328.740518","328096.338753","328862.779149","329612.250778","330379.039608","331145.303468","335028.42937","335795.619501","336562.167797","337328.785656","338095.12279","338862.125565","325028.955267","325795.410194","338104.537309"
"Mixed","Both","done","43","M_done.wav","None","720.227598213","124","334279.555056","326562.595997","327328.740518","328096.338753","328862.779149","329612.250778","330379.039608","331145.303468","335028.42937","335795.619501","336562.167797","337328.785656","338095.12279","338862.125565","339611.884722","325795.410194","338872.078039"
"Mixed","Both","done","43","M_romp.wav","None","734.84605836","124","334279.555056","326562.595997","327328.740518","328096.338753","328862.779149","329612.250778","330379.039608","331145.303468","335028.42937","335795.619501","336562.167797","337328.785656","338095.12279","338862.125565","339611.884722","340378.295128","339621.553379"
"Mixed","Both","done","43","M_dime.wav","space","4.7729582875","124","334279.555056","341145.43672","327328.740518","328096.338753","328862.779149","329612.250778","330379.039608","331145.303468","335028.42937","335795.619501","336562.167797","337328.785656","338095.12279","338862.125565","339611.884722","340378.295128","340387.184369"
"Mixed","Both","done","43","M_knife.wav","None","728.539928619","124","334279.555056","341145.43672","341911.97636","328096.338753","328862.779149","329612.250778","330379.039608","331145.303468","335028.42937","335795.619501","336562.167797","337328.785656","338095.12279","338862.125565","339611.884722","340378.295128","341155.048799"
"Mixed","Both","done","43","F_cad.wav","None","726.073374564","124","334279.555056","341145.43672","341911.97636","342679.028602","328862.779149","329612.250778","330379.039608","331145.303468","335028.42937","335795.619501","336562.167797","337328.785656","338095.12279","338862.125565","339611.884722","340378.295128","341921.589366"
"Mixed","Both","done","43","F_done.wav","None","722.77608217","124","334279.555056","341145.43672","341911.97636","342679.028602","343445.975108","329612.250778","330379.039608","331145.303468","335028.42937","335795.619501","336562.167797","337328.785656","338095.12279","338862.125565","339611.884722","340378.295128","342689.100416"
"Mixed","Both","done","43","F_bluff.wav","space","511.580251739","124","334279.555056","341145.43672","341911.97636","342679.028602","343445.975108","344195.037397","330379.039608","331145.303468","335028.42937","335795.619501","336562.167797","337328.785656","338095.12279","338862.125565","339611.884722","340378.295128","343456.322701"
"Mixed","Both","done","43","F_cling.wav","None","734.469799092","124","334279.555056","341145.43672","341911.97636","342679.028602","343445.975108","344195.037397","344961.932272","331145.303468","335028.42937","335795.619501","336562.167797","337328.785656","338095.12279","338862.125565","339611.884722","340378.295128","344204.951225"
"Mixed","Both","done","43","F_knife.wav","None","732.083629118","124","334279.555056","341145.43672","341911.97636","342679.028602","343445.975108","344195.037397","344961.932272","345728.55786","335028.42937","335795.619501","336562.167797","337328.785656","338095.12279","338862.125565","339611.884722","340378.295128","344971.757369"
"Mixed","Both","tile","29","M_cave.wav","None","729.89254503","124","348862.140714","341145.43672","341911.97636","342679.028602","343445.975108","344195.037397","344961.932272","345728.55786","335028.42937","335795.619501","336562.167797","337328.785656","338095.12279","338862.125565","339611.884722","340378.295128","345738.06915"
"Mixed","Both","tile","29","M_ball.wav","None","719.347392733","124","348862.140714","341145.43672","341911.97636","342679.028602","343445.975108","344195.037397","344961.932272","345728.55786","349611.336255","335795.619501","336562.167797","337328.785656","338095.12279","338862.125565","339611.884722","340378.295128","348872.163061"
"Mixed","Both","tile","29","F_reek.wav","None","735.275185551","124","348862.140714","341145.43672","341911.97636","342679.028602","343445.975108","344195.037397","344961.932272","345728.55786","349611.336255","350378.320171","336562.167797","337328.785656","338095.12279","338862.125565","339611.884722","340378.295128","349620.944006"
"Mixed","Both","tile","29","M_dime.wav","None","731.994897476","124","348862.140714","341145.43672","341911.97636","342679.028602","343445.975108","344195.037397","344961.932272","345728.55786","349611.336255","350378.320171","351145.162487","337328.785656","338095.12279","338862.125565","339611.884722","340378.295128","350388.671783"
"Mixed","Both","tile","29","M_reek.wav","None","730.984840775","124","348862.140714","341145.43672","341911.97636","342679.028602","343445.975108","344195.037397","344961.932272","345728.55786","349611.336255","350378.320171","351145.162487","351911.625143","338095.12279","338862.125565","339611.884722","340378.295128","351154.300918"
"Mixed","Both","tile","29","M_tile.wav","None","728.795611765","124","348862.140714","341145.43672","341911.97636","342679.028602","343445.975108","344195.037397","344961.932272","345728.55786","349611.336255","350378.320171","351145.162487","351911.625143","352678.12459","338862.125565","339611.884722","340378.295128","351921.482393"
"Mixed","Both","tile","29","F_romp.wav","space","495.811990288","124","348862.140714","341145.43672","341911.97636","342679.028602","343445.975108","344195.037397","344961.932272","345728.55786","349611.336255","350378.320171","351145.162487","351911.625143","352678.12459","353445.014828","339611.884722","340378.295128","352687.839004"
"Mixed","Both","tile","29","M_ball.wav","None","723.243237182","124","348862.140714","341145.43672","341911.97636","342679.028602","343445.975108","344195.037397","344961.932272","345728.55786","349611.336255","350378.320171","351145.162487","351911.625143","352678.12459","353445.014828","354211.324445","340378.295128","353454.526427"
"Mixed","Both","tile","29","F_tile.wav","None","721.858776349","124","348862.140714","341145.43672","341911.97636","342679.028602","343445.975108","344195.037397","344961.932272","345728.55786","349611.336255","350378.320171","351145.162487","351911.625143","352678.12459","353445.014828","354211.324445","354961.634233","354220.480499"
"Mixed","Both","tile","29","F_reek.wav","space","524.465198687","124","348862.140714","355727.868103","341911.97636","342679.028602","343445.975108","344195.037397","344961.932272","345728.55786","349611.336255","350378.320171","351145.162487","351911.625143","352678.12459","353445.014828","354211.324445","354961.634233","354971.10904"
"Mixed","Both","tile","29","F_romp.wav","None","732.372702565","124","348862.140714","355727.868103","356495.009386","342679.028602","343445.975108","344195.037397","344961.932272","345728.55786","349611.336255","350378.320171","351145.162487","351911.625143","352678.12459","353445.014828","354211.324445","354961.634233","355737.58901"
"Mixed","Both","tile","29","F_jaw.wav","None","730.054549873","124","348862.140714","355727.868103","356495.009386","357261.562011","343445.975108","344195.037397","344961.932272","345728.55786","349611.336255","350378.320171","351145.162487","351911.625143","352678.12459","353445.014828","354211.324445","354961.634233","356504.46719"
"Mixed","Both","tile","29","F_tile.wav","None","727.241416869","124","348862.140714","355727.868103","356495.009386","357261.562011","358028.104432","344195.037397","344961.932272","345728.55786","349611.336255","350378.320171","351145.162487","351911.625143","352678.12459","353445.014828","354211.324445","354961.634233","357271.595797"
"Mixed","Both","tile","29","F_cave.wav","space","553.801980685","124","348862.140714","355727.868103","356495.009386","357261.562011","358028.104432","358794.883987","344961.932272","345728.55786","349611.336255","350378.320171","351145.162487","351911.625143","352678.12459","353445.014828","354211.324445","354961.634233","358037.637364"
"Mixed","Both","tile","29","M_tile.wav","None","722.474641923","124","348862.140714","355727.868103","356495.009386","357261.562011","358028.104432","358794.883987","359562.191294","345728.55786","349611.336255","350378.320171","351145.162487","351911.625143","352678.12459","353445.014828","354211.324445","354961.634233","358804.178858"
"Mixed","Both","tile","29","M_cad.wav","space","595.173802692","124","348862.140714","355727.868103","356495.009386","357261.562011","358028.104432","358794.883987","359562.191294","360311.394565","349611.336255","350378.320171","351145.162487","351911.625143","352678.12459","353445.014828","354211.324445","354961.634233","359572.243012"
"Mixed","Both","tile","30","M_dime.wav","None","733.600105392","124","363444.996278","355727.868103","356495.009386","357261.562011","358028.104432","358794.883987","359562.191294","360311.394565","349611.336255","350378.320171","351145.162487","351911.625143","352678.12459","353445.014828","354211.324445","354961.634233","360321.081153"
"Mixed","Both","tile","30","F_tile.wav","None","718.542933755","124","363444.996278","355727.868103","356495.009386","357261.562011","358028.104432","358794.883987","359562.191294","360311.394565","364194.463269","350378.320171","351145.162487","351911.625143","352678.12459","353445.014828","354211.324445","354961.634233","363455.494745"
"Mixed","Both","tile","30","F_dime.wav","space","514.885273355","124","363444.996278","355727.868103","356495.009386","357261.562011","358028.104432","358794.883987","359562.191294","360311.394565","364194.463269","364961.287963","351145.162487","351911.625143","352678.12459","353445.014828","354211.324445","354961.634233","364204.374624"
"Mixed","Both","tile","30","F_tile.wav","None","731.206206139","124","363444.996278","355727.868103","356495.009386","357261.562011","358028.104432","358794.883987","359562.191294","360311.394565","364194.463269","364961.287963","365727.51936","351911.625143","352678.12459","353445.014828","354211.324445","354961.634233","364970.477407"
"Mixed","Both","tile","30","M_park.wav","space","669.847196084","124","363444.996278","355727.868103","356495.009386","357261.562011","358028.104432","358794.883987","359562.191294","360311.394565","364194.463269","364961.287963","365727.51936","366494.179266","352678.12459","353445.014828","354211.324445","354961.634233","365737.365171"
"Mixed","Both","tile","30","F_romp.wav","None","725.89838464","124","363444.996278","355727.868103","356495.009386","357261.562011","358028.104432","358794.883987","359562.191294","360311.394565","364194.463269","364961.287963","365727.51936","366494.179266","367261.594164","353445.014828","354211.324445","354961.634233","366503.33903"
"Mixed","Both","tile","30","F_romp.wav","None","722.451763402","124","363444.996278","355727.868103","356495.009386","357261.562011","358028.104432","358794.883987","359562.191294","360311.394565","364194.463269","364961.287963","365727.51936","366494.179266","367261.594164","368027.891106","354211.324445","354961.634233","367271.522833"
"Mixed","Both","tile","30","F_ball.wav","None","721.727379307","124","363444.996278","355727.868103","356495.009386","357261.562011","358028.104432","358794.883987","359562.191294","360311.394565","364194.463269","364961.287963","365727.51936","366494.179266","367261.594164","368027.891106","368794.473719","354961.634233","368037.771853"
"Mixed","Both","tile","30","M_tile.wav","None","719.880091725","124","363444.996278","355727.868103","356495.009386","357261.562011","358028.104432","358794.883987","359562.191294","360311.394565","364194.463269","364961.287963","365727.51936","366494.179266","367261.594164","368027.891106","368794.473719","369544.305531","368803.986246"
"Mixed","Both","tile","30","M_knife.wav","space","461.107717128","124","363444.996278","370310.736034","356495.009386","357261.562011","358028.104432","358794.883987","359562.191294","360311.394565","364194.463269","364961.287963","365727.51936","366494.179266","367261.594164","368027.891106","368794.473719","369544.305531","369554.022728"
"Mixed","Both","tile","30","F_jolt.wav","None","731.69902229","124","363444.996278","370310.736034","371077.83156","357261.562011","358028.104432","358794.883987","359562.191294","360311.394565","364194.463269","364961.287963","365727.51936","366494.179266","367261.594164","368027.891106","368794.473719","369544.305531","370320.018229"
"Mixed","Both","tile","30","M_reek.wav","None","728.155321791","124","363444.996278","370310.736034","371077.83156","371844.539387","358028.104432","358794.883987","359562.191294","360311.394565","364194.463269","364961.287963","365727.51936","366494.179266","367261.594164","368027.891106","368794.473719","369544.305531","371088.397735"
"Mixed","Both","tile","30","M_reek.wav","None","726.72974132","124","363444.996278","370310.736034","371077.83156","371844.539387","372611.127257","358794.883987","359562.191294","360311.394565","364194.463269","364961.287963","365727.51936","366494.179266","367261.594164","368027.891106","368794.473719","369544.305531","371854.282863"
"Mixed","Both","tile","30","F_cad.wav","None","724.613785511","124","363444.996278","370310.736034","371077.83156","371844.539387","372611.127257","373377.954423","359562.191294","360311.394565","364194.463269","364961.287963","365727.51936","366494.179266","367261.594164","368027.891106","368794.473719","369544.305531","372620.840125"
"Mixed","Both","tile","30","M_tile.wav","None","721.544041764","124","363444.996278","370310.736034","371077.83156","371844.539387","372611.127257","373377.954423","374144.701206","360311.394565","364194.463269","364961.287963","365727.51936","366494.179266","367261.594164","368027.891106","368794.473719","369544.305531","373388.224724"
"Mixed","Both","tile","30","M_ball.wav","space","460.081583646","124","363444.996278","370310.736034","371077.83156","371844.539387","372611.127257","373377.954423","374144.701206","374893.922717","364194.463269","364961.287963","365727.51936","366494.179266","367261.594164","368027.891106","368794.473719","369544.305531","374154.891741"
"Mixed","Both","tile","33","M_greet.wav","None","734.364372329","124","378027.787843","370310.736034","371077.83156","371844.539387","372611.127257","373377.954423","374144.701206","374893.922717","364194.463269","364961.287963","365727.51936","366494.179266","367261.594164","368027.891106","368794.473719","369544.305531","374903.080936"
"Mixed","Both","tile","33","M_tile.wav","None","720.04549735","124","378027.787843","370310.736034","371077.83156","371844.539387","372611.127257","373377.954423","374144.701206","374893.922717","378777.396744","364961.287963","365727.51936","366494.179266","367261.594164","368027.891106","368794.473719","369544.305531","378037.703526"
"Mixed","Both","tile","33","M_jaw.wav","space","555.568265845","124","378027.787843","370310.736034","371077.83156","371844.539387","372611.127257","373377.954423","374144.701206","374893.922717","378777.396744","379543.88166","365727.51936","366494.179266","367261.594164","368027.891106","368794.473719","369544.305531","378787.27038"
"Mixed","Both","tile","33","F_tile.wav","None","732.027051097","124","378027.787843","370310.736034","371077.83156","371844.539387","372611.127257","373377.954423","374144.701206","374893.922717","378777.396744","379543.88166","380310.828784","366494.179266","367261.594164","368027.891106","368794.473719","369544.305531","379553.490956"
"Mixed","Both","tile","33","F_reek.wav","space","614.653025288","124","378027.787843","370310.736034","371077.83156","371844.539387","372611.127257","373377.954423","374144.701206","374893.922717","378777.396744","379543.88166","380310.828784","381077.313082","367261.594164","368027.891106","368794.473719","369544.305531","380320.101395"
"Mixed","Both","tile","33","M_gnash.wav","None","726.743653999","124","378027.787843","370310.736034","371077.83156","371844.539387","372611.127257","373377.954423","374144.701206","374893.922717","378777.396744","379543.88166","380310.828784","381077.313082","381843.786559","368027.891106","368794.473719","369544.305531","381087.004309"
"Mixed","Both","tile","33","M_dime.wav","None","725.297050027","124","378027.787843","370310.736034","371077.83156","371844.539387","372611.127257","373377.954423","374144.701206","374893.922717","378777.396744","379543.88166","380310.828784","381077.313082","381843.786559","382611.125092","368794.473719","369544.305531","381853.015577"
"Mixed","Both","tile","33","F_bluff.wav","None","721.516525722","124","378027.787843","370310.736034","371077.83156","371844.539387","372611.127257","373377.954423","374144.701206","374893.922717","378777.396744","379543.88166","380310.828784","381077.313082","381843.786559","382611.125092","383377.849306","369544.305531","382621.405596"
"Mixed","Both","tile","33","M_jolt.wav","None","719.756733102","124","378027.787843","370310.736034","371077.83156","371844.539387","372611.127257","373377.954423","374144.701206","374893.922717","378777.396744","379543.88166","380310.828784","381077.313082","381843.786559","382611.125092","383377.849306","384127.231894","383387.675021"
"Mixed","Both","tile","33","F_tile.wav","None","734.707241238","124","378027.787843","384893.87356","371077.83156","371844.539387","372611.127257","373377.954423","374144.701206","374893.922717","378777.396744","379543.88166","380310.828784","381077.313082","381843.786559","382611.125092","383377.849306","384127.231894","384137.333698"
"Mixed","Both","tile","33","F_knife.wav","space","440.316379303","124","378027.787843","384893.87356","385660.685268","371844.539387","372611.127257","373377.954423","374144.701206","374893.922717","378777.396744","379543.88166","380310.828784","381077.313082","381843.786559","382611.125092","383377.849306","384127.231894","384910.346727"
"Mixed","Both","tile","33","F_romp.wav","None","729.029962211","124","378027.787843","384893.87356","385660.685268","386427.275611","372611.127257","373377.954423","374144.701206","374893.922717","378777.396744","379543.88166","380310.828784","381077.313082","381843.786559","382611.125092","383377.849306","384127.231894","385670.491505"
"Mixed","Both","tile","33","F_done.wav","None","727.327365952","124","378027.787843","384893.87356","385660.685268","386427.275611","387193.601614","373377.954423","374144.701206","374893.922717","378777.396744","379543.88166","380310.828784","381077.313082","381843.786559","382611.125092","383377.849306","384127.231894","386437.028053"
"Mixed","Both","tile","33","M_tile.wav","None","725.886017841","124","378027.787843","384893.87356","385660.685268","386427.275611","387193.601614","387961.00229","374144.701206","374893.922717","378777.396744","379543.88166","380310.828784","381077.313082","381843.786559","382611.125092","383377.849306","384127.231894","387203.167318"
"Mixed","Both","tile","33","M_romp.wav","space","563.599870366","124","378027.787843","384893.87356","385660.685268","386427.275611","387193.601614","387961.00229","388727.45969","374893.922717","378777.396744","379543.88166","380310.828784","381077.313082","381843.786559","382611.125092","383377.849306","384127.231894","387970.998976"
"Mixed","Both","tile","33","F_dime.wav","None","719.614515139","124","378027.787843","384893.87356","385660.685268","386427.275611","387193.601614","387961.00229","388727.45969","389477.009231","378777.396744","379543.88166","380310.828784","381077.313082","381843.786559","382611.125092","383377.849306","384127.231894","388737.57788"
"Mixed","Both","ball","9","F_knife.wav","None","736.035742448","124","392627.249208","384893.87356","385660.685268","386427.275611","387193.601614","387961.00229","388727.45969","389477.009231","378777.396744","379543.88166","380310.828784","381077.313082","381843.786559","382611.125092","383377.849306","384127.231894","389485.966488"
"Mixed","Both","ball","9","M_cad.wav","None","719.896786846","124","392627.249208","384893.87356","385660.685268","386427.275611","387193.601614","387961.00229","388727.45969","389477.009231","393376.929836","379543.88166","380310.828784","381077.313082","381843.786559","382611.125092","383377.849306","384127.231894","392637.24713"
"Mixed","Both","ball","9","F_ball.wav","None","735.377520672","124","392627.249208","384893.87356","385660.685268","386427.275611","387193.601614","387961.00229","388727.45969","389477.009231","393376.929836","394143.905713","380310.828784","381077.313082","381843.786559","382611.125092","383377.849306","384127.231894","393386.192244"
"Mixed","Both","ball","9","F_jaw.wav","space","645.335931156","124","392627.249208","384893.87356","385660.685268","386427.275611","387193.601614","387961.00229","388727.45969","389477.009231","393376.929836","394143.905713","394910.411653","381077.313082","381843.786559","382611.125092","383377.849306","384127.231894","394153.063004"
"Mixed","Both","ball","9","M_ball.wav","None","728.506229119","124","392627.249208","384893.87356","385660.685268","386427.275611","387193.601614","387961.00229","388727.45969","389477.009231","393376.929836","394143.905713","394910.411653","395676.918829","381843.786559","382611.125092","383377.849306","384127.231894","394920.868383"
"Mixed","Both","ball","9","F_cling.wav","space","527.69014542","124","392627.249208","384893.87356","385660.685268","386427.275611","387193.601614","387961.00229","388727.45969","389477.009231","393376.929836","394143.905713","394910.411653","395676.918829","396444.117927","382611.125092","383377.849306","384127.231894","395686.629843"
"Mixed","Both","ball","9","M_cad.wav","None","722.988172376","124","392627.249208","384893.87356","385660.685268","386427.275611","387193.601614","387961.00229","388727.45969","389477.009231","393376.929836","394143.905713","394910.411653","395676.918829","396444.117927","397210.672406","383377.849306","384127.231894","396453.973013"
"Mixed","Both","ball","9","M_ball.wav","None","721.245693276","124","392627.249208","384893.87356","385660.685268","386427.275611","387193.601614","387961.00229","388727.45969","389477.009231","393376.929836","394143.905713","394910.411653","395676.918829","396444.117927","397210.672406","397977.356737","384127.231894","397220.522855"
"Mixed","Both","ball","9","M_cave.wav","space","571.058274771","124","392627.249208","384893.87356","385660.685268","386427.275611","387193.601614","387961.00229","388727.45969","389477.009231","393376.929836","394143.905713","394910.411653","395676.918829","396444.117927","397210.672406","397977.356737","398726.766533","397987.229137"
"Mixed","Both","ball","9","F_done.wav","None","733.952867682","124","392627.249208","399493.694798","385660.685268","386427.275611","387193.601614","387961.00229","388727.45969","389477.009231","393376.929836","394143.905713","394910.411653","395676.918829","396444.117927","397210.672406","397977.356737","398726.766533","398736.477546"
"Mixed","Both","ball","9","F_jaw.wav","None","731.608744769","124","392627.249208","399493.694798","400259.77532","386427.275611","387193.601614","387961.00229","388727.45969","389477.009231","393376.929836","394143.905713","394910.411653","395676.918829","396444.117927","397210.672406","397977.356737","398726.766533","399503.225256"
"Mixed","Both","ball","9","M_bluff.wav","None","731.797956512","124","392627.249208","399493.694798","400259.77532","401026.840548","387193.601614","387961.00229","388727.45969","389477.009231","393376.929836","394143.905713","394910.411653","395676.918829","396444.117927","397210.672406","397977.356737","398726.766533","400269.122132"
"Mixed","Both","ball","9","F_greet.wav","None","728.402348235","124","392627.249208","399493.694798","400259.77532","401026.840548","401793.593823","387961.00229","388727.45969","389477.009231","393376.929836","394143.905713","394910.411653","395676.918829","396444.117927","397210.672406","397977.356737","398726.766533","401037.399303"
"Mixed","Both","ball","9","M_gnash.wav","None","727.122695709","124","392627.249208","399493.694798","400259.77532","401026.840548","401793.593823","402560.066682","388727.45969","389477.009231","393376.929836","394143.905713","394910.411653","395676.918829","396444.117927","397210.672406","397977.356737","398726.766533","401803.02411"
"Mixed","Both","ball","9","F_ball.wav","None","724.933775899","124","392627.249208","399493.694798","400259.77532","401026.840548","401793.593823","402560.066682","403327.16499","389477.009231","393376.929836","394143.905713","394910.411653","395676.918829","396444.117927","397210.672406","397977.356737","398726.766533","402569.730701"
"Mixed","Both","ball","9","M_dime.wav","None","721.689969825","124","392627.249208","399493.694798","400259.77532","401026.840548","401793.593823","402560.066682","403327.16499","404093.992775","393376.929836","394143.905713","394910.411653","395676.918829","396444.117927","397210.672406","397977.356737","398726.766533","403337.620483"
"Mixed","Both","ball","12","F_lash.wav","None","719.851338945","124","407210.386116","399493.694798","400259.77532","401026.840548","401793.593823","402560.066682","403327.16499","404093.992775","393376.929836","394143.905713","394910.411653","395676.918829","396444.117927","397210.672406","397977.356737","398726.766533","404104.317181"
"Mixed","Both","ball","12","M_jolt.wav","None","719.267936132","124","407210.386116","399493.694798","400259.77532","401026.840548","401793.593823","402560.066682","403327.16499","404093.992775","407960.046957","394143.905713","394910.411653","395676.918829","396444.117927","397210.672406","397977.356737","398726.766533","407220.348174"
"Mixed","Both","ball","12","F_ball.wav","None","734.939118323","124","407210.386116","399493.694798","400259.77532","401026.840548","401793.593823","402560.066682","403327.16499","404093.992775","407960.046957","408726.582886","394910.411653","395676.918829","396444.117927","397210.672406","397977.356737","398726.766533","407969.896787"
"Mixed","Both","ball","12","F_jaw.wav","space","405.477308203","124","407210.386116","399493.694798","400259.77532","401026.840548","401793.593823","402560.066682","403327.16499","404093.992775","407960.046957","408726.582886","409493.39614","395676.918829","396444.117927","397210.672406","397977.356737","398726.766533","408736.473836"
"Mixed","Both","ball","12","M_knife.wav","None","729.980658332","124","407210.386116","399493.694798","400259.77532","401026.840548","401793.593823","402560.066682","403327.16499","404093.992775","407960.046957","408726.582886","409493.39614","410259.511599","396444.117927","397210.672406","397977.356737","398726.766533","409502.703378"
"Mixed","Both","ball","12","M_ball.wav","None","729.759602167","124","407210.386116","399493.694798","400259.77532","401026.840548","401793.593823","402560.066682","403327.16499","404093.992775","407960.046957","408726.582886","409493.39614","410259.511599","411026.57528","397210.672406","397977.356737","398726.766533","410268.406095"
"Mixed","Both","ball","12","M_reek.wav","space","505.426851742","124","407210.386116","399493.694798","400259.77532","401026.840548","401793.593823","402560.066682","403327.16499","404093.992775","407960.046957","408726.582886","409493.39614","410259.511599","411026.57528","411793.710689","397977.356737","398726.766533","411036.466848"
"Mixed","Both","ball","12","F_priest.wav","None","722.197007737","124","407210.386116","399493.694798","400259.77532","401026.840548","401793.593823","402560.066682","403327.16499","404093.992775","407960.046957","408726.582886","409493.39614","410259.511599","411026.57528","411793.710689","412560.309998","398726.766533","411804.087653"
"Mixed","Both","ball","12","F_ball.wav","None","720.423611696","124","407210.386116","399493.694798","400259.77532","401026.840548","401793.593823","402560.066682","403327.16499","404093.992775","407960.046957","408726.582886","409493.39614","410259.511599","411026.57528","411793.710689","412560.309998","413326.864477","412570.46807"
"Mixed","Both","ball","12","M_bluff.wav","space","588.686808827","124","407210.386116","414076.394231","400259.77532","401026.840548","401793.593823","402560.066682","403327.16499","404093.992775","407960.046957","408726.582886","409493.39614","410259.511599","411026.57528","411793.710689","412560.309998","413326.864477","413337.106025"
"Mixed","Both","ball","12","M_knife.wav","None","732.398981985","124","407210.386116","414076.394231","414843.212432","401026.840548","401793.593823","402560.066682","403327.16499","404093.992775","407960.046957","408726.582886","409493.39614","410259.511599","411026.57528","411793.710689","412560.309998","413326.864477","414086.172334"
"Mixed","Both","ball","12","F_knife.wav","None","730.797174911","124","407210.386116","414076.394231","414843.212432","415609.876666","401793.593823","402560.066682","403327.16499","404093.992775","407960.046957","408726.582886","409493.39614","410259.511599","411026.57528","411793.710689","412560.309998","413326.864477","414852.688476"
"Mixed","Both","ball","12","M_ball.wav","None","728.58012066","124","407210.386116","414076.394231","414843.212432","415609.876666","416376.382606","402560.066682","403327.16499","404093.992775","407960.046957","408726.582886","409493.39614","410259.511599","411026.57528","411793.710689","412560.309998","413326.864477","415619.951262"
"Mixed","Both","ball","12","M_cling.wav","None","727.477622335","124","407210.386116","414076.394231","414843.212432","415609.876666","416376.382606","417143.146084","403327.16499","404093.992775","407960.046957","408726.582886","409493.39614","410259.511599","411026.57528","411793.710689","412560.309998","413326.864477","416385.949237"
"Mixed","Both","ball","12","F_cad.wav","space","180.975751253","124","407210.386116","414076.394231","414843.212432","415609.876666","416376.382606","417143.146084","417910.277473","404093.992775","407960.046957","408726.582886","409493.39614","410259.511599","411026.57528","411793.710689","412560.309998","413326.864477","417152.71086"
"Mixed","Both","ball","12","F_bluff.wav","None","721.312473877","124","407210.386116","414076.394231","414843.212432","415609.876666","416376.382606","417143.146084","417910.277473","418676.566376","407960.046957","408726.582886","409493.39614","410259.511599","411026.57528","411793.710689","412560.309998","413326.864477","417920.491505"
"Mixed","Both","tile","25","F_done.wav","None","719.789814262","124","421793.37524","414076.394231","414843.212432","415609.876666","416376.382606","417143.146084","417910.277473","418676.566376","407960.046957","408726.582886","409493.39614","410259.511599","411026.57528","411793.710689","412560.309998","413326.864477","418686.930974"
"Mixed","Both","tile","25","M_dime.wav","None","720.051371609","124","421793.37524","414076.394231","414843.212432","415609.876666","416376.382606","417143.146084","417910.277473","418676.566376","422559.81409","408726.582886","409493.39614","410259.511599","411026.57528","411793.710689","412560.309998","413326.864477","421803.342864"
"Mixed","Both","tile","25","F_priest.wav","None","718.668765679","124","421793.37524","414076.394231","414843.212432","415609.876666","416376.382606","417143.146084","417910.277473","418676.566376","422559.81409","423309.436285","409493.39614","410259.511599","411026.57528","411793.710689","412560.309998","413326.864477","422569.90229"
"Mixed","Both","tile","25","F_tile.wav","None","734.346440469","124","421793.37524","414076.394231","414843.212432","415609.876666","416376.382606","417143.146084","417910.277473","418676.566376","422559.81409","423309.436285","424075.812374","410259.511599","411026.57528","411793.710689","412560.309998","413326.864477","423319.025176"
"Mixed","Both","tile","25","F_cave.wav","space","512.301544135","124","421793.37524","414076.394231","414843.212432","415609.876666","416376.382606","417143.146084","417910.277473","418676.566376","422559.81409","423309.436285","424075.812374","424842.440126","411026.57528","411793.710689","412560.309998","413326.864477","424085.188556"
"Mixed","Both","tile","25","M_bluff.wav","None","729.785881587","124","421793.37524","414076.394231","414843.212432","415609.876666","416376.382606","417143.146084","417910.277473","418676.566376","422559.81409","423309.436285","424075.812374","424842.440126","425609.529778","411793.710689","412560.309998","413326.864477","424851.58134"
"Mixed","Both","tile","25","F_romp.wav","None","727.517814317","124","421793.37524","414076.394231","414843.212432","415609.876666","416376.382606","417143.146084","417910.277473","418676.566376","422559.81409","423309.436285","424075.812374","424842.440126","425609.529778","426376.191848","412560.309998","413326.864477","425619.063328"
"Mixed","Both","tile","25","F_knife.wav","None","725.178638124","124","421793.37524","414076.394231","414843.212432","415609.876666","416376.382606","417143.146084","417910.277473","418676.566376","422559.81409","423309.436285","424075.812374","424842.440126","425609.529778","426376.191848","427142.78281","413326.864477","426386.33879"
"Mixed","Both","tile","25","F_jolt.wav","None","723.67947537","124","421793.37524","414076.394231","414843.212432","415609.876666","416376.382606","417143.146084","417910.277473","418676.566376","422559.81409","423309.436285","424075.812374","424842.440126","425609.529778","426376.191848","427142.78281","427909.769817","427152.582864"
"Mixed","Both","tile","25","F_tile.wav","None","721.514670702","124","421793.37524","428676.320896","414843.212432","415609.876666","416376.382606","417143.146084","417910.277473","418676.566376","422559.81409","423309.436285","424075.812374","424842.440126","425609.529778","426376.191848","427142.78281","427909.769817","427919.739605"
"Mixed","Both","tile","25","M_park.wav","space","526.292081049","124","421793.37524","428676.320896","429425.852813","415609.876666","416376.382606","417143.146084","417910.277473","418676.566376","422559.81409","423309.436285","424075.812374","424842.440126","425609.529778","426376.191848","427142.78281","427909.769817","428687.057424"
"Mixed","Both","tile","25","M_tile.wav","None","734.235448646","124","421793.37524","428676.320896","429425.852813","430192.768712","416376.382606","417143.146084","417910.277473","418676.566376","422559.81409","423309.436285","424075.812374","424842.440126","425609.529778","426376.191848","427142.78281","427909.769817","429435.736034"
"Mixed","Both","tile","25","M_jolt.wav","space","642.865976319","124","421793.37524","428676.320896","429425.852813","430192.768712","430959.368639","417143.146084","417910.277473","418676.566376","422559.81409","423309.436285","424075.812374","424842.440126","425609.529778","426376.191848","427142.78281","427909.769817","430202.43675"
"Mixed","Both","tile","25","M_romp.wav","None","729.501136462","124","421793.37524","428676.320896","429425.852813","430192.768712","430959.368639","431725.893129","417910.277473","418676.566376","422559.81409","423309.436285","424075.812374","424842.440126","425609.529778","426376.191848","427142.78281","427909.769817","430968.813148"
"Mixed","Both","tile","25","M_tile.wav","None","726.871341001","124","421793.37524","428676.320896","429425.852813","430192.768712","430959.368639","431725.893129","432492.268599","418676.566376","422559.81409","423309.436285","424075.812374","424842.440126","425609.529778","426376.191848","427142.78281","427909.769817","431736.152918"
"Mixed","Both","tile","25","M_jaw.wav","space","575.500421692","124","421793.37524","428676.320896","429425.852813","430192.768712","430959.368639","431725.893129","432492.268599","433258.964369","422559.81409","423309.436285","424075.812374","424842.440126","425609.529778","426376.191848","427142.78281","427909.769817","432501.7162"
"Mixed","Both","tile","31","M_done.wav","None","723.504794587","124","436375.468392","428676.320896","429425.852813","430192.768712","430959.368639","431725.893129","432492.268599","433258.964369","422559.81409","423309.436285","424075.812374","424842.440126","425609.529778","426376.191848","427142.78281","427909.769817","433268.12877"
"Mixed","Both","tile","31","M_lash.wav","None","722.107348614","124","436375.468392","428676.320896","429425.852813","430192.768712","430959.368639","431725.893129","432492.268599","433258.964369","437142.887618","423309.436285","424075.812374","424842.440126","425609.529778","426376.191848","427142.78281","427909.769817","436384.653508"
"Mixed","Both","tile","31","F_tile.wav","None","717.711886216","124","436375.468392","428676.320896","429425.852813","430192.768712","430959.368639","431725.893129","432492.268599","433258.964369","437142.887618","437892.526508","424075.812374","424842.440126","425609.529778","426376.191848","427142.78281","427909.769817","437153.710714"
"Mixed","Both","tile","31","M_knife.wav","space","519.421407895","124","436375.468392","428676.320896","429425.852813","430192.768712","430959.368639","431725.893129","432492.268599","433258.964369","437142.887618","437892.526508","438659.131691","424842.440126","425609.529778","426376.191848","427142.78281","427909.769817","437901.631858"
"Mixed","Both","tile","31","M_park.wav","None","731.364500942","124","436375.468392","428676.320896","429425.852813","430192.768712","430959.368639","431725.893129","432492.268599","433258.964369","437142.887618","437892.526508","438659.131691","439425.591565","425609.529778","426376.191848","427142.78281","427909.769817","438668.862491"
"Mixed","Both","tile","31","M_tile.wav","None","729.678908945","124","436375.468392","428676.320896","429425.852813","430192.768712","430959.368639","431725.893129","432492.268599","433258.964369","437142.887618","437892.526508","438659.131691","439425.591565","440192.024541","426376.191848","427142.78281","427909.769817","439435.250947"
"Mixed","Both","tile","31","F_park.wav","space","555.855175073","124","436375.468392","428676.320896","429425.852813","430192.768712","430959.368639","431725.893129","432492.268599","433258.964369","437142.887618","437892.526508","438659.131691","439425.591565","440192.024541","440959.064107","427142.78281","427909.769817","440201.132364"
"Mixed","Both","tile","31","F_romp.wav","None","725.251602125","124","436375.468392","428676.320896","429425.852813","430192.768712","430959.368639","431725.893129","432492.268599","433258.964369","437142.887618","437892.526508","438659.131691","439425.591565","440192.024541","440959.064107","441725.702371","427909.769817","440968.515727"
"Mixed","Both","tile","31","F_tile.wav","None","723.24694728","124","436375.468392","428676.320896","429425.852813","430192.768712","430959.368639","431725.893129","432492.268599","433258.964369","437142.887618","437892.526508","438659.131691","439425.591565","440192.024541","440959.064107","441725.702371","442492.455647","441735.312595"
"Mixed","Both","tile","31","F_cad.wav","space","534.308845468","124","436375.468392","443241.71735","429425.852813","430192.768712","430959.368639","431725.893129","432492.268599","433258.964369","437142.887618","437892.526508","438659.131691","439425.591565","440192.024541","440959.064107","441725.702371","442492.455647","442502.640307"
"Mixed","Both","tile","31","M_tile.wav","None","735.70307612","124","436375.468392","443241.71735","444008.907172","430192.768712","430959.368639","431725.893129","432492.268599","433258.964369","437142.887618","437892.526508","438659.131691","439425.591565","440192.024541","440959.064107","441725.702371","442492.455647","443250.94915"
"Mixed","Both","tile","31","F_greet.wav","space","714.609370567","124","436375.468392","443241.71735","444008.907172","444775.495042","430959.368639","431725.893129","432492.268599","433258.964369","437142.887618","437892.526508","438659.131691","439425.591565","440192.024541","440959.064107","441725.702371","442492.455647","444018.289848"
"Mixed","Both","tile","31","F_park.wav","None","730.159976694","124","436375.468392","443241.71735","444008.907172","444775.495042","445542.281708","431725.893129","432492.268599","433258.964369","437142.887618","437892.526508","438659.131691","439425.591565","440192.024541","440959.064107","441725.702371","442492.455647","444784.779711"
"Mixed","Both","tile","31","M_park.wav","None","727.311598312","124","436375.468392","443241.71735","444008.907172","444775.495042","445542.281708","446308.850409","432492.268599","433258.964369","437142.887618","437892.526508","438659.131691","439425.591565","440192.024541","440959.064107","441725.702371","442492.455647","445552.373309"
"Mixed","Both","tile","31","F_priest.wav","None","726.707790338","124","436375.468392","443241.71735","444008.907172","444775.495042","445542.281708","446308.850409","447075.40056","433258.964369","437142.887618","437892.526508","438659.131691","439425.591565","440192.024541","440959.064107","441725.702371","442492.455647","446318.219481"
"Mixed","Both","tile","31","M_lash.wav","None","724.872560357","124","436375.468392","443241.71735","444008.907172","444775.495042","445542.281708","446308.850409","447075.40056","447842.625319","437142.887618","437892.526508","438659.131691","439425.591565","440192.024541","440959.064107","441725.702371","442492.455647","447084.867329"
"Mixed","Both","done","47","F_romp.wav","None","722.556262626","124","450959.05916","443241.71735","444008.907172","444775.495042","445542.281708","446308.850409","447075.40056","447842.625319","437142.887618","437892.526508","438659.131691","439425.591565","440192.024541","440959.064107","441725.702371","442492.455647","447852.25502"
"Mixed","Both","done","47","F_bluff.wav","None","724.106129201","124","450959.05916","443241.71735","444008.907172","444775.495042","445542.281708","446308.850409","447075.40056","447842.625319","451708.625086","437892.526508","438659.131691","439425.591565","440192.024541","440959.064107","441725.702371","442492.455647","450964.228165"
"Mixed","Both","done","47","M_done.wav","None","734.883158642","124","450959.05916","443241.71735","444008.907172","444775.495042","445542.281708","446308.850409","447075.40056","447842.625319","451708.625086","452475.262423","438659.131691","439425.591565","440192.024541","440959.064107","441725.702371","442492.455647","451718.449255"
"Mixed","Both","done","47","M_tile.wav","space","447.75406929","124","450959.05916","443241.71735","444008.907172","444775.495042","445542.281708","446308.850409","447075.40056","447842.625319","451708.625086","452475.262423","453241.914909","439425.591565","440192.024541","440959.064107","441725.702371","442492.455647","452484.866464"
"Mixed","Both","done","47","M_done.wav","None","729.43157336","124","450959.05916","443241.71735","444008.907172","444775.495042","445542.281708","446308.850409","447075.40056","447842.625319","451708.625086","452475.262423","453241.914909","454008.232565","440192.024541","440959.064107","441725.702371","442492.455647","453251.843578"
"Mixed","Both","done","47","F_cad.wav","space","619.259032072","124","450959.05916","443241.71735","444008.907172","444775.495042","445542.281708","446308.850409","447075.40056","447842.625319","451708.625086","452475.262423","453241.914909","454008.232565","454775.193911","440959.064107","441725.702371","442492.455647","454017.341316"
"Mixed","Both","done","47","M_gnash.wav","None","724.724468193","124","450959.05916","443241.71735","444008.907172","444775.495042","445542.281708","446308.850409","447075.40056","447842.625319","451708.625086","452475.262423","453241.914909","454008.232565","454775.193911","455542.302113","441725.702371","442492.455647","454784.926875"
"Mixed","Both","done","47","M_cave.wav","None","721.817965969","124","450959.05916","443241.71735","444008.907172","444775.495042","445542.281708","446308.850409","447075.40056","447842.625319","451708.625086","452475.262423","453241.914909","454008.232565","454775.193911","455542.302113","456308.550515","442492.455647","455552.722052"
"Mixed","Both","done","47","F_cave.wav","None","721.115223714","124","450959.05916","443241.71735","444008.907172","444775.495042","445542.281708","446308.850409","447075.40056","447842.625319","451708.625086","452475.262423","453241.914909","454008.232565","454775.193911","455542.302113","456308.550515","457075.795369","456318.106015"
"Mixed","Both","done","47","F_done.wav","None","718.452037894","124","450959.05916","457824.68576","444008.907172","444775.495042","445542.281708","446308.850409","447075.40056","447842.625319","451708.625086","452475.262423","453241.914909","454008.232565","454775.193911","455542.302113","456308.550515","457075.795369","457086.137707"
"Mixed","Both","done","47","M_dime.wav","space","370.312063314","124","450959.05916","457824.68576","458591.432234","444775.495042","445542.281708","446308.850409","447075.40056","447842.625319","451708.625086","452475.262423","453241.914909","454008.232565","454775.193911","455542.302113","456308.550515","457075.795369","457834.183446"
"Mixed","Both","done","47","M_knife.wav","None","731.927498535","124","450959.05916","457824.68576","458591.432234","459358.524668","445542.281708","446308.850409","447075.40056","447842.625319","451708.625086","452475.262423","453241.914909","454008.232565","454775.193911","455542.302113","456308.550515","457075.795369","458600.571902"
"Mixed","Both","done","47","F_done.wav","None","728.782935825","124","450959.05916","457824.68576","458591.432234","459358.524668","460125.071727","446308.850409","447075.40056","447842.625319","451708.625086","452475.262423","453241.914909","454008.232565","454775.193911","455542.302113","456308.550515","457075.795369","459368.418709"
"Mixed","Both","done","47","F_ball.wav","space","461.518294178","124","450959.05916","457824.68576","458591.432234","459358.524668","460125.071727","460891.845717","447075.40056","447842.625319","451708.625086","452475.262423","453241.914909","454008.232565","454775.193911","455542.302113","456308.550515","457075.795369","460134.889713"
"Mixed","Both","done","47","M_jaw.wav","None","724.263187323","124","450959.05916","457824.68576","458591.432234","459358.524668","460125.071727","460891.845717","461659.08748","447842.625319","451708.625086","452475.262423","453241.914909","454008.232565","454775.193911","455542.302113","456308.550515","457075.795369","460901.604651"
"Mixed","Both","done","47","F_cave.wav","None","721.274136915","124","450959.05916","457824.68576","458591.432234","459358.524668","460125.071727","460891.845717","461659.08748","462424.696519","451708.625086","452475.262423","453241.914909","454008.232565","454775.193911","455542.302113","456308.550515","457075.795369","461669.32841"
"Mixed","Both","ball","6","M_reek.wav","None","721.568466164","124","465542.000364","457824.68576","458591.432234","459358.524668","460125.071727","460891.845717","461659.08748","462424.696519","451708.625086","452475.262423","453241.914909","454008.232565","454775.193911","455542.302113","456308.550515","457075.795369","462434.292212"
"Mixed","Both","ball","6","M_ball.wav","None","718.812838662","124","465542.000364","457824.68576","458591.432234","459358.524668","460125.071727","460891.845717","461659.08748","462424.696519","466291.618539","452475.262423","453241.914909","454008.232565","454775.193911","455542.302113","456308.550515","457075.795369","465552.39526"
"Mixed","Both","ball","6","F_gnash.wav","space","670.813350705","124","465542.000364","457824.68576","458591.432234","459358.524668","460125.071727","460891.845717","461659.08748","462424.696519","466291.618539","467058.297305","453241.914909","454008.232565","454775.193911","455542.302113","456308.550515","457075.795369","466301.365725"
"Mixed","Both","ball","6","M_tile.wav","None","731.984385697","124","465542.000364","457824.68576","458591.432234","459358.524668","460125.071727","460891.845717","461659.08748","462424.696519","466291.618539","467058.297305","467824.747285","454008.232565","454775.193911","455542.302113","456308.550515","457075.795369","467068.076644"
"Mixed","Both","ball","6","F_park.wav","None","730.740596948","124","465542.000364","457824.68576","458591.432234","459358.524668","460125.071727","460891.845717","461659.08748","462424.696519","466291.618539","467058.297305","467824.747285","468591.657","454775.193911","455542.302113","456308.550515","457075.795369","467834.223947"
"Mixed","Both","ball","6","M_bluff.wav","None","728.803959384","124","465542.000364","457824.68576","458591.432234","459358.524668","460125.071727","460891.845717","461659.08748","462424.696519","466291.618539","467058.297305","467824.747285","468591.657","469358.208388","455542.302113","456308.550515","457075.795369","468601.363994"
"Mixed","Both","ball","6","M_greet.wav","None","728.065044328","124","465542.000364","457824.68576","458591.432234","459358.524668","460125.071727","460891.845717","461659.08748","462424.696519","466291.618539","467058.297305","467824.747285","468591.657","469358.208388","470124.464209","456308.550515","457075.795369","469367.650732"
"Mixed","Both","ball","6","M_ball.wav","None","726.651521458","124","465542.000364","457824.68576","458591.432234","459358.524668","460125.071727","460891.845717","461659.08748","462424.696519","466291.618539","467058.297305","467824.747285","468591.657","469358.208388","470124.464209","470891.517379","457075.795369","470133.85616"
"Mixed","Both","ball","6","F_depth.wav","space","470.752877125","124","465542.000364","457824.68576","458591.432234","459358.524668","460125.071727","460891.845717","461659.08748","462424.696519","466291.618539","467058.297305","467824.747285","468591.657","469358.208388","470124.464209","470891.517379","471658.586007","470901.312486"
