"Condition","Talker","Target","Trial","current_stimulus","response_response","response_time_response","subject_nr","time_Audio1","time_Audio10","time_Audio11","time_Audio12","time_Audio13","time_Audio14","time_Audio15","time_Audio16","time_Audio2","time_Audio3","time_Audio4","time_Audio5","time_Audio6","time_Audio7","time_Audio8","time_Audio9","time_response"
"Blocked","Female","tile","15","F_cling.wav","NA","NA","134","914396.709571","NA","NA","NA","NA","NA","NA","NA","NA","NA","NA","NA","NA","NA","NA","NA","NA"
"Blocked","Female","tile","15","F_tile.wav","None","715.870163636","134","914396.709571","NA","NA","NA","NA","NA","NA","NA","915146.5015","NA","NA","NA","NA","NA","NA","NA","914410.89674"
"Blocked","Female","tile","15","F_ball.wav","None","734.38725085","134","914396.709571","NA","NA","NA","NA","NA","NA","NA","915146.5015","915913.006203","NA","NA","NA","NA","NA","NA","915156.784477"
"Blocked","Female","tile","15","F_lash.wav","space","157.089626999","134","914396.709571","NA","NA","NA","NA","NA","NA","NA","915146.5015","915913.006203","916679.654979","NA","NA","NA","NA","NA","915922.859125"
"Blocked","Female","tile","15","F_tile.wav","None","730.029816274","134","914396.709571","NA","NA","NA","NA","NA","NA","NA","915146.5015","915913.006203","916679.654979","917446.619108","NA","NA","NA","NA","916689.498008"
"Blocked","Female","tile","15","F_ball.wav","space","614.961885614","134","914396.709571","NA","NA","NA","NA","NA","NA","NA","915146.5015","915913.006203","916679.654979","917446.619108","918212.810004","NA","NA","NA","917456.948151"
"Blocked","Female","tile","15","F_jaw.wav","None","725.232742727","134","914396.709571","NA","NA","NA","NA","NA","NA","NA","915146.5015","915913.006203","916679.654979","917446.619108","918212.810004","918979.785882","NA","NA","918222.858012"
"Blocked","Female","tile","15","F_knife.wav","None","721.767571406","134","914396.709571","NA","NA","NA","NA","NA","NA","NA","915146.5015","915913.006203","916679.654979","917446.619108","918212.810004","918979.785882","919746.747228","NA","918990.539723"
"Blocked","Female","tile","15","F_priest.wav","None","720.117533812","134","914396.709571","NA","NA","NA","NA","NA","NA","NA","915146.5015","915913.006203","916679.654979","917446.619108","918212.810004","918979.785882","919746.747228","920496.136309","919756.816878"
"Blocked","Female","tile","15","F_romp.wav","None","735.192637309","134","914396.709571","921263.309746","NA","NA","NA","NA","NA","NA","915146.5015","915913.006203","916679.654979","917446.619108","918212.810004","918979.785882","919746.747228","920496.136309","920506.106097"
"Blocked","Female","tile","15","F_depth.wav","None","732.887160499","134","914396.709571","921263.309746","922029.886795","NA","NA","NA","NA","NA","915146.5015","915913.006203","916679.654979","917446.619108","918212.810004","918979.785882","919746.747228","920496.136309","921272.725811"
"Blocked","Female","tile","15","F_tile.wav","None","729.81308843","134","914396.709571","921263.309746","922029.886795","922796.518566","NA","NA","NA","NA","915146.5015","915913.006203","916679.654979","917446.619108","918212.810004","918979.785882","919746.747228","920496.136309","922040.171008"
"Blocked","Female","tile","15","F_priest.wav","space","456.28312754","134","914396.709571","921263.309746","922029.886795","922796.518566","923563.032235","NA","NA","NA","915146.5015","915913.006203","916679.654979","917446.619108","918212.810004","918979.785882","919746.747228","920496.136309","922806.474442"
"Blocked","Female","tile","15","F_ball.wav","None","725.771006779","134","914396.709571","921263.309746","922029.886795","922796.518566","923563.032235","924330.389319","NA","NA","915146.5015","915913.006203","916679.654979","917446.619108","918212.810004","918979.785882","919746.747228","920496.136309","923572.853313"
"Blocked","Female","tile","15","F_tile.wav","None","722.37849026","134","914396.709571","921263.309746","922029.886795","922796.518566","923563.032235","924330.389319","925096.091109","NA","915146.5015","915913.006203","916679.654979","917446.619108","918212.810004","918979.785882","919746.747228","920496.136309","924340.544608"
"Blocked","Female","tile","15","F_romp.wav","space","445.924404426","134","914396.709571","921263.309746","922029.886795","922796.518566","923563.032235","924330.389319","925096.091109","925863.304428","915146.5015","915913.006203","916679.654979","917446.619108","918212.810004","918979.785882","919746.747228","920496.136309","925105.738124"
"Blocked","Female","ball","4","F_romp.wav","None","718.7500773","134","928995.985125","921263.309746","922029.886795","922796.518566","923563.032235","924330.389319","925096.091109","925863.304428","915146.5015","915913.006203","916679.654979","917446.619108","918212.810004","918979.785882","919746.747228","920496.136309","925873.188885"
"Blocked","Female","ball","4","F_jaw.wav","None","721.97533329","134","928995.985125","921263.309746","922029.886795","922796.518566","923563.032235","924330.389319","925096.091109","925863.304428","929746.69436","915913.006203","916679.654979","917446.619108","918212.810004","918979.785882","919746.747228","920496.136309","929005.058013"
"Blocked","Female","ball","4","F_cling.wav","None","735.364535474","134","928995.985125","921263.309746","922029.886795","922796.518566","923563.032235","924330.389319","925096.091109","925863.304428","929746.69436","930513.004596","916679.654979","917446.619108","918212.810004","918979.785882","919746.747228","920496.136309","929755.983048"
"Blocked","Female","ball","4","F_reek.wav","None","733.323398745","134","928995.985125","921263.309746","922029.886795","922796.518566","923563.032235","924330.389319","925096.091109","925863.304428","929746.69436","930513.004596","931279.944609","917446.619108","918212.810004","918979.785882","919746.747228","920496.136309","930522.679436"
"Blocked","Female","ball","4","F_ball.wav","None","731.577518745","134","928995.985125","921263.309746","922029.886795","922796.518566","923563.032235","924330.389319","925096.091109","925863.304428","929746.69436","930513.004596","931279.944609","932046.115718","918212.810004","918979.785882","919746.747228","920496.136309","931288.917635"
"Blocked","Female","ball","4","F_romp.wav","space","407.838744693","134","928995.985125","921263.309746","922029.886795","922796.518566","923563.032235","924330.389319","925096.091109","925863.304428","929746.69436","930513.004596","931279.944609","932046.115718","932812.454707","918979.785882","919746.747228","920496.136309","932055.638447"
"Blocked","Female","ball","4","F_ball.wav","None","727.017887286","134","928995.985125","921263.309746","922029.886795","922796.518566","923563.032235","924330.389319","925096.091109","925863.304428","929746.69436","930513.004596","931279.944609","932046.115718","932812.454707","933579.964211","919746.747228","920496.136309","932821.850985"
"Blocked","Female","ball","4","F_reek.wav","space","633.326861425","134","928995.985125","921263.309746","922029.886795","922796.518566","923563.032235","924330.389319","925096.091109","925863.304428","929746.69436","930513.004596","931279.944609","932046.115718","932812.454707","933579.964211","934346.281248","920496.136309","933590.058594"
"Blocked","Female","ball","4","F_jaw.wav","None","723.480061046","134","928995.985125","921263.309746","922029.886795","922796.518566","923563.032235","924330.389319","925096.091109","925863.304428","929746.69436","930513.004596","931279.944609","932046.115718","932812.454707","933579.964211","934346.281248","935113.212296","934355.817271"
"Blocked","Female","ball","4","F_cave.wav","None","720.48235382","134","928995.985125","935879.755027","922029.886795","922796.518566","923563.032235","924330.389319","925096.091109","925863.304428","929746.69436","930513.004596","931279.944609","932046.115718","932812.454707","933579.964211","934346.281248","935113.212296","935123.164461"
"Blocked","Female","ball","4","F_cling.wav","None","718.580961577","134","928995.985125","935879.755027","936629.537371","922796.518566","923563.032235","924330.389319","925096.091109","925863.304428","929746.69436","930513.004596","931279.944609","932046.115718","932812.454707","933579.964211","934346.281248","935113.212296","935889.657725"
"Blocked","Female","ball","4","F_ball.wav","None","733.042363659","134","928995.985125","935879.755027","936629.537371","937395.983641","923563.032235","924330.389319","925096.091109","925863.304428","929746.69436","930513.004596","931279.944609","932046.115718","932812.454707","933579.964211","934346.281248","935113.212296","936639.40637"
"Blocked","Female","ball","4","F_park.wav","space","321.804300649","134","928995.985125","935879.755027","936629.537371","937395.983641","938162.789785","924330.389319","925096.091109","925863.304428","929746.69436","930513.004596","931279.944609","932046.115718","932812.454707","933579.964211","934346.281248","935113.212296","937405.528012"
"Blocked","Female","ball","4","F_depth.wav","None","728.5563146","134","928995.985125","935879.755027","936629.537371","937395.983641","938162.789785","938929.304381","925096.091109","925863.304428","929746.69436","930513.004596","931279.944609","932046.115718","932812.454707","933579.964211","934346.281248","935113.212296","938172.382386"
"Blocked","Female","ball","4","F_ball.wav","None","724.60914799","134","928995.985125","935879.755027","936629.537371","937395.983641","938162.789785","938929.304381","939696.259544","925863.304428","929746.69436","930513.004596","931279.944609","932046.115718","932812.454707","933579.964211","934346.281248","935113.212296","938940.489205"
"Blocked","Female","ball","4","F_depth.wav","space","500.778797898","134","928995.985125","935879.755027","936629.537371","937395.983641","938162.789785","938929.304381","939696.259544","940462.727765","929746.69436","930513.004596","931279.944609","932046.115718","932812.454707","933579.964211","934346.281248","935113.212296","939706.470484"
"Blocked","Female","done","24","F_reek.wav","None","722.303362098","134","943579.973795","935879.755027","936629.537371","937395.983641","938162.789785","938929.304381","939696.259544","940462.727765","929746.69436","930513.004596","931279.944609","932046.115718","932812.454707","933579.964211","934346.281248","935113.212296","940471.893094"
"Blocked","Female","done","24","F_greet.wav","None","719.910081127","134","943579.973795","935879.755027","936629.537371","937395.983641","938162.789785","938929.304381","939696.259544","940462.727765","944328.686413","930513.004596","931279.944609","932046.115718","932812.454707","933579.964211","934346.281248","935113.212296","943589.779414"
"Blocked","Female","done","24","F_done.wav","None","736.297609052","134","943579.973795","935879.755027","936629.537371","937395.983641","938162.789785","938929.304381","939696.259544","940462.727765","944328.686413","945095.873453","931279.944609","932046.115718","932812.454707","933579.964211","934346.281248","935113.212296","944337.641816"
"Blocked","Female","done","24","F_jolt.wav","space","525.463816128","134","943579.973795","935879.755027","936629.537371","937395.983641","938162.789785","938929.304381","939696.259544","940462.727765","944328.686413","945095.873453","945862.090938","932046.115718","932812.454707","933579.964211","934346.281248","935113.212296","945105.627441"
"Blocked","Female","done","24","F_done.wav","None","731.353370822","134","943579.973795","935879.755027","936629.537371","937395.983641","938162.789785","938929.304381","939696.259544","940462.727765","944328.686413","945095.873453","945862.090938","946629.559631","932812.454707","933579.964211","934346.281248","935113.212296","945871.217621"
"Blocked","Female","done","24","F_park.wav","space","535.960737965","134","943579.973795","935879.755027","936629.537371","937395.983641","938162.789785","938929.304381","939696.259544","940462.727765","944328.686413","945095.873453","945862.090938","946629.559631","947395.803705","933579.964211","934346.281248","935113.212296","946639.064119"
"Blocked","Female","done","24","F_done.wav","None","724.86544936","134","943579.973795","935879.755027","936629.537371","937395.983641","938162.789785","938929.304381","939696.259544","940462.727765","944328.686413","945095.873453","945862.090938","946629.559631","947395.803705","948162.522353","934346.281248","935113.212296","947405.578716"
"Blocked","Female","done","24","F_romp.wav","space","354.457543581","134","943579.973795","935879.755027","936629.537371","937395.983641","938162.789785","938929.304381","939696.259544","940462.727765","944328.686413","945095.873453","945862.090938","946629.559631","947395.803705","948162.522353","948929.362196","935113.212296","948172.548719"
"Blocked","Female","done","24","F_depth.wav","None","720.14535917","134","943579.973795","935879.755027","936629.537371","937395.983641","938162.789785","938929.304381","939696.259544","940462.727765","944328.686413","945095.873453","945862.090938","946629.559631","947395.803705","948162.522353","948929.362196","949678.639667","948938.744253"
"Blocked","Female","done","24","F_cling.wav","space","407.177121961","134","943579.973795","950445.544435","936629.537371","937395.983641","938162.789785","938929.304381","939696.259544","940462.727765","944328.686413","945095.873453","945862.090938","946629.559631","947395.803705","948162.522353","948929.362196","949678.639667","949687.776861"
"Blocked","Female","done","24","F_done.wav","None","731.71417159","134","943579.973795","950445.544435","951212.370674","937395.983641","938162.789785","938929.304381","939696.259544","940462.727765","944328.686413","945095.873453","945862.090938","946629.559631","947395.803705","948162.522353","948929.362196","949678.639667","950455.458572"
"Blocked","Female","done","24","F_ball.wav","space","520.742179826","134","943579.973795","950445.544435","951212.370674","951978.959162","938162.789785","938929.304381","939696.259544","940462.727765","944328.686413","945095.873453","945862.090938","946629.559631","947395.803705","948162.522353","948929.362196","949678.639667","951222.137647"
"Blocked","Female","done","24","F_gnash.wav","None","727.068281965","134","943579.973795","950445.544435","951212.370674","951978.959162","952745.49571","938929.304381","939696.259544","940462.727765","944328.686413","945095.873453","945862.090938","946629.559631","947395.803705","948162.522353","948929.362196","949678.639667","951988.452829"
"Blocked","Female","done","24","F_tile.wav","None","724.528145627","134","943579.973795","950445.544435","951212.370674","951978.959162","952745.49571","953512.519509","939696.259544","940462.727765","944328.686413","945095.873453","945862.090938","946629.559631","947395.803705","948162.522353","948929.362196","949678.639667","952755.061413"
"Blocked","Female","done","24","F_park.wav","None","721.211993718","134","943579.973795","950445.544435","951212.370674","951978.959162","952745.49571","953512.519509","954279.026994","940462.727765","944328.686413","945095.873453","945862.090938","946629.559631","947395.803705","948162.522353","948929.362196","949678.639667","953522.832784"
"Blocked","Female","done","24","F_priest.wav","None","720.219559851","134","943579.973795","950445.544435","951212.370674","951978.959162","952745.49571","953512.519509","954279.026994","955028.961141","944328.686413","945095.873453","945862.090938","946629.559631","947395.803705","948162.522353","948929.362196","949678.639667","954288.281055"
"Blocked","Female","cave","11","F_priest.wav","None","734.236994525","134","958162.54585","950445.544435","951212.370674","951978.959162","952745.49571","953512.519509","954279.026994","955028.961141","944328.686413","945095.873453","945862.090938","946629.559631","947395.803705","948162.522353","948929.362196","949678.639667","955038.71111"
"Blocked","Female","cave","11","F_cave.wav","None","720.006232848","134","958162.54585","950445.544435","951212.370674","951978.959162","952745.49571","953512.519509","954279.026994","955028.961141","958912.207928","945095.873453","945862.090938","946629.559631","947395.803705","948162.522353","948929.362196","949678.639667","958172.745969"
"Blocked","Female","cave","11","F_ball.wav","space","548.74798737","134","958162.54585","950445.544435","951212.370674","951978.959162","952745.49571","953512.519509","954279.026994","955028.961141","958912.207928","959678.481372","945862.090938","946629.559631","947395.803705","948162.522353","948929.362196","949678.639667","958921.962224"
"Blocked","Female","cave","11","F_cave.wav","None","734.245032887","134","958162.54585","950445.544435","951212.370674","951978.959162","952745.49571","953512.519509","954279.026994","955028.961141","958912.207928","959678.481372","960445.391705","946629.559631","947395.803705","948162.522353","948929.362196","949678.639667","959687.827874"
"Blocked","Female","cave","11","F_romp.wav","space","487.12030903","134","958162.54585","950445.544435","951212.370674","951978.959162","952745.49571","953512.519509","954279.026994","955028.961141","958912.207928","959678.481372","960445.391705","961212.105098","947395.803705","948162.522353","948929.362196","949678.639667","960455.487016"
"Blocked","Female","cave","11","F_ball.wav","None","728.019596427","134","958162.54585","950445.544435","951212.370674","951978.959162","952745.49571","953512.519509","954279.026994","955028.961141","958912.207928","959678.481372","960445.391705","961212.105098","961978.622477","948162.522353","948929.362196","949678.639667","961221.698008"
"Blocked","Female","cave","11","F_depth.wav","None","726.113875746","134","958162.54585","950445.544435","951212.370674","951978.959162","952745.49571","953512.519509","954279.026994","955028.961141","958912.207928","959678.481372","960445.391705","961212.105098","961978.622477","962745.672555","948929.362196","949678.639667","961988.078734"
"Blocked","Female","cave","11","F_tile.wav","None","722.431358183","134","958162.54585","950445.544435","951212.370674","951978.959162","952745.49571","953512.519509","954279.026994","955028.961141","958912.207928","959678.481372","960445.391705","961212.105098","961978.622477","962745.672555","963512.599274","949678.639667","962756.05663"
"Blocked","Female","cave","11","F_cad.wav","None","720.273664454","134","958162.54585","950445.544435","951212.370674","951978.959162","952745.49571","953512.519509","954279.026994","955028.961141","958912.207928","959678.481372","960445.391705","961212.105098","961978.622477","962745.672555","963512.599274","964279.050491","963522.73385"
"Blocked","Female","cave","11","F_greet.wav","None","718.462240533","134","958162.54585","965028.936408","951212.370674","951978.959162","952745.49571","953512.519509","954279.026994","955028.961141","958912.207928","959678.481372","960445.391705","961212.105098","961978.622477","962745.672555","963512.599274","964279.050491","964289.392828"
"Blocked","Female","cave","11","F_tile.wav","None","733.591448632","134","958162.54585","965028.936408","965794.670042","951978.959162","952745.49571","953512.519509","954279.026994","955028.961141","958912.207928","959678.481372","960445.391705","961212.105098","961978.622477","962745.672555","963512.599274","964279.050491","965038.702453"
"Blocked","Female","cave","11","F_cave.wav","None","735.003734822","134","958162.54585","965028.936408","965794.670042","966561.459799","952745.49571","953512.519509","954279.026994","955028.961141","958912.207928","959678.481372","960445.391705","961212.105098","961978.622477","962745.672555","963512.599274","964279.050491","965803.788068"
"Blocked","Female","cave","11","F_cling.wav","space","411.785911303","134","958162.54585","965028.936408","965794.670042","966561.459799","967328.209983","953512.519509","954279.026994","955028.961141","958912.207928","959678.481372","960445.391705","961212.105098","961978.622477","962745.672555","963512.599274","964279.050491","966570.64677"
"Blocked","Female","cave","11","F_cave.wav","None","729.707661783","134","958162.54585","965028.936408","965794.670042","966561.459799","967328.209983","968095.107022","954279.026994","955028.961141","958912.207928","959678.481372","960445.391705","961212.105098","961978.622477","962745.672555","963512.599274","964279.050491","967337.615227"
"Blocked","Female","cave","11","F_depth.wav","None","727.130115731","134","958162.54585","965028.936408","965794.670042","966561.459799","967328.209983","968095.107022","968861.885958","955028.961141","958912.207928","959678.481372","960445.391705","961212.105098","961978.622477","962745.672555","963512.599274","964279.050491","968104.723429"
"Blocked","Female","cave","11","F_knife.wav","None","724.619350513","134","958162.54585","965028.936408","965794.670042","966561.459799","967328.209983","968095.107022","968861.885958","969628.9011","958912.207928","959678.481372","960445.391705","961212.105098","961978.622477","962745.672555","963512.599274","964279.050491","968871.502057"
"Blocked","Female","ball","1","F_romp.wav","None","721.714084968","134","972745.177884","965028.936408","965794.670042","966561.459799","967328.209983","968095.107022","968861.885958","969628.9011","958912.207928","959678.481372","960445.391705","961212.105098","961978.622477","962745.672555","963512.599274","964279.050491","969638.891294"
"Blocked","Female","ball","1","F_jaw.wav","None","720.396095538","134","972745.177884","965028.936408","965794.670042","966561.459799","967328.209983","968095.107022","968861.885958","969628.9011","973512.050499","959678.481372","960445.391705","961212.105098","961978.622477","962745.672555","963512.599274","964279.050491","972755.523931"
"Blocked","Female","ball","1","F_ball.wav","None","717.913773842","134","972745.177884","965028.936408","965794.670042","966561.459799","967328.209983","968095.107022","968861.885958","969628.9011","973512.050499","974261.928067","960445.391705","961212.105098","961978.622477","962745.672555","963512.599274","964279.050491","973522.783008"
"Blocked","Female","ball","1","F_jaw.wav","space","527.508662897","134","972745.177884","965028.936408","965794.670042","966561.459799","967328.209983","968095.107022","968861.885958","969628.9011","973512.050499","974261.928067","975028.57808","961212.105098","961978.622477","962745.672555","963512.599274","964279.050491","974270.709099"
"Blocked","Female","ball","1","F_ball.wav","None","730.881578173","134","972745.177884","965028.936408","965794.670042","966561.459799","967328.209983","968095.107022","968861.885958","969628.9011","973512.050499","974261.928067","975028.57808","975794.433218","961978.622477","962745.672555","963512.599274","964279.050491","975038.29033"
"Blocked","Female","ball","1","F_done.wav","space","618.765288498","134","972745.177884","965028.936408","965794.670042","966561.459799","967328.209983","968095.107022","968861.885958","969628.9011","973512.050499","974261.928067","975028.57808","975794.433218","976561.613457","962745.672555","963512.599274","964279.050491","975803.383365"
"Blocked","Female","ball","1","F_bluff.wav","None","726.531563676","134","972745.177884","965028.936408","965794.670042","966561.459799","967328.209983","968095.107022","968861.885958","969628.9011","973512.050499","974261.928067","975028.57808","975794.433218","976561.613457","977327.816719","963512.599274","964279.050491","976571.385685"
"Blocked","Female","ball","1","F_depth.wav","None","725.848299218","134","972745.177884","965028.936408","965794.670042","966561.459799","967328.209983","968095.107022","968861.885958","969628.9011","973512.050499","974261.928067","975028.57808","975794.433218","976561.613457","977327.816719","978094.654707","964279.050491","977336.884969"
"Blocked","Female","ball","1","F_park.wav","None","723.61454973","134","972745.177884","965028.936408","965794.670042","966561.459799","967328.209983","968095.107022","968861.885958","969628.9011","973512.050499","974261.928067","975028.57808","975794.433218","976561.613457","977327.816719","978094.654707","978862.155554","978104.05315"
"Blocked","Female","ball","1","F_park.wav","None","720.512652537","134","972745.177884","979611.891833","965794.670042","966561.459799","967328.209983","968095.107022","968861.885958","969628.9011","973512.050499","974261.928067","975028.57808","975794.433218","976561.613457","977327.816719","978094.654707","978862.155554","978871.782473"
"Blocked","Female","ball","1","F_ball.wav","None","734.890269581","134","972745.177884","979611.891833","980378.197122","966561.459799","967328.209983","968095.107022","968861.885958","969628.9011","973512.050499","974261.928067","975028.57808","975794.433218","976561.613457","977327.816719","978094.654707","978862.155554","979621.836578"
"Blocked","Female","ball","1","F_cave.wav","space","433.493936551","134","972745.177884","979611.891833","980378.197122","981144.769842","967328.209983","968095.107022","968861.885958","969628.9011","973512.050499","974261.928067","975028.57808","975794.433218","976561.613457","977327.816719","978094.654707","978862.155554","980388.54657"
"Blocked","Female","ball","1","F_dime.wav","None","730.139571475","134","972745.177884","979611.891833","980378.197122","981144.769842","981910.988563","968095.107022","968861.885958","969628.9011","973512.050499","974261.928067","975028.57808","975794.433218","976561.613457","977327.816719","978094.654707","978862.155554","981155.123309"
"Blocked","Female","ball","1","F_ball.wav","None","730.087321717","134","972745.177884","979611.891833","980378.197122","981144.769842","981910.988563","982678.265263","968861.885958","969628.9011","973512.050499","974261.928067","975028.57808","975794.433218","976561.613457","977327.816719","978094.654707","978862.155554","981919.849051"
"Blocked","Female","ball","1","F_lash.wav","space","454.008567729","134","972745.177884","979611.891833","980378.197122","981144.769842","981910.988563","982678.265263","983444.611362","969628.9011","973512.050499","974261.928067","975028.57808","975794.433218","976561.613457","977327.816719","978094.654707","978862.155554","982687.958344"
"Blocked","Female","ball","1","F_gnash.wav","None","724.402931868","134","972745.177884","979611.891833","980378.197122","981144.769842","981910.988563","982678.265263","983444.611362","984211.842613","973512.050499","974261.928067","975028.57808","975794.433218","976561.613457","977327.816719","978094.654707","978862.155554","983454.255285"
"Blocked","Female","tile","14","F_lash.wav","None","720.704337466","134","987328.367969","979611.891833","980378.197122","981144.769842","981910.988563","982678.265263","983444.611362","984211.842613","973512.050499","974261.928067","975028.57808","975794.433218","976561.613457","977327.816719","978094.654707","978862.155554","984222.466913"
"Blocked","Female","tile","14","F_lash.wav","None","720.435050898","134","987328.367969","979611.891833","980378.197122","981144.769842","981910.988563","982678.265263","983444.611362","984211.842613","988077.612668","974261.928067","975028.57808","975794.433218","976561.613457","977327.816719","978094.654707","978862.155554","987338.12783"
"Blocked","Female","tile","14","F_tile.wav","None","736.139314133","134","987328.367969","979611.891833","980378.197122","981144.769842","981910.988563","982678.265263","983444.611362","984211.842613","988077.612668","988844.402425","975028.57808","975794.433218","976561.613457","977327.816719","978094.654707","978862.155554","988087.125194"
"Blocked","Female","tile","14","F_jaw.wav","space","367.789549637","134","987328.367969","979611.891833","980378.197122","981144.769842","981910.988563","982678.265263","983444.611362","984211.842613","988077.612668","988844.402425","989611.229283","975794.433218","976561.613457","977327.816719","978094.654707","978862.155554","988853.994717"
"Blocked","Female","tile","14","F_tile.wav","None","731.933991075","134","987328.367969","979611.891833","980378.197122","981144.769842","981910.988563","982678.265263","983444.611362","984211.842613","988077.612668","988844.402425","989611.229283","990377.551885","976561.613457","977327.816719","978094.654707","978862.155554","989620.300933"
"Blocked","Female","tile","14","F_knife.wav","None","730.259838398","134","987328.367969","979611.891833","980378.197122","981144.769842","981910.988563","982678.265263","983444.611362","984211.842613","988077.612668","988844.402425","989611.229283","990377.551885","991144.403167","977327.816719","978094.654707","978862.155554","990386.700519"
"Blocked","Female","tile","14","F_ball.wav","space","163.433166221","134","987328.367969","979611.891833","980378.197122","981144.769842","981910.988563","982678.265263","983444.611362","984211.842613","988077.612668","988844.402425","989611.229283","990377.551885","991144.403167","991911.114086","978094.654707","978862.155554","991154.288861"
"Blocked","Female","tile","14","F_gnash.wav","space","677.355995052","134","987328.367969","979611.891833","980378.197122","981144.769842","981910.988563","982678.265263","983444.611362","984211.842613","988077.612668","988844.402425","989611.229283","990377.551885","991144.403167","991911.114086","992677.763171","978862.155554","991920.300748"
"Blocked","Female","tile","14","F_cad.wav","None","723.588579567","134","987328.367969","979611.891833","980378.197122","981144.769842","981910.988563","982678.265263","983444.611362","984211.842613","988077.612668","988844.402425","989611.229283","990377.551885","991144.403167","991911.114086","992677.763171","993444.614762","992687.294866"
"Blocked","Female","tile","14","F_cave.wav","None","720.793996705","134","987328.367969","994211.571162","980378.197122","981144.769842","981910.988563","982678.265263","983444.611362","984211.842613","988077.612668","988844.402425","989611.229283","990377.551885","991144.403167","991911.114086","992677.763171","993444.614762","993454.719348"
"Blocked","Female","tile","14","F_greet.wav","None","718.516654451","134","987328.367969","994211.571162","994960.481958","981144.769842","981910.988563","982678.265263","983444.611362","984211.842613","988077.612668","988844.402425","989611.229283","990377.551885","991144.403167","991911.114086","992677.763171","993444.614762","994221.736036"
"Blocked","Female","tile","14","F_tile.wav","None","735.329908552","134","987328.367969","994211.571162","994960.481958","995727.931792","981910.988563","982678.265263","983444.611362","984211.842613","988077.612668","988844.402425","989611.229283","990377.551885","991144.403167","991911.114086","992677.763171","993444.614762","994969.773119"
"Blocked","Female","tile","14","F_depth.wav","space","524.257127661","134","987328.367969","994211.571162","994960.481958","995727.931792","996493.804553","982678.265263","983444.611362","984211.842613","988077.612668","988844.402425","989611.229283","990377.551885","991144.403167","991911.114086","992677.763171","993444.614762","995737.255416"
"Blocked","Female","tile","14","F_romp.wav","None","731.387997745","134","987328.367969","994211.571162","994960.481958","995727.931792","996493.804553","997261.247585","983444.611362","984211.842613","988077.612668","988844.402425","989611.229283","990377.551885","991144.403167","991911.114086","992677.763171","993444.614762","996502.77325"
"Blocked","Female","tile","14","F_tile.wav","None","728.334640036","134","987328.367969","994211.571162","994960.481958","995727.931792","996493.804553","997261.247585","998027.52103","984211.842613","988077.612668","988844.402425","989611.229283","990377.551885","991144.403167","991911.114086","992677.763171","993444.614762","997270.460836"
"Blocked","Female","tile","14","F_priest.wav","space","464.816514053","134","987328.367969","994211.571162","994960.481958","995727.931792","996493.804553","997261.247585","998027.52103","998794.540191","988077.612668","988844.402425","989611.229283","990377.551885","991144.403167","991911.114086","992677.763171","993444.614762","998036.683885"
"Blocked","Female","cave","12","F_priest.wav","None","723.003012594","134","1001911.1855","994211.571162","994960.481958","995727.931792","996493.804553","997261.247585","998027.52103","998794.540191","988077.612668","988844.402425","989611.229283","990377.551885","991144.403167","991911.114086","992677.763171","993444.614762","998804.69208"
"Blocked","Female","cave","12","F_gnash.wav","None","720.550061902","134","1001911.1855","994211.571162","994960.481958","995727.931792","996493.804553","997261.247585","998027.52103","998794.540191","1002677.18379","988844.402425","989611.229283","990377.551885","991144.403167","991911.114086","992677.763171","993444.614762","1001921.47807"
"Blocked","Female","cave","12","F_reek.wav","None","720.040859771","134","1001911.1855","994211.571162","994960.481958","995727.931792","996493.804553","997261.247585","998027.52103","998794.540191","1002677.18379","1003427.29323","989611.229283","990377.551885","991144.403167","991911.114086","992677.763171","993444.614762","1002686.75815"
"Blocked","Female","cave","12","F_cave.wav","None","734.450630611","134","1001911.1855","994211.571162","994960.481958","995727.931792","996493.804553","997261.247585","998027.52103","998794.540191","1002677.18379","1003427.29323","1004193.95159","990377.551885","991144.403167","991911.114086","992677.763171","993444.614762","1003436.8914"
"Blocked","Female","cave","12","F_cad.wav","space","385.440962273","134","1001911.1855","994211.571162","994960.481958","995727.931792","996493.804553","997261.247585","998027.52103","998794.540191","1002677.18379","1003427.29323","1004193.95159","1004960.31222","991144.403167","991911.114086","992677.763171","993444.614762","1004203.86388"
"Blocked","Female","cave","12","F_reek.wav","None","730.495116441","134","1001911.1855","994211.571162","994960.481958","995727.931792","996493.804553","997261.247585","998027.52103","998794.540191","1002677.18379","1003427.29323","1004193.95159","1004960.31222","1005727.24729","991911.114086","992677.763171","993444.614762","1004969.63678"
"Blocked","Female","cave","12","F_done.wav","None","728.458307916","134","1001911.1855","994211.571162","994960.481958","995727.931792","996493.804553","997261.247585","998027.52103","998794.540191","1002677.18379","1003427.29323","1004193.95159","1004960.31222","1005727.24729","1006493.87288","992677.763171","993444.614762","1005736.3514"
"Blocked","Female","cave","12","F_reek.wav","None","726.151285227","134","1001911.1855","994211.571162","994960.481958","995727.931792","996493.804553","997261.247585","998027.52103","998794.540191","1002677.18379","1003427.29323","1004193.95159","1004960.31222","1005727.24729","1006493.87288","1007260.2366","993444.614762","1006503.30286"
"Blocked","Female","cave","12","F_jolt.wav","None","724.579158472","134","1001911.1855","994211.571162","994960.481958","995727.931792","996493.804553","997261.247585","998027.52103","998794.540191","1002677.18379","1003427.29323","1004193.95159","1004960.31222","1005727.24729","1006493.87288","1007260.2366","1008027.14601","1007269.62484"
"Blocked","Female","cave","12","F_cave.wav","None","722.537712543","134","1001911.1855","1008793.56723","994960.481958","995727.931792","996493.804553","997261.247585","998027.52103","998794.540191","1002677.18379","1003427.29323","1004193.95159","1004960.31222","1005727.24729","1006493.87288","1007260.2366","1008027.14601","1008036.33947"
"Blocked","Female","cave","12","F_park.wav","space","497.856837232","134","1001911.1855","1008793.56723","1009543.2862","995727.931792","996493.804553","997261.247585","998027.52103","998794.540191","1002677.18379","1003427.29323","1004193.95159","1004960.31222","1005727.24729","1006493.87288","1007260.2366","1008027.14601","1008803.29958"
"Blocked","Female","cave","12","F_jolt.wav","None","735.19449227","134","1001911.1855","1008793.56723","1009543.2862","1010310.1381","996493.804553","997261.247585","998027.52103","998794.540191","1002677.18379","1003427.29323","1004193.95159","1004960.31222","1005727.24729","1006493.87288","1007260.2366","1008027.14601","1009552.59189"
"Blocked","Female","cave","12","F_cave.wav","None","733.396362746","134","1001911.1855","1008793.56723","1009543.2862","1010310.1381","1011077.20364","997261.247585","998027.52103","998794.540191","1002677.18379","1003427.29323","1004193.95159","1004960.31222","1005727.24729","1006493.87288","1007260.2366","1008027.14601","1010319.17636"
"Blocked","Female","cave","12","F_romp.wav","space","534.869060619","134","1001911.1855","1008793.56723","1009543.2862","1010310.1381","1011077.20364","1011843.35589","998027.52103","998794.540191","1002677.18379","1003427.29323","1004193.95159","1004960.31222","1005727.24729","1006493.87288","1007260.2366","1008027.14601","1011086.2385"
"Blocked","Female","cave","12","F_cave.wav","None","728.772114846","134","1001911.1855","1008793.56723","1009543.2862","1010310.1381","1011077.20364","1011843.35589","1012610.54076","998794.540191","1002677.18379","1003427.29323","1004193.95159","1004960.31222","1005727.24729","1006493.87288","1007260.2366","1008027.14601","1011852.49494"
"Blocked","Female","cave","12","F_romp.wav","None","725.764205097","134","1001911.1855","1008793.56723","1009543.2862","1010310.1381","1011077.20364","1011843.35589","1012610.54076","1013377.30764","1002677.18379","1003427.29323","1004193.95159","1004960.31222","1005727.24729","1006493.87288","1007260.2366","1008027.14601","1012620.01124"
"Blocked","Female","cave","8","F_bluff.wav","None","722.956327954","134","1016510.79558","1008793.56723","1009543.2862","1010310.1381","1011077.20364","1011843.35589","1012610.54076","1013377.30764","1002677.18379","1003427.29323","1004193.95159","1004960.31222","1005727.24729","1006493.87288","1007260.2366","1008027.14601","1013387.64874"
"Blocked","Female","cave","8","F_cave.wav","None","720.794305787","134","1016510.79558","1008793.56723","1009543.2862","1010310.1381","1011077.20364","1011843.35589","1012610.54076","1013377.30764","1017277.66325","1003427.29323","1004193.95159","1004960.31222","1005727.24729","1006493.87288","1007260.2366","1008027.14601","1016520.49855"
"Blocked","Female","cave","8","F_bluff.wav","space","379.948257352","134","1016510.79558","1008793.56723","1009543.2862","1010310.1381","1011077.20364","1011843.35589","1012610.54076","1013377.30764","1017277.66325","1018026.97194","1004193.95159","1004960.31222","1005727.24729","1006493.87288","1007260.2366","1008027.14601","1017288.96463"
"Blocked","Female","cave","8","F_cave.wav","None","733.11192682","134","1016510.79558","1008793.56723","1009543.2862","1010310.1381","1011077.20364","1011843.35589","1012610.54076","1013377.30764","1017277.66325","1018026.97194","1018793.55147","1004960.31222","1005727.24729","1006493.87288","1007260.2366","1008027.14601","1018036.81064"
"Blocked","Female","cave","8","F_jolt.wav","space","553.561756038","134","1016510.79558","1008793.56723","1009543.2862","1010310.1381","1011077.20364","1011843.35589","1012610.54076","1013377.30764","1017277.66325","1018026.97194","1018793.55147","1019560.32236","1005727.24729","1006493.87288","1007260.2366","1008027.14601","1018803.31689"
"Blocked","Female","cave","8","F_jaw.wav","None","728.912787046","134","1016510.79558","1008793.56723","1009543.2862","1010310.1381","1011077.20364","1011843.35589","1012610.54076","1013377.30764","1017277.66325","1018026.97194","1018793.55147","1019560.32236","1020326.9294","1006493.87288","1007260.2366","1008027.14601","1019569.6395"
"Blocked","Female","cave","8","F_park.wav","None","726.888963603","134","1016510.79558","1008793.56723","1009543.2862","1010310.1381","1011077.20364","1011843.35589","1012610.54076","1013377.30764","1017277.66325","1018026.97194","1018793.55147","1019560.32236","1020326.9294","1021093.24366","1007260.2366","1008027.14601","1020336.53777"
"Blocked","Female","cave","8","F_cave.wav","None","725.160706323","134","1016510.79558","1008793.56723","1009543.2862","1010310.1381","1011077.20364","1011843.35589","1012610.54076","1013377.30764","1017277.66325","1018026.97194","1018793.55147","1019560.32236","1020326.9294","1021093.24366","1021860.7074","1008027.14601","1021102.84708"
"Blocked","Female","cave","8","F_depth.wav","space","429.823785671","134","1016510.79558","1008793.56723","1009543.2862","1010310.1381","1011077.20364","1011843.35589","1012610.54076","1013377.30764","1017277.66325","1018026.97194","1018793.55147","1019560.32236","1020326.9294","1021093.24366","1021860.7074","1022627.28043","1021870.93875"
"Blocked","Female","cave","8","F_jolt.wav","None","719.391913153","134","1016510.79558","1023376.75052","1009543.2862","1010310.1381","1011077.20364","1011843.35589","1012610.54076","1013377.30764","1017277.66325","1018026.97194","1018793.55147","1019560.32236","1020326.9294","1021093.24366","1021860.7074","1022627.28043","1022637.20941"
"Blocked","Female","cave","8","F_cave.wav","None","735.252307029","134","1016510.79558","1023376.75052","1024143.44814","1010310.1381","1011077.20364","1011843.35589","1012610.54076","1013377.30764","1017277.66325","1018026.97194","1018793.55147","1019560.32236","1020326.9294","1021093.24366","1021860.7074","1022627.28043","1023386.2581"
"Blocked","Female","cave","8","F_done.wav","space","715.572742629","134","1016510.79558","1023376.75052","1024143.44814","1024909.61029","1011077.20364","1011843.35589","1012610.54076","1013377.30764","1017277.66325","1018026.97194","1018793.55147","1019560.32236","1020326.9294","1021093.24366","1021860.7074","1022627.28043","1024153.14617"
"Blocked","Female","cave","8","F_priest.wav","None","731.857935316","134","1016510.79558","1023376.75052","1024143.44814","1024909.61029","1025676.62574","1011843.35589","1012610.54076","1013377.30764","1017277.66325","1018026.97194","1018793.55147","1019560.32236","1020326.9294","1021093.24366","1021860.7074","1022627.28043","1024918.53075"
"Blocked","Female","cave","8","F_cling.wav","None","729.523705901","134","1016510.79558","1023376.75052","1024143.44814","1024909.61029","1025676.62574","1026443.31038","1012610.54076","1013377.30764","1017277.66325","1018026.97194","1018793.55147","1019560.32236","1020326.9294","1021093.24366","1021860.7074","1022627.28043","1025685.7821"
"Blocked","Female","cave","8","F_priest.wav","None","726.764368359","134","1016510.79558","1023376.75052","1024143.44814","1024909.61029","1025676.62574","1026443.31038","1027210.05716","1013377.30764","1017277.66325","1018026.97194","1018793.55147","1019560.32236","1020326.9294","1021093.24366","1021860.7074","1022627.28043","1026453.30613"
"Blocked","Female","cave","8","F_bluff.wav","None","725.005812361","134","1016510.79558","1023376.75052","1024143.44814","1024909.61029","1025676.62574","1026443.31038","1027210.05716","1027977.10847","1017277.66325","1018026.97194","1018793.55147","1019560.32236","1020326.9294","1021093.24366","1021860.7074","1022627.28043","1027219.62255"
"Blocked","Female","cave","10","F_tile.wav","None","722.122807056","134","1031093.55252","1023376.75052","1024143.44814","1024909.61029","1025676.62574","1026443.31038","1027210.05716","1027977.10847","1017277.66325","1018026.97194","1018793.55147","1019560.32236","1020326.9294","1021093.24366","1021860.7074","1022627.28043","1027987.13917"
"Blocked","Female","cave","10","F_cling.wav","None","720.374762896","134","1031093.55252","1023376.75052","1024143.44814","1024909.61029","1025676.62574","1026443.31038","1027210.05716","1027977.10847","1031859.73785","1018026.97194","1018793.55147","1019560.32236","1020326.9294","1021093.24366","1021860.7074","1022627.28043","1031103.72172"
"Blocked","Female","cave","10","F_cave.wav","None","719.59163656","134","1031093.55252","1023376.75052","1024143.44814","1024909.61029","1025676.62574","1026443.31038","1027210.05716","1027977.10847","1031859.73785","1032609.29728","1018793.55147","1019560.32236","1020326.9294","1021093.24366","1021860.7074","1022627.28043","1031869.32519"
"Blocked","Female","cave","10","F_priest.wav","space","385.785686201","134","1031093.55252","1023376.75052","1024143.44814","1024909.61029","1025676.62574","1026443.31038","1027210.05716","1027977.10847","1031859.73785","1032609.29728","1033376.16557","1019560.32236","1020326.9294","1021093.24366","1021860.7074","1022627.28043","1032618.69047"
"Blocked","Female","cave","10","F_bluff.wav","None","732.842330937","134","1031093.55252","1023376.75052","1024143.44814","1024909.61029","1025676.62574","1026443.31038","1027210.05716","1027977.10847","1031859.73785","1032609.29728","1033376.16557","1034143.10929","1020326.9294","1021093.24366","1021860.7074","1022627.28043","1033385.12128"
"Blocked","Female","cave","10","F_cling.wav","None","730.058259913","134","1031093.55252","1023376.75052","1024143.44814","1024909.61029","1025676.62574","1026443.31038","1027210.05716","1027977.10847","1031859.73785","1032609.29728","1033376.16557","1034143.10929","1034909.37377","1021093.24366","1021860.7074","1022627.28043","1034152.6246"
"Blocked","Female","cave","10","F_cave.wav","None","728.566208039","134","1031093.55252","1023376.75052","1024143.44814","1024909.61029","1025676.62574","1026443.31038","1027210.05716","1027977.10847","1031859.73785","1032609.29728","1033376.16557","1034143.10929","1034909.37377","1035676.50021","1021860.7074","1022627.28043","1034918.66339"
"Blocked","Female","cave","10","F_ball.wav","space","429.506268702","134","1031093.55252","1023376.75052","1024143.44814","1024909.61029","1025676.62574","1026443.31038","1027210.05716","1027977.10847","1031859.73785","1032609.29728","1033376.16557","1034143.10929","1034909.37377","1035676.50021","1036443.39292","1022627.28043","1035686.81689"
"Blocked","Female","cave","10","F_park.wav","None","722.455782583","134","1031093.55252","1023376.75052","1024143.44814","1024909.61029","1025676.62574","1026443.31038","1027210.05716","1027977.10847","1031859.73785","1032609.29728","1033376.16557","1034143.10929","1034909.37377","1035676.50021","1036443.39292","1037209.59341","1036453.76865"
"Blocked","Female","cave","10","F_cave.wav","None","722.209992819","134","1031093.55252","1037977.0825","1024143.44814","1024909.61029","1025676.62574","1026443.31038","1027210.05716","1027977.10847","1031859.73785","1032609.29728","1033376.16557","1034143.10929","1034909.37377","1035676.50021","1036443.39292","1037209.59341","1037218.98628"
"Blocked","Female","cave","10","F_priest.wav","space","697.121508536","134","1031093.55252","1037977.0825","1038726.29288","1024909.61029","1025676.62574","1026443.31038","1027210.05716","1027977.10847","1031859.73785","1032609.29728","1033376.16557","1034143.10929","1034909.37377","1035676.50021","1036443.39292","1037209.59341","1037987.20564"
"Blocked","Female","cave","10","F_gnash.wav","None","734.330054489","134","1031093.55252","1037977.0825","1038726.29288","1039493.01339","1025676.62574","1026443.31038","1027210.05716","1027977.10847","1031859.73785","1032609.29728","1033376.16557","1034143.10929","1034909.37377","1035676.50021","1036443.39292","1037209.59341","1038735.83014"
"Blocked","Female","cave","10","F_cave.wav","None","732.307776925","134","1031093.55252","1037977.0825","1038726.29288","1039493.01339","1040259.88848","1026443.31038","1027210.05716","1027977.10847","1031859.73785","1032609.29728","1033376.16557","1034143.10929","1034909.37377","1035676.50021","1036443.39292","1037209.59341","1039502.64309"
"Blocked","Female","cave","10","F_reek.wav","space","494.251302909","134","1031093.55252","1037977.0825","1038726.29288","1039493.01339","1040259.88848","1041026.12142","1027210.05716","1027977.10847","1031859.73785","1032609.29728","1033376.16557","1034143.10929","1034909.37377","1035676.50021","1036443.39292","1037209.59341","1040269.99986"
"Blocked","Female","cave","10","F_park.wav","None","728.663287242","134","1031093.55252","1037977.0825","1038726.29288","1039493.01339","1040259.88848","1041026.12142","1041792.5479","1027977.10847","1031859.73785","1032609.29728","1033376.16557","1034143.10929","1034909.37377","1035676.50021","1036443.39292","1037209.59341","1041035.4166"
"Blocked","Female","cave","10","F_knife.wav","None","727.325201849","134","1031093.55252","1037977.0825","1038726.29288","1039493.01339","1040259.88848","1041026.12142","1041792.5479","1042559.17442","1031859.73785","1032609.29728","1033376.16557","1034143.10929","1034909.37377","1035676.50021","1036443.39292","1037209.59341","1041801.72869"
"Blocked","Female","ball","6","F_park.wav","None","724.869468599","134","1045693.18269","1037977.0825","1038726.29288","1039493.01339","1040259.88848","1041026.12142","1041792.5479","1042559.17442","1031859.73785","1032609.29728","1033376.16557","1034143.10929","1034909.37377","1035676.50021","1036443.39292","1037209.59341","1042568.96427"
"Blocked","Female","ball","6","F_ball.wav","None","720.502140699","134","1045693.18269","1037977.0825","1038726.29288","1039493.01339","1040259.88848","1041026.12142","1041792.5479","1042559.17442","1046459.92885","1032609.29728","1033376.16557","1034143.10929","1034909.37377","1035676.50021","1036443.39292","1037209.59341","1045703.28233"
"Blocked","Female","ball","6","F_romp.wav","space","421.795891365","134","1045693.18269","1037977.0825","1038726.29288","1039493.01339","1040259.88848","1041026.12142","1041792.5479","1042559.17442","1046459.92885","1047209.22766","1033376.16557","1034143.10929","1034909.37377","1035676.50021","1036443.39292","1037209.59341","1046470.20874"
"Blocked","Female","ball","6","F_romp.wav","None","733.582791872","134","1045693.18269","1037977.0825","1038726.29288","1039493.01339","1040259.88848","1041026.12142","1041792.5479","1042559.17442","1046459.92885","1047209.22766","1047975.72989","1034143.10929","1034909.37377","1035676.50021","1036443.39292","1037209.59341","1047219.13283"
"Blocked","Female","ball","6","F_ball.wav","None","732.898290618","134","1045693.18269","1037977.0825","1038726.29288","1039493.01339","1040259.88848","1041026.12142","1041792.5479","1042559.17442","1046459.92885","1047209.22766","1047975.72989","1048742.56911","1034909.37377","1035676.50021","1036443.39292","1037209.59341","1047985.10885"
"Blocked","Female","ball","6","F_tile.wav","space","403.687835322","134","1045693.18269","1037977.0825","1038726.29288","1039493.01339","1040259.88848","1041026.12142","1041792.5479","1042559.17442","1046459.92885","1047209.22766","1047975.72989","1048742.56911","1049509.46801","1035676.50021","1036443.39292","1037209.59341","1048752.27054"
"Blocked","Female","ball","6","F_priest.wav","None","728.68956672","134","1045693.18269","1037977.0825","1038726.29288","1039493.01339","1040259.88848","1041026.12142","1041792.5479","1042559.17442","1046459.92885","1047209.22766","1047975.72989","1048742.56911","1049509.46801","1050276.00579","1036443.39292","1037209.59341","1049519.1614"
"Blocked","Female","ball","6","F_jaw.wav","None","727.367558051","134","1045693.18269","1037977.0825","1038726.29288","1039493.01339","1040259.88848","1041026.12142","1041792.5479","1042559.17442","1046459.92885","1047209.22766","1047975.72989","1048742.56911","1049509.46801","1050276.00579","1051042.649","1037209.59341","1050286.07328"
"Blocked","Female","ball","6","F_ball.wav","None","725.751529215","134","1045693.18269","1037977.0825","1038726.29288","1039493.01339","1040259.88848","1041026.12142","1041792.5479","1042559.17442","1046459.92885","1047209.22766","1047975.72989","1048742.56911","1049509.46801","1050276.00579","1051042.649","1051808.83804","1051052.67506"
"Blocked","Female","ball","6","F_priest.wav","space","410.200181068","134","1045693.18269","1052576.59024","1038726.29288","1039493.01339","1040259.88848","1041026.12142","1041792.5479","1042559.17442","1046459.92885","1047209.22766","1047975.72989","1048742.56911","1049509.46801","1050276.00579","1051042.649","1051808.83804","1051817.69822"
"Blocked","Female","ball","6","F_ball.wav","None","720.629209303","134","1045693.18269","1052576.59024","1053342.91625","1039493.01339","1040259.88848","1041026.12142","1041792.5479","1042559.17442","1046459.92885","1047209.22766","1047975.72989","1048742.56911","1049509.46801","1050276.00579","1051042.649","1051808.83804","1052586.74832"
"Blocked","Female","ball","6","F_gnash.wav","space","562.98029481","134","1045693.18269","1052576.59024","1053342.91625","1054091.97266","1040259.88848","1041026.12142","1041792.5479","1042559.17442","1046459.92885","1047209.22766","1047975.72989","1048742.56911","1049509.46801","1050276.00579","1051042.649","1051808.83804","1053352.84461"
"Blocked","Female","ball","6","F_gnash.wav","None","735.236848472","134","1045693.18269","1052576.59024","1053342.91625","1054091.97266","1054859.28306","1041026.12142","1041792.5479","1042559.17442","1046459.92885","1047209.22766","1047975.72989","1048742.56911","1049509.46801","1050276.00579","1051042.649","1051808.83804","1054101.3844"
"Blocked","Female","ball","6","F_lash.wav","None","732.828727458","134","1045693.18269","1052576.59024","1053342.91625","1054091.97266","1054859.28306","1055625.50766","1041792.5479","1042559.17442","1046459.92885","1047209.22766","1047975.72989","1048742.56911","1049509.46801","1050276.00579","1051042.649","1051808.83804","1054868.66295"
"Blocked","Female","ball","6","F_cad.wav","None","731.924097636","134","1045693.18269","1052576.59024","1053342.91625","1054091.97266","1054859.28306","1055625.50766","1056392.03833","1042559.17442","1046459.92885","1047209.22766","1047975.72989","1048742.56911","1049509.46801","1050276.00579","1051042.649","1051808.83804","1055634.6059"
"Blocked","Female","ball","6","F_knife.wav","None","730.669178767","134","1045693.18269","1052576.59024","1053342.91625","1054091.97266","1054859.28306","1055625.50766","1056392.03833","1057159.1892","1046459.92885","1047209.22766","1047975.72989","1048742.56911","1049509.46801","1050276.00579","1051042.649","1051808.83804","1056401.05618"
"Blocked","Female","done","22","F_romp.wav","None","727.69373178","134","1060292.69909","1052576.59024","1053342.91625","1054091.97266","1054859.28306","1055625.50766","1056392.03833","1057159.1892","1046459.92885","1047209.22766","1047975.72989","1048742.56911","1049509.46801","1050276.00579","1051042.649","1051808.83804","1057169.24988"
"Blocked","Female","done","22","F_lash.wav","None","720.126190688","134","1060292.69909","1052576.59024","1053342.91625","1054091.97266","1054859.28306","1055625.50766","1056392.03833","1057159.1892","1061058.66614","1047209.22766","1047975.72989","1048742.56911","1049509.46801","1050276.00579","1051042.649","1051808.83804","1060302.73813"
"Blocked","Female","done","22","F_done.wav","None","722.060973058","134","1060292.69909","1052576.59024","1053342.91625","1054091.97266","1054859.28306","1055625.50766","1056392.03833","1057159.1892","1061058.66614","1061825.47569","1047975.72989","1048742.56911","1049509.46801","1050276.00579","1051042.649","1051808.83804","1061067.7313"
"Blocked","Female","done","22","F_knife.wav","space","576.971140923","134","1060292.69909","1052576.59024","1053342.91625","1054091.97266","1054859.28306","1055625.50766","1056392.03833","1057159.1892","1061058.66614","1061825.47569","1062575.65532","1048742.56911","1049509.46801","1050276.00579","1051042.649","1051808.83804","1061834.61876"
"Blocked","Female","done","22","F_dime.wav","None","734.236066928","134","1060292.69909","1052576.59024","1053342.91625","1054091.97266","1054859.28306","1055625.50766","1056392.03833","1057159.1892","1061058.66614","1061825.47569","1062575.65532","1063342.32821","1049509.46801","1050276.00579","1051042.649","1051808.83804","1062584.65091"
"Blocked","Female","done","22","F_done.wav","None","732.364973403","134","1060292.69909","1052576.59024","1053342.91625","1054091.97266","1054859.28306","1055625.50766","1056392.03833","1057159.1892","1061058.66614","1061825.47569","1062575.65532","1063342.32821","1064108.98873","1050276.00579","1051042.649","1051808.83804","1063351.75293"
"Blocked","Female","done","22","F_cad.wav","space","660.682794522","134","1060292.69909","1052576.59024","1053342.91625","1054091.97266","1054859.28306","1055625.50766","1056392.03833","1057159.1892","1061058.66614","1061825.47569","1062575.65532","1063342.32821","1064108.98873","1064875.64307","1051042.649","1051808.83804","1064118.78322"
"Blocked","Female","done","22","F_jaw.wav","None","727.640554542","134","1060292.69909","1052576.59024","1053342.91625","1054091.97266","1054859.28306","1055625.50766","1056392.03833","1057159.1892","1061058.66614","1061825.47569","1062575.65532","1063342.32821","1064108.98873","1064875.64307","1065642.41428","1051808.83804","1064885.59678"
"Blocked","Female","done","22","F_done.wav","None","726.082340581","134","1060292.69909","1052576.59024","1053342.91625","1054091.97266","1054859.28306","1055625.50766","1056392.03833","1057159.1892","1061058.66614","1061825.47569","1062575.65532","1063342.32821","1064108.98873","1064875.64307","1065642.41428","1066408.31765","1065652.43199"
"Blocked","Female","done","22","F_park.wav","space","489.794006571","134","1060292.69909","1067175.83859","1053342.91625","1054091.97266","1054859.28306","1055625.50766","1056392.03833","1057159.1892","1061058.66614","1061825.47569","1062575.65532","1063342.32821","1064108.98873","1064875.64307","1065642.41428","1066408.31765","1066417.66601"
"Blocked","Female","done","22","F_done.wav","None","722.164235776","134","1060292.69909","1067175.83859","1067942.22365","1054091.97266","1054859.28306","1055625.50766","1056392.03833","1057159.1892","1061058.66614","1061825.47569","1062575.65532","1063342.32821","1064108.98873","1064875.64307","1065642.41428","1066408.31765","1067185.54033"
"Blocked","Female","done","22","F_cave.wav","None","720.738346223","134","1060292.69909","1067175.83859","1067942.22365","1068709.20292","1054859.28306","1055625.50766","1056392.03833","1057159.1892","1061058.66614","1061825.47569","1062575.65532","1063342.32821","1064108.98873","1064875.64307","1065642.41428","1066408.31765","1067952.27196"
"Blocked","Female","done","22","F_dime.wav","None","718.640631298","134","1060292.69909","1067175.83859","1067942.22365","1068709.20292","1069458.89716","1055625.50766","1056392.03833","1057159.1892","1061058.66614","1061825.47569","1062575.65532","1063342.32821","1064108.98873","1064875.64307","1065642.41428","1066408.31765","1068719.5332"
"Blocked","Female","done","22","F_cave.wav","None","734.662411618","134","1060292.69909","1067175.83859","1067942.22365","1068709.20292","1069458.89716","1070225.7707","1056392.03833","1057159.1892","1061058.66614","1061825.47569","1062575.65532","1063342.32821","1064108.98873","1064875.64307","1065642.41428","1066408.31765","1069468.51573"
"Blocked","Female","done","22","F_reek.wav","None","732.56315093","134","1060292.69909","1067175.83859","1067942.22365","1068709.20292","1069458.89716","1070225.7707","1070992.01323","1057159.1892","1061058.66614","1061825.47569","1062575.65532","1063342.32821","1064108.98873","1064875.64307","1065642.41428","1066408.31765","1070235.31352"
"Blocked","Female","done","22","F_romp.wav","None","731.430663145","134","1060292.69909","1067175.83859","1067942.22365","1068709.20292","1069458.89716","1070225.7707","1070992.01323","1071758.81318","1061058.66614","1061825.47569","1062575.65532","1063342.32821","1064108.98873","1064875.64307","1065642.41428","1066408.31765","1071001.6049"
"Blocked","Female","done","23","F_jaw.wav","None","729.248545016","134","1074892.40779","1067175.83859","1067942.22365","1068709.20292","1069458.89716","1070225.7707","1070992.01323","1071758.81318","1061058.66614","1061825.47569","1062575.65532","1063342.32821","1064108.98873","1064875.64307","1065642.41428","1066408.31765","1071768.4939"
"Blocked","Female","done","23","F_done.wav","None","719.832479605","134","1074892.40779","1067175.83859","1067942.22365","1068709.20292","1069458.89716","1070225.7707","1070992.01323","1071758.81318","1075641.8114","1061825.47569","1062575.65532","1063342.32821","1064108.98873","1064875.64307","1065642.41428","1066408.31765","1074902.40726"
"Blocked","Female","done","23","F_knife.wav","space","687.881978811","134","1074892.40779","1067175.83859","1067942.22365","1068709.20292","1069458.89716","1070225.7707","1070992.01323","1071758.81318","1075641.8114","1076408.66515","1062575.65532","1063342.32821","1064108.98873","1064875.64307","1065642.41428","1066408.31765","1075651.27724"
"Blocked","Female","done","23","F_done.wav","None","733.061532141","134","1074892.40779","1067175.83859","1067942.22365","1068709.20292","1069458.89716","1070225.7707","1070992.01323","1071758.81318","1075641.8114","1076408.66515","1077174.88078","1063342.32821","1064108.98873","1064875.64307","1065642.41428","1066408.31765","1076417.986"
"Blocked","Female","done","23","F_jolt.wav","None","732.038490358","134","1074892.40779","1067175.83859","1067942.22365","1068709.20292","1069458.89716","1070225.7707","1070992.01323","1071758.81318","1075641.8114","1076408.66515","1077174.88078","1077941.34901","1064108.98873","1064875.64307","1065642.41428","1066408.31765","1077184.21399"
"Blocked","Female","done","23","F_lash.wav","space","108.580318512","134","1074892.40779","1067175.83859","1067942.22365","1068709.20292","1069458.89716","1070225.7707","1070992.01323","1071758.81318","1075641.8114","1076408.66515","1077174.88078","1077941.34901","1078708.52893","1064875.64307","1065642.41428","1066408.31765","1077950.54154"
"Blocked","Female","done","23","F_jolt.wav","None","728.080193629","134","1074892.40779","1067175.83859","1067942.22365","1068709.20292","1069458.89716","1070225.7707","1070992.01323","1071758.81318","1075641.8114","1076408.66515","1077174.88078","1077941.34901","1078708.52893","1079474.73838","1065642.41428","1066408.31765","1078718.17008"
"Blocked","Female","done","23","F_priest.wav","None","727.687239181","134","1074892.40779","1067175.83859","1067942.22365","1068709.20292","1069458.89716","1070225.7707","1070992.01323","1071758.81318","1075641.8114","1076408.66515","1077174.88078","1077941.34901","1078708.52893","1079474.73838","1080241.78599","1066408.31765","1079483.83322"
"Blocked","Female","done","23","F_reek.wav","None","725.169981364","134","1074892.40779","1067175.83859","1067942.22365","1068709.20292","1069458.89716","1070225.7707","1070992.01323","1071758.81318","1075641.8114","1076408.66515","1077174.88078","1077941.34901","1078708.52893","1079474.73838","1080241.78599","1081008.86791","1080251.56625"
"Blocked","Female","done","23","F_done.wav","None","723.264260683","134","1074892.40779","1081774.95925","1067942.22365","1068709.20292","1069458.89716","1070225.7707","1070992.01323","1071758.81318","1075641.8114","1076408.66515","1077174.88078","1077941.34901","1078708.52893","1079474.73838","1080241.78599","1081008.86791","1081018.64818"
"Blocked","Female","done","23","F_greet.wav","space","587.092421949","134","1074892.40779","1081774.95925","1082541.56072","1068709.20292","1069458.89716","1070225.7707","1070992.01323","1071758.81318","1075641.8114","1076408.66515","1077174.88078","1077941.34901","1078708.52893","1079474.73838","1080241.78599","1081008.86791","1081783.88528"
"Blocked","Female","done","23","F_depth.wav","None","720.215540612","134","1074892.40779","1081774.95925","1082541.56072","1083291.4485","1069458.89716","1070225.7707","1070992.01323","1071758.81318","1075641.8114","1076408.66515","1077174.88078","1077941.34901","1078708.52893","1079474.73838","1080241.78599","1081008.86791","1082551.00152"
"Blocked","Female","done","23","F_cad.wav","None","735.792116844","134","1074892.40779","1081774.95925","1082541.56072","1083291.4485","1084058.08923","1070225.7707","1070992.01323","1071758.81318","1075641.8114","1076408.66515","1077174.88078","1077941.34901","1078708.52893","1079474.73838","1080241.78599","1081008.86791","1083300.77923"
"Blocked","Female","done","23","F_done.wav","None","733.939573402","134","1074892.40779","1081774.95925","1082541.56072","1083291.4485","1084058.08923","1084825.18692","1070992.01323","1071758.81318","1075641.8114","1076408.66515","1077174.88078","1077941.34901","1078708.52893","1079474.73838","1080241.78599","1081008.86791","1084068.05531"
"Blocked","Female","done","23","F_knife.wav","space","640.001830296","134","1074892.40779","1081774.95925","1082541.56072","1083291.4485","1084058.08923","1084825.18692","1085591.27518","1071758.81318","1075641.8114","1076408.66515","1077174.88078","1077941.34901","1078708.52893","1079474.73838","1080241.78599","1081008.86791","1084834.87444"
"Blocked","Female","done","23","F_bluff.wav","None","730.826855171","134","1074892.40779","1081774.95925","1082541.56072","1083291.4485","1084058.08923","1084825.18692","1085591.27518","1086358.78375","1075641.8114","1076408.66515","1077174.88078","1077941.34901","1078708.52893","1079474.73838","1080241.78599","1081008.86791","1085600.93332"
"Blocked","Female","done","21","F_cling.wav","None","728.837967967","134","1089491.92635","1081774.95925","1082541.56072","1083291.4485","1084058.08923","1084825.18692","1085591.27518","1086358.78375","1075641.8114","1076408.66515","1077174.88078","1077941.34901","1078708.52893","1079474.73838","1080241.78599","1081008.86791","1086368.22672"
"Blocked","Female","done","21","F_depth.wav","None","720.213994733","134","1089491.92635","1081774.95925","1082541.56072","1083291.4485","1084058.08923","1084825.18692","1085591.27518","1086358.78375","1090257.78581","1076408.66515","1077174.88078","1077941.34901","1078708.52893","1079474.73838","1080241.78599","1081008.86791","1089501.96972"
"Blocked","Female","done","21","F_gnash.wav","None","720.689497422","134","1089491.92635","1081774.95925","1082541.56072","1083291.4485","1084058.08923","1084825.18692","1085591.27518","1086358.78375","1090257.78581","1091008.18032","1077174.88078","1077941.34901","1078708.52893","1079474.73838","1080241.78599","1081008.86791","1090266.85221"
"Blocked","Female","done","21","F_ball.wav","None","734.521121252","134","1089491.92635","1081774.95925","1082541.56072","1083291.4485","1084058.08923","1084825.18692","1085591.27518","1086358.78375","1090257.78581","1091008.18032","1091774.85753","1077941.34901","1078708.52893","1079474.73838","1080241.78599","1081008.86791","1091018.34859"
"Blocked","Female","done","21","F_bluff.wav","None","733.261873946","134","1089491.92635","1081774.95925","1082541.56072","1083291.4485","1084058.08923","1084825.18692","1085591.27518","1086358.78375","1090257.78581","1091008.18032","1091774.85753","1092541.07657","1078708.52893","1079474.73838","1080241.78599","1081008.86791","1091784.7052"
"Blocked","Female","done","21","F_done.wav","None","732.322308002","134","1089491.92635","1081774.95925","1082541.56072","1083291.4485","1084058.08923","1084825.18692","1085591.27518","1086358.78375","1090257.78581","1091008.18032","1091774.85753","1092541.07657","1093308.10964","1079474.73838","1080241.78599","1081008.86791","1092550.87445"
"Blocked","Female","done","21","F_depth.wav","space","413.403485902","134","1089491.92635","1081774.95925","1082541.56072","1083291.4485","1084058.08923","1084825.18692","1085591.27518","1086358.78375","1090257.78581","1091008.18032","1091774.85753","1092541.07657","1093308.10964","1094074.84838","1080241.78599","1081008.86791","1093317.22797"
"Blocked","Female","done","21","F_done.wav","None","727.976003429","134","1089491.92635","1081774.95925","1082541.56072","1083291.4485","1084058.08923","1084825.18692","1085591.27518","1086358.78375","1090257.78581","1091008.18032","1091774.85753","1092541.07657","1093308.10964","1094074.84838","1094841.29342","1081008.86791","1094084.46294"
"Blocked","Female","done","21","F_priest.wav","space","647.415405023","134","1089491.92635","1081774.95925","1082541.56072","1083291.4485","1084058.08923","1084825.18692","1085591.27518","1086358.78375","1090257.78581","1091008.18032","1091774.85753","1092541.07657","1093308.10964","1094074.84838","1094841.29342","1095608.26373","1094851.16396"
"Blocked","Female","done","21","F_done.wav","None","722.865741234","134","1089491.92635","1096375.34318","1082541.56072","1083291.4485","1084058.08923","1084825.18692","1085591.27518","1086358.78375","1090257.78581","1091008.18032","1091774.85753","1092541.07657","1093308.10964","1094074.84838","1094841.29342","1095608.26373","1095618.97892"
"Blocked","Female","done","21","F_jolt.wav","space","489.331798279","134","1089491.92635","1096375.34318","1097140.92903","1083291.4485","1084058.08923","1084825.18692","1085591.27518","1086358.78375","1090257.78581","1091008.18032","1091774.85753","1092541.07657","1093308.10964","1094074.84838","1094841.29342","1095608.26373","1096385.20352"
"Blocked","Female","done","21","F_park.wav","None","720.552844461","134","1089491.92635","1096375.34318","1097140.92903","1097891.06661","1084058.08923","1084825.18692","1085591.27518","1086358.78375","1090257.78581","1091008.18032","1091774.85753","1092541.07657","1093308.10964","1094074.84838","1094841.29342","1095608.26373","1097150.46722"
"Blocked","Female","done","21","F_cad.wav","None","735.519738635","134","1089491.92635","1096375.34318","1097140.92903","1097891.06661","1098657.96983","1084825.18692","1085591.27518","1086358.78375","1090257.78581","1091008.18032","1091774.85753","1092541.07657","1093308.10964","1094074.84838","1094841.29342","1095608.26373","1097900.61129"
"Blocked","Female","done","21","F_cave.wav","None","733.9340084","134","1089491.92635","1096375.34318","1097140.92903","1097891.06661","1098657.96983","1099424.93458","1085591.27518","1086358.78375","1090257.78581","1091008.18032","1091774.85753","1092541.07657","1093308.10964","1094074.84838","1094841.29342","1095608.26373","1098667.14784"
"Blocked","Female","done","21","F_done.wav","None","731.610290706","134","1089491.92635","1096375.34318","1097140.92903","1097891.06661","1098657.96983","1099424.93458","1100191.04478","1086358.78375","1090257.78581","1091008.18032","1091774.85753","1092541.07657","1093308.10964","1094074.84838","1094841.29342","1095608.26373","1099434.67218"
"Blocked","Female","done","21","F_cling.wav","space","553.634719923","134","1089491.92635","1096375.34318","1097140.92903","1097891.06661","1098657.96983","1099424.93458","1100191.04478","1100957.92853","1090257.78581","1091008.18032","1091774.85753","1092541.07657","1093308.10964","1094074.84838","1094841.29342","1095608.26373","1100200.78269"
"Blocked","Female","tile","13","F_priest.wav","None","728.295993875","134","1104091.28105","1096375.34318","1097140.92903","1097891.06661","1098657.96983","1099424.93458","1100191.04478","1100957.92853","1090257.78581","1091008.18032","1091774.85753","1092541.07657","1093308.10964","1094074.84838","1094841.29342","1095608.26373","1100967.53999"
"Blocked","Female","tile","13","F_cad.wav","None","720.482972101","134","1104091.28105","1096375.34318","1097140.92903","1097891.06661","1098657.96983","1099424.93458","1100191.04478","1100957.92853","1104857.48833","1091008.18032","1091774.85753","1092541.07657","1093308.10964","1094074.84838","1094841.29342","1095608.26373","1104101.48271"
"Blocked","Female","tile","13","F_bluff.wav","None","720.751949702","134","1104091.28105","1096375.34318","1097140.92903","1097891.06661","1098657.96983","1099424.93458","1100191.04478","1100957.92853","1104857.48833","1105607.85222","1091774.85753","1092541.07657","1093308.10964","1094074.84838","1094841.29342","1095608.26373","1104866.68551"
"Blocked","Female","tile","13","F_tile.wav","None","735.391124152","134","1104091.28105","1096375.34318","1097140.92903","1097891.06661","1098657.96983","1099424.93458","1100191.04478","1100957.92853","1104857.48833","1105607.85222","1106374.17421","1092541.07657","1093308.10964","1094074.84838","1094841.29342","1095608.26373","1105617.49089"
"Blocked","Female","tile","13","F_dime.wav","space","394.768296042","134","1104091.28105","1096375.34318","1097140.92903","1097891.06661","1098657.96983","1099424.93458","1100191.04478","1100957.92853","1104857.48833","1105607.85222","1106374.17421","1107140.48104","1093308.10964","1094074.84838","1094841.29342","1095608.26373","1106383.47063"
"Blocked","Female","tile","13","F_done.wav","None","732.712170691","134","1104091.28105","1096375.34318","1097140.92903","1097891.06661","1098657.96983","1099424.93458","1100191.04478","1100957.92853","1104857.48833","1105607.85222","1106374.17421","1107140.48104","1107907.22412","1094074.84838","1094841.29342","1095608.26373","1107150.04706"
"Blocked","Female","tile","13","F_dime.wav","None","732.135260478","134","1104091.28105","1096375.34318","1097140.92903","1097891.06661","1098657.96983","1099424.93458","1100191.04478","1100957.92853","1104857.48833","1105607.85222","1106374.17421","1107140.48104","1107907.22412","1108674.2677","1094841.29342","1095608.26373","1107916.29917"
"Blocked","Female","tile","13","F_bluff.wav","None","729.932737071","134","1104091.28105","1096375.34318","1097140.92903","1097891.06661","1098657.96983","1099424.93458","1100191.04478","1100957.92853","1104857.48833","1105607.85222","1106374.17421","1107140.48104","1107907.22412","1108674.2677","1109440.89607","1095608.26373","1108683.97253"
"Blocked","Female","tile","13","F_tile.wav","None","728.99348021","134","1104091.28105","1096375.34318","1097140.92903","1097891.06661","1098657.96983","1099424.93458","1100191.04478","1100957.92853","1104857.48833","1105607.85222","1106374.17421","1107140.48104","1107907.22412","1108674.2677","1109440.89607","1110207.63142","1109450.63491"
"Blocked","Female","tile","13","F_dime.wav","space","576.322503272","134","1104091.28105","1110974.2029","1097140.92903","1097891.06661","1098657.96983","1099424.93458","1100191.04478","1100957.92853","1104857.48833","1105607.85222","1106374.17421","1107140.48104","1107907.22412","1108674.2677","1109440.89607","1110207.63142","1110217.80649"
"Blocked","Female","tile","13","F_jaw.wav","None","725.414843648","134","1104091.28105","1110974.2029","1111740.36257","1097891.06661","1098657.96983","1099424.93458","1100191.04478","1100957.92853","1104857.48833","1105607.85222","1106374.17421","1107140.48104","1107907.22412","1108674.2677","1109440.89607","1110207.63142","1110984.109"
"Blocked","Female","tile","13","F_tile.wav","None","725.584577653","134","1104091.28105","1110974.2029","1111740.36257","1112507.74099","1098657.96983","1099424.93458","1100191.04478","1100957.92853","1104857.48833","1105607.85222","1106374.17421","1107140.48104","1107907.22412","1108674.2677","1109440.89607","1110207.63142","1111749.37208"
"Blocked","Female","tile","13","F_greet.wav","None","722.933758516","134","1104091.28105","1110974.2029","1111740.36257","1112507.74099","1113274.23332","1099424.93458","1100191.04478","1100957.92853","1104857.48833","1105607.85222","1106374.17421","1107140.48104","1107907.22412","1108674.2677","1109440.89607","1110207.63142","1112517.60225"
"Blocked","Female","tile","13","F_tile.wav","None","722.542659147","134","1104091.28105","1110974.2029","1111740.36257","1112507.74099","1113274.23332","1114040.99835","1100191.04478","1100957.92853","1104857.48833","1105607.85222","1106374.17421","1107140.48104","1107907.22412","1108674.2677","1109440.89607","1110207.63142","1113283.53716"
"Blocked","Female","tile","13","F_gnash.wav","space","414.81515381","134","1104091.28105","1110974.2029","1111740.36257","1112507.74099","1113274.23332","1114040.99835","1114791.01628","1100957.92853","1104857.48833","1105607.85222","1106374.17421","1107140.48104","1107907.22412","1108674.2677","1109440.89607","1110207.63142","1114051.19043"
"Blocked","Female","tile","13","F_dime.wav","None","735.835091444","134","1104091.28105","1110974.2029","1111740.36257","1112507.74099","1113274.23332","1114040.99835","1114791.01628","1115557.12401","1104857.48833","1105607.85222","1106374.17421","1107140.48104","1107907.22412","1108674.2677","1109440.89607","1110207.63142","1114800.21314"
"Blocked","Female","tile","16","F_lash.wav","None","734.40672853","134","1118690.9848","1110974.2029","1111740.36257","1112507.74099","1113274.23332","1114040.99835","1114791.01628","1115557.12401","1104857.48833","1105607.85222","1106374.17421","1107140.48104","1107907.22412","1108674.2677","1109440.89607","1110207.63142","1115567.11946"
"Blocked","Female","tile","16","F_depth.wav","None","721.019999473","134","1118690.9848","1110974.2029","1111740.36257","1112507.74099","1113274.23332","1114040.99835","1114791.01628","1115557.12401","1119457.06378","1105607.85222","1106374.17421","1107140.48104","1107907.22412","1108674.2677","1109440.89607","1110207.63142","1118700.58359"
"Blocked","Female","tile","16","F_tile.wav","None","720.950745512","134","1118690.9848","1110974.2029","1111740.36257","1112507.74099","1113274.23332","1114040.99835","1114791.01628","1115557.12401","1119457.06378","1120207.00195","1106374.17421","1107140.48104","1107907.22412","1108674.2677","1109440.89607","1110207.63142","1119466.25137"
"Blocked","Female","tile","16","F_reek.wav","space","568.676123978","134","1118690.9848","1110974.2029","1111740.36257","1112507.74099","1113274.23332","1114040.99835","1114791.01628","1115557.12401","1119457.06378","1120207.00195","1120973.8288","1107140.48104","1107907.22412","1108674.2677","1109440.89607","1110207.63142","1120217.12323"
"Blocked","Female","tile","16","F_romp.wav","None","733.47952927","134","1118690.9848","1110974.2029","1111740.36257","1112507.74099","1113274.23332","1114040.99835","1114791.01628","1115557.12401","1119457.06378","1120207.00195","1120973.8288","1121740.05433","1107907.22412","1108674.2677","1109440.89607","1110207.63142","1120982.94714"
"Blocked","Female","tile","16","F_jaw.wav","None","732.628694968","134","1118690.9848","1110974.2029","1111740.36257","1112507.74099","1113274.23332","1114040.99835","1114791.01628","1115557.12401","1119457.06378","1120207.00195","1120973.8288","1121740.05433","1122507.28434","1108674.2677","1109440.89607","1110207.63142","1121749.37764"
"Blocked","Female","tile","16","F_tile.wav","None","730.667014606","134","1118690.9848","1110974.2029","1111740.36257","1112507.74099","1113274.23332","1114040.99835","1114791.01628","1115557.12401","1119457.06378","1120207.00195","1120973.8288","1121740.05433","1122507.28434","1123274.04225","1109440.89607","1110207.63142","1122516.98824"
"Blocked","Female","tile","16","F_cave.wav","space","501.42341631","134","1118690.9848","1110974.2029","1111740.36257","1112507.74099","1113274.23332","1114040.99835","1114791.01628","1115557.12401","1119457.06378","1120207.00195","1120973.8288","1121740.05433","1122507.28434","1123274.04225","1124040.46317","1110207.63142","1123284.27515"
"Blocked","Female","tile","16","F_cling.wav","None","659.893794102","134","1118690.9848","1110974.2029","1111740.36257","1112507.74099","1113274.23332","1114040.99835","1114791.01628","1115557.12401","1119457.06378","1120207.00195","1120973.8288","1121740.05433","1122507.28434","1123274.04225","1124040.46317","1124806.68251","1124117.98093"
"Blocked","Female","tile","16","F_tile.wav","None","728.270951193","134","1118690.9848","1125573.78329","1111740.36257","1112507.74099","1113274.23332","1114040.99835","1114791.01628","1115557.12401","1119457.06378","1120207.00195","1120973.8288","1121740.05433","1122507.28434","1123274.04225","1124040.46317","1124806.68251","1124815.31391"
"Blocked","Female","tile","16","F_depth.wav","space","419.098078506","134","1118690.9848","1125573.78329","1126340.25523","1112507.74099","1113274.23332","1114040.99835","1114791.01628","1115557.12401","1119457.06378","1120207.00195","1120973.8288","1121740.05433","1122507.28434","1123274.04225","1124040.46317","1124806.68251","1125582.58751"
"Blocked","Female","tile","16","F_depth.wav","None","724.178165663","134","1118690.9848","1125573.78329","1126340.25523","1127107.71403","1113274.23332","1114040.99835","1114791.01628","1115557.12401","1119457.06378","1120207.00195","1120973.8288","1121740.05433","1122507.28434","1123274.04225","1124040.46317","1124806.68251","1126349.07336"
"Blocked","Female","tile","16","F_depth.wav","None","721.263934276","134","1118690.9848","1125573.78329","1126340.25523","1127107.71403","1127873.37006","1114040.99835","1114791.01628","1115557.12401","1119457.06378","1120207.00195","1120973.8288","1121740.05433","1122507.28434","1123274.04225","1124040.46317","1124806.68251","1127117.54871"
"Blocked","Female","tile","16","F_tile.wav","None","722.119715414","134","1118690.9848","1125573.78329","1126340.25523","1127107.71403","1127873.37006","1128639.97462","1114791.01628","1115557.12401","1119457.06378","1120207.00195","1120973.8288","1121740.05433","1122507.28434","1123274.04225","1124040.46317","1124806.68251","1127882.40399"
"Blocked","Female","tile","16","F_dime.wav","space","536.552179139","134","1118690.9848","1125573.78329","1126340.25523","1127107.71403","1127873.37006","1128639.97462","1129389.65309","1115557.12401","1119457.06378","1120207.00195","1120973.8288","1121740.05433","1122507.28434","1123274.04225","1124040.46317","1124806.68251","1128649.0237"
"Blocked","Female","tile","16","F_greet.wav","None","735.970198526","134","1118690.9848","1125573.78329","1126340.25523","1127107.71403","1127873.37006","1128639.97462","1129389.65309","1130156.43017","1119457.06378","1120207.00195","1120973.8288","1121740.05433","1122507.28434","1123274.04225","1124040.46317","1124806.68251","1129398.65054"
"Blocked","Female","cave","9","F_depth.wav","None","734.606761136","134","1133290.03621","1125573.78329","1126340.25523","1127107.71403","1127873.37006","1128639.97462","1129389.65309","1130156.43017","1119457.06378","1120207.00195","1120973.8288","1121740.05433","1122507.28434","1123274.04225","1124040.46317","1124806.68251","1130165.53552"
"Blocked","Female","cave","9","F_cave.wav","None","721.6040208","134","1133290.03621","1125573.78329","1126340.25523","1127107.71403","1127873.37006","1128639.97462","1129389.65309","1130156.43017","1134057.25448","1120207.00195","1120973.8288","1121740.05433","1122507.28434","1123274.04225","1124040.46317","1124806.68251","1133298.97646"
"Blocked","Female","cave","9","F_tile.wav","space","413.814063068","134","1133290.03621","1125573.78329","1126340.25523","1127107.71403","1127873.37006","1128639.97462","1129389.65309","1130156.43017","1134057.25448","1134806.7561","1120973.8288","1121740.05433","1122507.28434","1123274.04225","1124040.46317","1124806.68251","1134067.60671"
"Blocked","Female","cave","9","F_greet.wav","None","734.171141405","134","1133290.03621","1125573.78329","1126340.25523","1127107.71403","1127873.37006","1128639.97462","1129389.65309","1130156.43017","1134057.25448","1134806.7561","1135573.76536","1121740.05433","1122507.28434","1123274.04225","1124040.46317","1124806.68251","1134815.99191"
"Blocked","Female","cave","9","F_park.wav","None","732.693002094","134","1133290.03621","1125573.78329","1126340.25523","1127107.71403","1127873.37006","1128639.97462","1129389.65309","1130156.43017","1134057.25448","1134806.7561","1135573.76536","1136339.65482","1122507.28434","1123274.04225","1124040.46317","1124806.68251","1135583.0287"
"Blocked","Female","cave","9","F_reek.wav","None","731.878031394","134","1133290.03621","1125573.78329","1126340.25523","1127107.71403","1127873.37006","1128639.97462","1129389.65309","1130156.43017","1134057.25448","1134806.7561","1135573.76536","1136339.65482","1137106.31349","1123274.04225","1124040.46317","1124806.68251","1136349.2298"
"Blocked","Female","cave","9","F_cave.wav","None","731.152101536","134","1133290.03621","1125573.78329","1126340.25523","1127107.71403","1127873.37006","1128639.97462","1129389.65309","1130156.43017","1134057.25448","1134806.7561","1135573.76536","1136339.65482","1137106.31349","1137873.03306","1124040.46317","1124806.68251","1137115.45687"
"Blocked","Female","cave","9","F_gnash.wav","space","454.801278189","134","1133290.03621","1125573.78329","1126340.25523","1127107.71403","1127873.37006","1128639.97462","1129389.65309","1130156.43017","1134057.25448","1134806.7561","1135573.76536","1136339.65482","1137106.31349","1137873.03306","1138639.93103","1124806.68251","1137882.49705"
"Blocked","Female","cave","9","F_romp.wav","None","726.472203154","134","1133290.03621","1125573.78329","1126340.25523","1127107.71403","1127873.37006","1128639.97462","1129389.65309","1130156.43017","1134057.25448","1134806.7561","1135573.76536","1136339.65482","1137106.31349","1137873.03306","1138639.93103","1139406.76222","1138649.67976"
"Blocked","Female","cave","9","F_ball.wav","None","726.093161386","134","1133290.03621","1140173.31917","1126340.25523","1127107.71403","1127873.37006","1128639.97462","1129389.65309","1130156.43017","1134057.25448","1134806.7561","1135573.76536","1136339.65482","1137106.31349","1137873.03306","1138639.93103","1139406.76222","1139415.97763"
"Blocked","Female","cave","9","F_cave.wav","None","724.868541118","134","1133290.03621","1140173.31917","1140939.71103","1127107.71403","1127873.37006","1128639.97462","1129389.65309","1130156.43017","1134057.25448","1134806.7561","1135573.76536","1136339.65482","1137106.31349","1137873.03306","1138639.93103","1139406.76222","1140182.76986"
"Blocked","Female","cave","9","F_cling.wav","space","524.378322065","134","1133290.03621","1140173.31917","1140939.71103","1141706.39412","1127873.37006","1128639.97462","1129389.65309","1130156.43017","1134057.25448","1134806.7561","1135573.76536","1136339.65482","1137106.31349","1137873.03306","1138639.93103","1139406.76222","1140948.8442"
"Blocked","Female","cave","9","F_romp.wav","None","721.616387484","134","1133290.03621","1140173.31917","1140939.71103","1141706.39412","1142473.35825","1128639.97462","1129389.65309","1130156.43017","1134057.25448","1134806.7561","1135573.76536","1136339.65482","1137106.31349","1137873.03306","1138639.93103","1139406.76222","1141715.62066"
"Blocked","Female","cave","9","F_knife.wav","None","719.191571348","134","1133290.03621","1140173.31917","1140939.71103","1141706.39412","1142473.35825","1143223.2791","1129389.65309","1130156.43017","1134057.25448","1134806.7561","1135573.76536","1136339.65482","1137106.31349","1137873.03306","1138639.93103","1139406.76222","1142483.71543"
"Blocked","Female","cave","9","F_cave.wav","None","735.27054803","134","1133290.03621","1140173.31917","1140939.71103","1141706.39412","1142473.35825","1143223.2791","1143989.27058","1130156.43017","1134057.25448","1134806.7561","1135573.76536","1136339.65482","1137106.31349","1137873.03306","1138639.93103","1139406.76222","1143233.13202"
"Blocked","Female","cave","9","F_greet.wav","space","498.814025894","134","1133290.03621","1140173.31917","1140939.71103","1141706.39412","1142473.35825","1143223.2791","1143989.27058","1144756.58036","1134057.25448","1134806.7561","1135573.76536","1136339.65482","1137106.31349","1137873.03306","1138639.93103","1139406.76222","1143998.30266"
"Blocked","Female","tile","17","F_jaw.wav","None","732.436082326","134","1147890.02471","1140173.31917","1140939.71103","1141706.39412","1142473.35825","1143223.2791","1143989.27058","1144756.58036","1134057.25448","1134806.7561","1135573.76536","1136339.65482","1137106.31349","1137873.03306","1138639.93103","1139406.76222","1144765.80072"
"Blocked","Female","tile","17","F_tile.wav","None","719.973151805","134","1147890.02471","1140173.31917","1140939.71103","1141706.39412","1142473.35825","1143223.2791","1143989.27058","1144756.58036","1148656.75016","1134806.7561","1135573.76536","1136339.65482","1137106.31349","1137873.03306","1138639.93103","1139406.76222","1147900.09683"
"Blocked","Female","tile","17","F_park.wav","None","719.521145918","134","1147890.02471","1140173.31917","1140939.71103","1141706.39412","1142473.35825","1143223.2791","1143989.27058","1144756.58036","1148656.75016","1149406.13429","1135573.76536","1136339.65482","1137106.31349","1137873.03306","1138639.93103","1139406.76222","1148666.39068"
"Blocked","Female","tile","17","F_greet.wav","None","736.739102984","134","1147890.02471","1140173.31917","1140939.71103","1141706.39412","1142473.35825","1143223.2791","1143989.27058","1144756.58036","1148656.75016","1149406.13429","1150172.86222","1136339.65482","1137106.31349","1137873.03306","1138639.93103","1139406.76222","1149414.90203"
"Blocked","Female","tile","17","F_tile.wav","space","194.225518149","134","1147890.02471","1140173.31917","1140939.71103","1141706.39412","1142473.35825","1143223.2791","1143989.27058","1144756.58036","1148656.75016","1149406.13429","1150172.86222","1150939.70608","1137106.31349","1137873.03306","1138639.93103","1139406.76222","1150182.72472"
"Blocked","Female","tile","17","F_knife.wav","space","555.789940408","134","1147890.02471","1140173.31917","1140939.71103","1141706.39412","1142473.35825","1143223.2791","1143989.27058","1144756.58036","1148656.75016","1149406.13429","1150172.86222","1150939.70608","1151705.95448","1137873.03306","1138639.93103","1139406.76222","1150949.11194"
"Blocked","Female","tile","17","F_tile.wav","None","730.529434164","134","1147890.02471","1140173.31917","1140939.71103","1141706.39412","1142473.35825","1143223.2791","1143989.27058","1144756.58036","1148656.75016","1149406.13429","1150172.86222","1150939.70608","1151705.95448","1152472.80143","1138639.93103","1139406.76222","1151714.77076"
"Blocked","Female","tile","17","F_reek.wav","space","606.768276193","134","1147890.02471","1140173.31917","1140939.71103","1141706.39412","1142473.35825","1143223.2791","1143989.27058","1144756.58036","1148656.75016","1149406.13429","1150172.86222","1150939.70608","1151705.95448","1152472.80143","1153239.59088","1139406.76222","1152482.0861"
"Blocked","Female","tile","17","F_reek.wav","None","725.9224999","134","1147890.02471","1140173.31917","1140939.71103","1141706.39412","1142473.35825","1143223.2791","1143989.27058","1144756.58036","1148656.75016","1149406.13429","1150172.86222","1150939.70608","1151705.95448","1152472.80143","1153239.59088","1154005.83186","1153249.43144"
"Blocked","Female","tile","17","F_gnash.wav","None","726.575156674","134","1147890.02471","1154772.84113","1140939.71103","1141706.39412","1142473.35825","1143223.2791","1143989.27058","1144756.58036","1148656.75016","1149406.13429","1150172.86222","1150939.70608","1151705.95448","1152472.80143","1153239.59088","1154005.83186","1154014.60331"
"Blocked","Female","tile","17","F_priest.wav","None","725.568810012","134","1147890.02471","1154772.84113","1155539.02553","1141706.39412","1142473.35825","1143223.2791","1143989.27058","1144756.58036","1148656.75016","1149406.13429","1150172.86222","1150939.70608","1151705.95448","1152472.80143","1153239.59088","1154005.83186","1154781.81014"
"Blocked","Female","tile","17","F_greet.wav","None","725.357956369","134","1147890.02471","1154772.84113","1155539.02553","1156305.66998","1142473.35825","1143223.2791","1143989.27058","1144756.58036","1148656.75016","1149406.13429","1150172.86222","1150939.70608","1151705.95448","1152472.80143","1153239.59088","1154005.83186","1155547.82326"
"Blocked","Female","tile","17","F_romp.wav","None","725.843043299","134","1147890.02471","1154772.84113","1155539.02553","1156305.66998","1157073.61665","1143223.2791","1143989.27058","1144756.58036","1148656.75016","1149406.13429","1150172.86222","1150939.70608","1151705.95448","1152472.80143","1153239.59088","1154005.83186","1156314.31931"
"Blocked","Female","tile","17","F_lash.wav","None","722.520089825","134","1147890.02471","1154772.84113","1155539.02553","1156305.66998","1157073.61665","1157839.60195","1143989.27058","1144756.58036","1148656.75016","1149406.13429","1150172.86222","1150939.70608","1151705.95448","1152472.80143","1153239.59088","1154005.83186","1157083.38022"
"Blocked","Female","tile","17","F_tile.wav","None","722.415899741","134","1147890.02471","1154772.84113","1155539.02553","1156305.66998","1157073.61665","1157839.60195","1158605.80583","1144756.58036","1148656.75016","1149406.13429","1150172.86222","1150939.70608","1151705.95448","1152472.80143","1153239.59088","1154005.83186","1157849.34759"
"Blocked","Female","tile","17","F_greet.wav","space","585.985595244","134","1147890.02471","1154772.84113","1155539.02553","1156305.66998","1157073.61665","1157839.60195","1158605.80583","1159372.42338","1148656.75016","1149406.13429","1150172.86222","1150939.70608","1151705.95448","1152472.80143","1153239.59088","1154005.83186","1158614.73681"
"Blocked","Female","cave","7","F_jaw.wav","None","720.437524258","134","1162489.34942","1154772.84113","1155539.02553","1156305.66998","1157073.61665","1157839.60195","1158605.80583","1159372.42338","1148656.75016","1149406.13429","1150172.86222","1150939.70608","1151705.95448","1152472.80143","1153239.59088","1154005.83186","1159381.44186"
"Blocked","Female","cave","7","F_reek.wav","None","721.163145034","134","1162489.34942","1154772.84113","1155539.02553","1156305.66998","1157073.61665","1157839.60195","1158605.80583","1159372.42338","1163256.07734","1149406.13429","1150172.86222","1150939.70608","1151705.95448","1152472.80143","1153239.59088","1154005.83186","1162498.77909"
"Blocked","Female","cave","7","F_ball.wav","None","719.60369416","134","1162489.34942","1154772.84113","1155539.02553","1156305.66998","1157073.61665","1157839.60195","1158605.80583","1159372.42338","1163256.07734","1164006.05416","1150172.86222","1150939.70608","1151705.95448","1152472.80143","1153239.59088","1154005.83186","1163265.75435"
"Blocked","Female","cave","7","F_cave.wav","None","735.786551842","134","1162489.34942","1154772.84113","1155539.02553","1156305.66998","1157073.61665","1157839.60195","1158605.80583","1159372.42338","1163256.07734","1164006.05416","1164772.59565","1150939.70608","1151705.95448","1152472.80143","1153239.59088","1154005.83186","1164015.30327"
"Blocked","Female","cave","7","F_jolt.wav","space","546.073362231","134","1162489.34942","1154772.84113","1155539.02553","1156305.66998","1157073.61665","1157839.60195","1158605.80583","1159372.42338","1163256.07734","1164006.05416","1164772.59565","1165539.12663","1151705.95448","1152472.80143","1153239.59088","1154005.83186","1164782.42353"
"Blocked","Female","cave","7","F_knife.wav","None","732.036944479","134","1162489.34942","1154772.84113","1155539.02553","1156305.66998","1157073.61665","1157839.60195","1158605.80583","1159372.42338","1163256.07734","1164006.05416","1164772.59565","1165539.12663","1166305.92721","1152472.80143","1153239.59088","1154005.83186","1165548.66358"
"Blocked","Female","cave","7","F_priest.wav","None","730.801194208","134","1162489.34942","1154772.84113","1155539.02553","1156305.66998","1157073.61665","1157839.60195","1158605.80583","1159372.42338","1163256.07734","1164006.05416","1164772.59565","1165539.12663","1166305.92721","1167072.63287","1153239.59088","1154005.83186","1166315.31978"
"Blocked","Female","cave","7","F_greet.wav","None","730.325382319","134","1162489.34942","1154772.84113","1155539.02553","1156305.66998","1157073.61665","1157839.60195","1158605.80583","1159372.42338","1163256.07734","1164006.05416","1164772.59565","1165539.12663","1166305.92721","1167072.63287","1167839.16417","1154005.83186","1167081.63063"
"Blocked","Female","cave","7","F_tile.wav","None","727.925608866","134","1162489.34942","1154772.84113","1155539.02553","1156305.66998","1157073.61665","1157839.60195","1158605.80583","1159372.42338","1163256.07734","1164006.05416","1164772.59565","1165539.12663","1166305.92721","1167072.63287","1167839.16417","1168605.83149","1167849.10737"
"Blocked","Female","cave","7","F_cave.wav","None","727.765459102","134","1162489.34942","1169372.44966","1155539.02553","1156305.66998","1157073.61665","1157839.60195","1158605.80583","1159372.42338","1163256.07734","1164006.05416","1164772.59565","1165539.12663","1166305.92721","1167072.63287","1167839.16417","1168605.83149","1168615.09514"
"Blocked","Female","cave","7","F_bluff.wav","space","546.4462206","134","1162489.34942","1169372.44966","1170139.48273","1156305.66998","1157073.61665","1157839.60195","1158605.80583","1159372.42338","1163256.07734","1164006.05416","1164772.59565","1165539.12663","1166305.92721","1167072.63287","1167839.16417","1168605.83149","1169381.91458"
"Blocked","Female","cave","7","F_cave.wav","None","723.186349962","134","1162489.34942","1169372.44966","1170139.48273","1170906.11327","1157073.61665","1157839.60195","1158605.80583","1159372.42338","1163256.07734","1164006.05416","1164772.59565","1165539.12663","1166305.92721","1167072.63287","1167839.16417","1168605.83149","1170149.56197"
"Blocked","Female","cave","7","F_dime.wav","space","475.895293057","134","1162489.34942","1169372.44966","1170139.48273","1170906.11327","1171672.68259","1157839.60195","1158605.80583","1159372.42338","1163256.07734","1164006.05416","1164772.59565","1165539.12663","1166305.92721","1167072.63287","1167839.16417","1168605.83149","1170916.44479"
"Blocked","Female","cave","7","F_cave.wav","None","720.248312573","134","1162489.34942","1169372.44966","1170139.48273","1170906.11327","1171672.68259","1172439.15545","1158605.80583","1159372.42338","1163256.07734","1164006.05416","1164772.59565","1165539.12663","1166305.92721","1167072.63287","1167839.16417","1168605.83149","1171682.38464"
"Blocked","Female","cave","7","F_ball.wav","space","518.871704582","134","1162489.34942","1169372.44966","1170139.48273","1170906.11327","1171672.68259","1172439.15545","1173188.91739","1159372.42338","1163256.07734","1164006.05416","1164772.59565","1165539.12663","1166305.92721","1167072.63287","1167839.16417","1168605.83149","1172449.38494"
"Blocked","Female","cave","7","F_jaw.wav","None","733.52126719","134","1162489.34942","1169372.44966","1170139.48273","1170906.11327","1171672.68259","1172439.15545","1173188.91739","1173955.21773","1163256.07734","1164006.05416","1164772.59565","1165539.12663","1166305.92721","1167072.63287","1167839.16417","1168605.83149","1173198.37457"
"Blocked","Female","ball","5","F_tile.wav","None","733.264038223","134","1177089.25908","1169372.44966","1170139.48273","1170906.11327","1171672.68259","1172439.15545","1173188.91739","1173955.21773","1163256.07734","1164006.05416","1164772.59565","1165539.12663","1166305.92721","1167072.63287","1167839.16417","1168605.83149","1173964.32586"
"Blocked","Female","ball","5","F_greet.wav","None","720.671256422","134","1177089.25908","1169372.44966","1170139.48273","1170906.11327","1171672.68259","1172439.15545","1173188.91739","1173955.21773","1177856.07574","1164006.05416","1164772.59565","1165539.12663","1166305.92721","1167072.63287","1167839.16417","1168605.83149","1177099.06315"
"Blocked","Female","ball","5","F_dime.wav","None","720.060028369","134","1177089.25908","1169372.44966","1170139.48273","1170906.11327","1171672.68259","1172439.15545","1173188.91739","1173955.21773","1177856.07574","1178622.39463","1164772.59565","1165539.12663","1166305.92721","1167072.63287","1167839.16417","1168605.83149","1177865.80221"
"Blocked","Female","ball","5","F_ball.wav","None","719.21073983","134","1177089.25908","1169372.44966","1170139.48273","1170906.11327","1171672.68259","1172439.15545","1173188.91739","1173955.21773","1177856.07574","1178622.39463","1179389.17913","1165539.12663","1166305.92721","1167072.63287","1167839.16417","1168605.83149","1178632.36163"
"Blocked","Female","ball","5","F_priest.wav","space","448.771546013","134","1177089.25908","1169372.44966","1170139.48273","1170906.11327","1171672.68259","1172439.15545","1173188.91739","1173955.21773","1177856.07574","1178622.39463","1179389.17913","1180138.37282","1166305.92721","1167072.63287","1167839.16417","1168605.83149","1179399.24538"
