"Condition","Talker","Target","Trial","current_stimulus","response_response","response_time_response","subject_nr","time_Audio1","time_Audio10","time_Audio11","time_Audio12","time_Audio13","time_Audio14","time_Audio15","time_Audio16","time_Audio2","time_Audio3","time_Audio4","time_Audio5","time_Audio6","time_Audio7","time_Audio8","time_Audio9","time_response"
"Mixed","Male","tile","25","M_greet.wav","NA","NA","223","97696.9718705","NA","NA","NA","NA","NA","NA","NA","NA","NA","NA","NA","NA","NA","NA","NA","NA"
"Mixed","Male","tile","25","M_tile.wav","None","716.921958214","223","97696.9718705","NA","NA","NA","NA","NA","NA","NA","98463.798419","NA","NA","NA","NA","NA","NA","NA","97715.3689999"
"Mixed","Male","tile","25","F_depth.wav","space","566.27696885","223","97696.9718705","NA","NA","NA","NA","NA","NA","NA","98463.798419","99230.0381639","NA","NA","NA","NA","NA","NA","98475.5038844"
"Mixed","Male","tile","25","M_depth.wav","None","727.847079834","223","97696.9718705","NA","NA","NA","NA","NA","NA","NA","98463.798419","99230.0381639","99996.8807892","NA","NA","NA","NA","NA","99241.3296513"
"Mixed","Male","tile","25","F_depth.wav","space","347.437850753","223","97696.9718705","NA","NA","NA","NA","NA","NA","NA","98463.798419","99230.0381639","99996.8807892","100762.69017","NA","NA","NA","NA","100006.321279"
"Mixed","Male","tile","25","M_tile.wav","None","734.624383826","223","97696.9718705","NA","NA","NA","NA","NA","NA","NA","98463.798419","99230.0381639","99996.8807892","100762.69017","101547.138451","NA","NA","NA","100773.508319"
"Mixed","Male","tile","25","M_done.wav","space","636.552117314","223","97696.9718705","NA","NA","NA","NA","NA","NA","NA","98463.798419","99230.0381639","99996.8807892","100762.69017","101547.138451","102313.648719","NA","NA","101557.161107"
"Mixed","Male","tile","25","M_tile.wav","None","718.930941424","223","97696.9718705","NA","NA","NA","NA","NA","NA","NA","98463.798419","99230.0381639","99996.8807892","100762.69017","101547.138451","102313.648719","103080.387154","NA","102325.222478"
"Mixed","Male","tile","25","F_cad.wav","space","559.077957703","223","97696.9718705","NA","NA","NA","NA","NA","NA","NA","98463.798419","99230.0381639","99996.8807892","100762.69017","101547.138451","102313.648719","103080.387154","103846.387911","103090.605515"
"Mixed","Male","tile","25","M_done.wav","None","723.480679371","223","97696.9718705","104613.677905","NA","NA","NA","NA","NA","NA","98463.798419","99230.0381639","99996.8807892","100762.69017","101547.138451","102313.648719","103080.387154","103846.387911","103857.266039"
"Mixed","Male","tile","25","F_reek.wav","None","725.22099434","223","97696.9718705","104613.677905","105380.264538","NA","NA","NA","NA","NA","98463.798419","99230.0381639","99996.8807892","100762.69017","101547.138451","102313.648719","103080.387154","103846.387911","104623.576893"
"Mixed","Male","tile","25","F_jaw.wav","None","727.134135028","223","97696.9718705","104613.677905","105380.264538","106146.595488","NA","NA","NA","NA","98463.798419","99230.0381639","99996.8807892","100762.69017","101547.138451","102313.648719","103080.387154","103846.387911","105389.650614"
"Mixed","Male","tile","25","F_romp.wav","None","729.498353976","223","97696.9718705","104613.677905","105380.264538","106146.595488","106914.120141","NA","NA","NA","98463.798419","99230.0381639","99996.8807892","100762.69017","101547.138451","102313.648719","103080.387154","103846.387911","106155.465251"
"Mixed","Male","tile","25","M_tile.wav","None","729.230922399","223","97696.9718705","104613.677905","105380.264538","106146.595488","106914.120141","107680.300525","NA","NA","98463.798419","99230.0381639","99996.8807892","100762.69017","101547.138451","102313.648719","103080.387154","103846.387911","106923.737785"
"Mixed","Male","tile","25","F_lash.wav","space","551.845247086","223","97696.9718705","104613.677905","105380.264538","106146.595488","106914.120141","107680.300525","108446.995677","NA","98463.798419","99230.0381639","99996.8807892","100762.69017","101547.138451","102313.648719","103080.387154","103846.387911","107689.696495"
"Mixed","Male","tile","25","F_park.wav","None","732.944975258","223","97696.9718705","104613.677905","105380.264538","106146.595488","106914.120141","107680.300525","108446.995677","109213.509346","98463.798419","99230.0381639","99996.8807892","100762.69017","101547.138451","102313.648719","103080.387154","103846.387911","108456.041666"
"Mixed","Male","tile","26","F_romp.wav","None","734.513082818","223","112530.213277","104613.677905","105380.264538","106146.595488","106914.120141","107680.300525","108446.995677","109213.509346","98463.798419","99230.0381639","99996.8807892","100762.69017","101547.138451","102313.648719","103080.387154","103846.387911","109222.662617"
"Mixed","Male","tile","26","M_tile.wav","None","725.00117484","223","112530.213277","104613.677905","105380.264538","106146.595488","106914.120141","107680.300525","108446.995677","109213.509346","113296.376657","99230.0381639","99996.8807892","100762.69017","101547.138451","102313.648719","103080.387154","103846.387911","112539.814226"
"Mixed","Male","tile","26","F_romp.wav","space","440.171378825","223","112530.213277","104613.677905","105380.264538","106146.595488","106914.120141","107680.300525","108446.995677","109213.509346","113296.376657","114062.953397","99996.8807892","100762.69017","101547.138451","102313.648719","103080.387154","103846.387911","113305.179021"
"Mixed","Male","tile","26","M_depth.wav","None","729.543492722","223","112530.213277","104613.677905","105380.264538","106146.595488","106914.120141","107680.300525","108446.995677","109213.509346","113296.376657","114062.953397","114830.41838","100762.69017","101547.138451","102313.648719","103080.387154","103846.387911","114071.751124"
"Mixed","Male","tile","26","M_tile.wav","None","730.12689552","223","112530.213277","104613.677905","105380.264538","106146.595488","106914.120141","107680.300525","108446.995677","109213.509346","113296.376657","114062.953397","114830.41838","115596.809309","101547.138451","102313.648719","103080.387154","103846.387911","114839.517856"
"Mixed","Male","tile","26","F_done.wav","space","570.936771139","223","112530.213277","104613.677905","105380.264538","106146.595488","106914.120141","107680.300525","108446.995677","109213.509346","113296.376657","114062.953397","114830.41838","115596.809309","116362.936516","102313.648719","103080.387154","103846.387911","115606.342859"
"Mixed","Male","tile","26","M_greet.wav","None","733.978837961","223","112530.213277","104613.677905","105380.264538","106146.595488","106914.120141","107680.300525","108446.995677","109213.509346","113296.376657","114062.953397","114830.41838","115596.809309","116362.936516","117129.852415","103080.387154","103846.387911","116371.895629"
"Mixed","Male","tile","26","F_cad.wav","None","734.590375185","223","112530.213277","104613.677905","105380.264538","106146.595488","106914.120141","107680.300525","108446.995677","109213.509346","113296.376657","114062.953397","114830.41838","115596.809309","116362.936516","117129.852415","117913.946697","103846.387911","117139.259205"
"Mixed","Male","tile","26","M_park.wav","None","718.064030239","223","112530.213277","104613.677905","105380.264538","106146.595488","106914.120141","107680.300525","108446.995677","109213.509346","113296.376657","114062.953397","114830.41838","115596.809309","116362.936516","117129.852415","117913.946697","118680.130482","117923.9035"
"Mixed","Male","tile","26","F_depth.wav","None","719.86772494","223","112530.213277","119446.195546","105380.264538","106146.595488","106914.120141","107680.300525","108446.995677","109213.509346","113296.376657","114062.953397","114830.41838","115596.809309","116362.936516","117129.852415","117913.946697","118680.130482","118690.362446"
"Mixed","Male","tile","26","M_tile.wav","None","723.208301089","223","112530.213277","119446.195546","120213.557576","106146.595488","106914.120141","107680.300525","108446.995677","109213.509346","113296.376657","114062.953397","114830.41838","115596.809309","116362.936516","117129.852415","117913.946697","118680.130482","119455.234734"
"Mixed","Male","tile","26","M_cave.wav","space","409.793623185","223","112530.213277","119446.195546","120213.557576","120979.881106","106914.120141","107680.300525","108446.995677","109213.509346","113296.376657","114062.953397","114830.41838","115596.809309","116362.936516","117129.852415","117913.946697","118680.130482","120223.373088"
"Mixed","Male","tile","26","F_bluff.wav","None","725.063008736","223","112530.213277","119446.195546","120213.557576","120979.881106","121746.555852","107680.300525","108446.995677","109213.509346","113296.376657","114062.953397","114830.41838","115596.809309","116362.936516","117129.852415","117913.946697","118680.130482","120989.243994"
"Mixed","Male","tile","26","M_tile.wav","None","726.020506598","223","112530.213277","119446.195546","120213.557576","120979.881106","121746.555852","122513.27079","108446.995677","109213.509346","113296.376657","114062.953397","114830.41838","115596.809309","116362.936516","117129.852415","117913.946697","118680.130482","121756.238112"
"Mixed","Male","tile","26","F_jolt.wav","space","486.460850487","223","112530.213277","119446.195546","120213.557576","120979.881106","121746.555852","122513.27079","123279.717679","109213.509346","113296.376657","114062.953397","114830.41838","115596.809309","116362.936516","117129.852415","117913.946697","118680.130482","122522.633988"
"Mixed","Male","tile","26","F_priest.wav","None","729.141572403","223","112530.213277","119446.195546","120213.557576","120979.881106","121746.555852","122513.27079","123279.717679","124046.496615","113296.376657","114062.953397","114830.41838","115596.809309","116362.936516","117129.852415","117913.946697","118680.130482","123289.141783"
"Mixed","Female","done","45","F_dime.wav","None","730.3600093","223","127179.719596","119446.195546","120213.557576","120979.881106","121746.555852","122513.27079","123279.717679","124046.496615","113296.376657","114062.953397","114830.41838","115596.809309","116362.936516","117129.852415","117913.946697","118680.130482","124055.923192"
"Mixed","Female","done","45","M_bluff.wav","space","571.867680424","223","127179.719596","119446.195546","120213.557576","120979.881106","121746.555852","122513.27079","123279.717679","124046.496615","127946.413201","114062.953397","114830.41838","115596.809309","116362.936516","117129.852415","117913.946697","118680.130482","127189.08774"
"Mixed","Female","done","45","F_dime.wav","None","726.184366416","223","127179.719596","119446.195546","120213.557576","120979.881106","121746.555852","122513.27079","123279.717679","124046.496615","127946.413201","128713.029824","114830.41838","115596.809309","116362.936516","117129.852415","117913.946697","118680.130482","127956.009822"
"Mixed","Female","done","45","F_done.wav","None","727.944777391","223","127179.719596","119446.195546","120213.557576","120979.881106","121746.555852","122513.27079","123279.717679","124046.496615","127946.413201","128713.029824","129479.120858","115596.809309","116362.936516","117129.852415","117913.946697","118680.130482","128722.398586"
"Mixed","Female","done","45","M_jaw.wav","space","720.906534363","223","127179.719596","119446.195546","120213.557576","120979.881106","121746.555852","122513.27079","123279.717679","124046.496615","127946.413201","128713.029824","129479.120858","130246.316246","116362.936516","117129.852415","117913.946697","118680.130482","129487.974853"
"Mixed","Female","done","45","M_lash.wav","None","730.484604603","223","127179.719596","119446.195546","120213.557576","120979.881106","121746.555852","122513.27079","123279.717679","124046.496615","127946.413201","128713.029824","129479.120858","130246.316246","131012.925139","117129.852415","117913.946697","118680.130482","130255.966662"
"Mixed","Female","done","45","F_done.wav","None","732.413512931","223","127179.719596","119446.195546","120213.557576","120979.881106","121746.555852","122513.27079","123279.717679","124046.496615","127946.413201","128713.029824","129479.120858","130246.316246","131012.925139","131779.925132","117913.946697","118680.130482","131022.136843"
"Mixed","Female","done","45","M_cave.wav","space","723.495210346","223","127179.719596","119446.195546","120213.557576","120979.881106","121746.555852","122513.27079","123279.717679","124046.496615","127946.413201","128713.029824","129479.120858","130246.316246","131012.925139","131779.925132","132562.605272","118680.130482","131789.312753"
"Mixed","Female","done","45","F_cad.wav","None","720.803271746","223","127179.719596","119446.195546","120213.557576","120979.881106","121746.555852","122513.27079","123279.717679","124046.496615","127946.413201","128713.029824","129479.120858","130246.316246","131012.925139","131779.925132","132562.605272","133329.471394","132571.373937"
"Mixed","Female","done","45","F_done.wav","None","722.386219451","223","127179.719596","134096.478807","120213.557576","120979.881106","121746.555852","122513.27079","123279.717679","124046.496615","127946.413201","128713.029824","129479.120858","130246.316246","131012.925139","131779.925132","132562.605272","133329.471394","133338.709069"
"Mixed","Female","done","45","M_dime.wav","space","462.713543355","223","127179.719596","134096.478807","134862.309521","120979.881106","121746.555852","122513.27079","123279.717679","124046.496615","127946.413201","128713.029824","129479.120858","130246.316246","131012.925139","131779.925132","132562.605272","133329.471394","134106.004318"
"Mixed","Female","done","45","M_gnash.wav","None","726.327511889","223","127179.719596","134096.478807","134862.309521","135628.909448","121746.555852","122513.27079","123279.717679","124046.496615","127946.413201","128713.029824","129479.120858","130246.316246","131012.925139","131779.925132","132562.605272","133329.471394","134871.050978"
"Mixed","Female","done","45","M_greet.wav","None","727.754328982","223","127179.719596","134096.478807","134862.309521","135628.909448","136396.823036","122513.27079","123279.717679","124046.496615","127946.413201","128713.029824","129479.120858","130246.316246","131012.925139","131779.925132","132562.605272","133329.471394","135637.741492"
"Mixed","Female","done","45","F_done.wav","None","727.421662639","223","127179.719596","134096.478807","134862.309521","135628.909448","136396.823036","137162.751138","123279.717679","124046.496615","127946.413201","128713.029824","129479.120858","130246.316246","131012.925139","131779.925132","132562.605272","133329.471394","136406.28084"
"Mixed","Female","done","45","F_bluff.wav","space","524.373684486","223","127179.719596","134096.478807","134862.309521","135628.909448","136396.823036","137162.751138","137929.295106","124046.496615","127946.413201","128713.029824","129479.120858","130246.316246","131012.925139","131779.925132","132562.605272","133329.471394","137172.244496"
"Mixed","Female","done","45","M_jolt.wav","None","730.771823029","223","127179.719596","134096.478807","134862.309521","135628.909448","136396.823036","137162.751138","137929.295106","138696.184107","127946.413201","128713.029824","129479.120858","130246.316246","131012.925139","131779.925132","132562.605272","133329.471394","137938.736832"
"Mixed","Female","tile","36","F_done.wav","None","732.055185523","223","141829.213238","134096.478807","134862.309521","135628.909448","136396.823036","137162.751138","137929.295106","138696.184107","127946.413201","128713.029824","129479.120858","130246.316246","131012.925139","131779.925132","132562.605272","133329.471394","138705.696324"
"Mixed","Female","tile","36","M_park.wav","None","725.358574753","223","141829.213238","134096.478807","134862.309521","135628.909448","136396.823036","137162.751138","137929.295106","138696.184107","142595.580979","128713.029824","129479.120858","130246.316246","131012.925139","131779.925132","132562.605272","133329.471394","141838.718344"
"Mixed","Female","tile","36","F_tile.wav","None","727.430010214","223","141829.213238","134096.478807","134862.309521","135628.909448","136396.823036","137162.751138","137929.295106","138696.184107","142595.580979","143362.544489","129479.120858","130246.316246","131012.925139","131779.925132","132562.605272","133329.471394","142604.673035"
"Mixed","Female","tile","36","M_ball.wav","space","556.770935102","223","141829.213238","134096.478807","134862.309521","135628.909448","136396.823036","137162.751138","137929.295106","138696.184107","142595.580979","143362.544489","144128.680972","130246.316246","131012.925139","131779.925132","132562.605272","133329.471394","143371.690032"
"Mixed","Female","tile","36","F_tile.wav","None","730.945576288","223","141829.213238","134096.478807","134862.309521","135628.909448","136396.823036","137162.751138","137929.295106","138696.184107","142595.580979","143362.544489","144128.680972","144895.948087","131012.925139","131779.925132","132562.605272","133329.471394","144137.578251"
"Mixed","Female","tile","36","F_lash.wav","space","679.065393051","223","141829.213238","134096.478807","134862.309521","135628.909448","136396.823036","137162.751138","137929.295106","138696.184107","142595.580979","143362.544489","144128.680972","144895.948087","145662.569038","131779.925132","132562.605272","133329.471394","144905.330762"
"Mixed","Female","tile","36","M_reek.wav","None","732.452468277","223","141829.213238","134096.478807","134862.309521","135628.909448","136396.823036","137162.751138","137929.295106","138696.184107","142595.580979","143362.544489","144128.680972","144895.948087","145662.569038","146428.840627","132562.605272","133329.471394","145671.907501"
"Mixed","Female","tile","36","M_dime.wav","None","734.562549929","223","141829.213238","134096.478807","134862.309521","135628.909448","136396.823036","137162.751138","137929.295106","138696.184107","142595.580979","143362.544489","144128.680972","144895.948087","145662.569038","146428.840627","147195.98562","133329.471394","146437.906712"
"Mixed","Female","tile","36","M_romp.wav","None","735.059385275","223","141829.213238","134096.478807","134862.309521","135628.909448","136396.823036","137162.751138","137929.295106","138696.184107","142595.580979","143362.544489","144128.680972","144895.948087","145662.569038","146428.840627","147195.98562","147979.40313","147205.5303"
"Mixed","Female","tile","36","F_lash.wav","None","719.347392704","223","141829.213238","148746.24019","134862.309521","135628.909448","136396.823036","137162.751138","137929.295106","138696.184107","142595.580979","143362.544489","144128.680972","144895.948087","145662.569038","146428.840627","147195.98562","147979.40313","147989.677759"
"Mixed","Female","tile","36","F_tile.wav","None","721.276610217","223","141829.213238","148746.24019","149512.588763","135628.909448","136396.823036","137162.751138","137929.295106","138696.184107","142595.580979","143362.544489","144128.680972","144895.948087","145662.569038","146428.840627","147195.98562","147979.40313","148755.944401"
"Mixed","Female","tile","36","M_jaw.wav","space","533.750176226","223","141829.213238","148746.24019","149512.588763","150278.480383","136396.823036","137162.751138","137929.295106","138696.184107","142595.580979","143362.544489","144128.680972","144895.948087","145662.569038","146428.840627","147195.98562","147979.40313","149522.49177"
"Mixed","Female","tile","36","F_tile.wav","None","726.196114862","223","141829.213238","148746.24019","149512.588763","150278.480383","151045.227165","137162.751138","137929.295106","138696.184107","142595.580979","143362.544489","144128.680972","144895.948087","145662.569038","146428.840627","147195.98562","147979.40313","150287.369005"
"Mixed","Female","tile","36","M_jaw.wav","space","649.965434844","223","141829.213238","148746.24019","149512.588763","150278.480383","151045.227165","151812.258075","137929.295106","138696.184107","142595.580979","143362.544489","144128.680972","144895.948087","145662.569038","146428.840627","147195.98562","147979.40313","151054.264189"
"Mixed","Female","tile","36","F_park.wav","None","729.080356861","223","141829.213238","148746.24019","149512.588763","150278.480383","151045.227165","151812.258075","152578.945806","138696.184107","142595.580979","143362.544489","144128.680972","144895.948087","145662.569038","146428.840627","147195.98562","147979.40313","151821.26851"
"Mixed","Female","tile","36","M_dime.wav","None","730.55447689","223","141829.213238","148746.24019","149512.588763","150278.480383","151045.227165","151812.258075","152578.945806","153345.155871","142595.580979","143362.544489","144128.680972","144895.948087","145662.569038","146428.840627","147195.98562","147979.40313","152588.319206"
"Mixed","Female","cave","19","M_dime.wav","None","733.230029509","223","156478.796848","148746.24019","149512.588763","150278.480383","151045.227165","151812.258075","152578.945806","153345.155871","142595.580979","143362.544489","144128.680972","144895.948087","145662.569038","146428.840627","147195.98562","147979.40313","153353.985751"
"Mixed","Female","cave","19","F_lash.wav","None","725.267678921","223","156478.796848","148746.24019","149512.588763","150278.480383","151045.227165","151812.258075","152578.945806","153345.155871","157245.046796","143362.544489","144128.680972","144895.948087","145662.569038","146428.840627","147195.98562","147979.40313","156488.204257"
"Mixed","Female","cave","19","M_bluff.wav","None","727.962090881","223","156478.796848","148746.24019","149512.588763","150278.480383","151045.227165","151812.258075","152578.945806","153345.155871","157245.046796","158011.66651","144128.680972","144895.948087","145662.569038","146428.840627","147195.98562","147979.40313","157253.894299"
"Mixed","Female","cave","19","F_cave.wav","None","729.2581293","223","156478.796848","148746.24019","149512.588763","150278.480383","151045.227165","151812.258075","152578.945806","153345.155871","157245.046796","158011.66651","158778.254689","144895.948087","145662.569038","146428.840627","147195.98562","147979.40313","158020.898001"
"Mixed","Female","cave","19","M_depth.wav","space","444.949593017","223","156478.796848","148746.24019","149512.588763","150278.480383","151045.227165","151812.258075","152578.945806","153345.155871","157245.046796","158011.66651","158778.254689","159544.952005","145662.569038","146428.840627","147195.98562","147979.40313","158787.063545"
"Mixed","Female","cave","19","M_depth.wav","None","732.265111583","223","156478.796848","148746.24019","149512.588763","150278.480383","151045.227165","151812.258075","152578.945806","153345.155871","157245.046796","158011.66651","158778.254689","159544.952005","160328.86635","146428.840627","147195.98562","147979.40313","159553.915755"
"Mixed","Female","cave","19","F_dime.wav","None","725.711337116","223","156478.796848","148746.24019","149512.588763","150278.480383","151045.227165","151812.258075","152578.945806","153345.155871","157245.046796","158011.66651","158778.254689","159544.952005","160328.86635","161095.759988","147195.98562","147979.40313","160333.479467"
"Mixed","Female","cave","19","F_cave.wav","None","723.009195935","223","156478.796848","148746.24019","149512.588763","150278.480383","151045.227165","151812.258075","152578.945806","153345.155871","157245.046796","158011.66651","158778.254689","159544.952005","160328.86635","161095.759988","161861.978709","147979.40313","161105.043111"
"Mixed","Female","cave","19","F_romp.wav","space","568.457231973","223","156478.796848","148746.24019","149512.588763","150278.480383","151045.227165","151812.258075","152578.945806","153345.155871","157245.046796","158011.66651","158778.254689","159544.952005","160328.86635","161095.759988","161861.978709","162628.698285","161871.451353"
"Mixed","Female","cave","19","M_park.wav","None","726.059152774","223","156478.796848","163395.324801","149512.588763","150278.480383","151045.227165","151812.258075","152578.945806","153345.155871","157245.046796","158011.66651","158778.254689","159544.952005","160328.86635","161095.759988","161861.978709","162628.698285","162638.08869"
"Mixed","Female","cave","19","F_cave.wav","None","728.027943973","223","156478.796848","163395.324801","164161.211165","150278.480383","151045.227165","151812.258075","152578.945806","153345.155871","157245.046796","158011.66651","158778.254689","159544.952005","160328.86635","161095.759988","161861.978709","162628.698285","163404.399543"
"Mixed","Female","cave","19","F_done.wav","space","501.856562667","223","156478.796848","163395.324801","164161.211165","164928.434687","151045.227165","151812.258075","152578.945806","153345.155871","157245.046796","158011.66651","158778.254689","159544.952005","160328.86635","161095.759988","161861.978709","162628.698285","164169.967154"
"Mixed","Female","cave","19","M_gnash.wav","None","732.705678092","223","156478.796848","163395.324801","164161.211165","164928.434687","165694.69762","151812.258075","152578.945806","153345.155871","157245.046796","158011.66651","158778.254689","159544.952005","160328.86635","161095.759988","161861.978709","162628.698285","164937.945668"
"Mixed","Female","cave","19","M_gnash.wav","None","735.294354075","223","156478.796848","163395.324801","164161.211165","164928.434687","165694.69762","166461.509637","152578.945806","153345.155871","157245.046796","158011.66651","158778.254689","159544.952005","160328.86635","161095.759988","161861.978709","162628.698285","165703.609739"
"Mixed","Female","cave","19","F_cave.wav","None","736.512172618","223","156478.796848","163395.324801","164161.211165","164928.434687","165694.69762","166461.509637","167244.953118","153345.155871","157245.046796","158011.66651","158778.254689","159544.952005","160328.86635","161095.759988","161861.978709","162628.698285","166470.561501"
"Mixed","Female","cave","19","M_park.wav","space","625.922561696","223","156478.796848","163395.324801","164161.211165","164928.434687","165694.69762","166461.509637","167244.953118","168012.133356","157245.046796","158011.66651","158778.254689","159544.952005","160328.86635","161095.759988","161861.978709","162628.698285","167253.795983"
"Mixed","Female","tile","34","M_done.wav","None","721.319893943","223","171146.018577","163395.324801","164161.211165","164928.434687","165694.69762","166461.509637","167244.953118","168012.133356","157245.046796","158011.66651","158778.254689","159544.952005","160328.86635","161095.759988","161861.978709","162628.698285","168022.241343"
"Mixed","Female","tile","34","F_cling.wav","None","722.927575203","223","171146.018577","163395.324801","164161.211165","164928.434687","165694.69762","166461.509637","167244.953118","168012.133356","171911.742318","158011.66651","158778.254689","159544.952005","160328.86635","161095.759988","161861.978709","162628.698285","171155.852331"
"Mixed","Female","tile","34","F_tile.wav","None","725.680111005","223","171146.018577","163395.324801","164161.211165","164928.434687","165694.69762","166461.509637","167244.953118","168012.133356","171911.742318","172677.914355","158778.254689","159544.952005","160328.86635","161095.759988","161861.978709","162628.698285","171921.328427"
"Mixed","Female","tile","34","M_jaw.wav","space","608.597941173","223","171146.018577","163395.324801","164161.211165","164928.434687","165694.69762","166461.509637","167244.953118","168012.133356","171911.742318","172677.914355","173445.03276","159544.952005","160328.86635","161095.759988","161861.978709","162628.698285","172686.998373"
"Mixed","Female","tile","34","F_tile.wav","None","728.658649692","223","171146.018577","163395.324801","164161.211165","164928.434687","165694.69762","166461.509637","167244.953118","168012.133356","171911.742318","172677.914355","173445.03276","174211.653401","160328.86635","161095.759988","161861.978709","162628.698285","173454.563218"
"Mixed","Female","tile","34","F_bluff.wav","space","658.446880974","223","171146.018577","163395.324801","164161.211165","164928.434687","165694.69762","166461.509637","167244.953118","168012.133356","171911.742318","172677.914355","173445.03276","174211.653401","174978.280226","161095.759988","161861.978709","162628.698285","174221.092654"
"Mixed","Female","tile","34","M_jolt.wav","None","731.754363616","223","171146.018577","163395.324801","164161.211165","164928.434687","165694.69762","166461.509637","167244.953118","168012.133356","171911.742318","172677.914355","173445.03276","174211.653401","174978.280226","175744.644876","161861.978709","162628.698285","174987.639405"
"Mixed","Female","tile","34","M_cad.wav","None","733.468089995","223","171146.018577","163395.324801","164161.211165","164928.434687","165694.69762","166461.509637","167244.953118","168012.133356","171911.742318","172677.914355","173445.03276","174211.653401","174978.280226","175744.644876","176510.894823","162628.698285","175754.243042"
"Mixed","Female","tile","34","F_cling.wav","None","735.923204775","223","171146.018577","163395.324801","164161.211165","164928.434687","165694.69762","166461.509637","167244.953118","168012.133356","171911.742318","172677.914355","173445.03276","174211.653401","174978.280226","175744.644876","176510.894823","177295.41885","176520.020887"
"Mixed","Female","tile","34","M_dime.wav","None","719.441071065","223","171146.018577","178061.1395","164161.211165","164928.434687","165694.69762","166461.509637","167244.953118","168012.133356","171911.742318","172677.914355","173445.03276","174211.653401","174978.280226","175744.644876","176510.894823","177295.41885","177305.336698"
"Mixed","Female","tile","34","M_cad.wav","None","723.289303467","223","171146.018577","178061.1395","178828.845635","164928.434687","165694.69762","166461.509637","167244.953118","168012.133356","171911.742318","172677.914355","173445.03276","174211.653401","174978.280226","175744.644876","176510.894823","177295.41885","178070.024412"
"Mixed","Female","tile","34","M_depth.wav","None","723.588579523","223","171146.018577","178061.1395","178828.845635","179594.857213","165694.69762","166461.509637","167244.953118","168012.133356","171911.742318","172677.914355","173445.03276","174211.653401","174978.280226","175744.644876","176510.894823","177295.41885","178838.353524"
"Mixed","Female","tile","34","F_tile.wav","None","726.623077891","223","171146.018577","178061.1395","178828.845635","179594.857213","180361.473836","166461.509637","167244.953118","168012.133356","171911.742318","172677.914355","173445.03276","174211.653401","174978.280226","175744.644876","176510.894823","177295.41885","179603.970293"
"Mixed","Female","tile","34","F_cling.wav","space","571.855931979","223","171146.018577","178061.1395","178828.845635","179594.857213","180361.473836","181127.992451","167244.953118","168012.133356","171911.742318","172677.914355","173445.03276","174211.653401","174978.280226","175744.644876","176510.894823","177295.41885","180371.493709"
"Mixed","Female","tile","34","F_tile.wav","None","729.869357354","223","171146.018577","178061.1395","178828.845635","179594.857213","180361.473836","181127.992451","181894.738616","168012.133356","171911.742318","172677.914355","173445.03276","174211.653401","174978.280226","175744.644876","176510.894823","177295.41885","181137.32164"
"Mixed","Female","tile","34","M_gnash.wav","space","639.253949324","223","171146.018577","178061.1395","178828.845635","179594.857213","180361.473836","181127.992451","181894.738616","182661.296805","171911.742318","172677.914355","173445.03276","174211.653401","174978.280226","175744.644876","176510.894823","177295.41885","181904.043999"
"Mixed","Male","cave","18","F_dime.wav","None","733.400381883","223","185811.694459","178061.1395","178828.845635","179594.857213","180361.473836","181127.992451","181894.738616","182661.296805","171911.742318","172677.914355","173445.03276","174211.653401","174978.280226","175744.644876","176510.894823","177295.41885","182670.64238"
"Mixed","Male","cave","18","F_park.wav","None","723.015688491","223","185811.694459","178061.1395","178828.845635","179594.857213","180361.473836","181127.992451","181894.738616","182661.296805","186577.832796","172677.914355","173445.03276","174211.653401","174978.280226","175744.644876","176510.894823","177295.41885","185821.771838"
"Mixed","Male","cave","18","M_greet.wav","None","726.216829207","223","185811.694459","178061.1395","178828.845635","179594.857213","180361.473836","181127.992451","181894.738616","182661.296805","186577.832796","187344.447873","173445.03276","174211.653401","174978.280226","175744.644876","176510.894823","177295.41885","186587.295855"
"Mixed","Male","cave","18","M_cave.wav","None","728.8157078","223","185811.694459","178061.1395","178828.845635","179594.857213","180361.473836","181127.992451","181894.738616","182661.296805","186577.832796","187344.447873","188111.20424","174211.653401","174978.280226","175744.644876","176510.894823","177295.41885","187353.385653"
"Mixed","Male","cave","18","M_tile.wav","space","493.95821018","223","185811.694459","178061.1395","178828.845635","179594.857213","180361.473836","181127.992451","181894.738616","182661.296805","186577.832796","187344.447873","188111.20424","188877.739242","174978.280226","175744.644876","176510.894823","177295.41885","188121.166917"
"Mixed","Male","cave","18","F_bluff.wav","None","731.601943058","223","185811.694459","178061.1395","178828.845635","179594.857213","180361.473836","181127.992451","181894.738616","182661.296805","186577.832796","187344.447873","188111.20424","188877.739242","189644.576302","175744.644876","176510.894823","177295.41885","188886.996085"
"Mixed","Male","cave","18","M_cave.wav","None","732.901691532","223","185811.694459","178061.1395","178828.845635","179594.857213","180361.473836","181127.992451","181894.738616","182661.296805","186577.832796","187344.447873","188111.20424","188877.739242","189644.576302","190410.924565","176510.894823","177295.41885","189653.971035"
"Mixed","Male","cave","18","M_cling.wav","space","594.778065788","223","185811.694459","178061.1395","178828.845635","179594.857213","180361.473836","181127.992451","181894.738616","182661.296805","186577.832796","187344.447873","188111.20424","188877.739242","189644.576302","190410.924565","191178.055955","177295.41885","190420.277869"
"Mixed","Male","cave","18","F_dime.wav","None","735.216752524","223","185811.694459","178061.1395","178828.845635","179594.857213","180361.473836","181127.992451","181894.738616","182661.296805","186577.832796","187344.447873","188111.20424","188877.739242","189644.576302","190410.924565","191178.055955","191960.716309","191187.733578"
"Mixed","Male","cave","18","F_reek.wav","None","721.689969796","223","185811.694459","192728.120076","178828.845635","179594.857213","180361.473836","181127.992451","181894.738616","182661.296805","186577.832796","187344.447873","188111.20424","188877.739242","189644.576302","190410.924565","191178.055955","191960.716309","191969.767245"
"Mixed","Male","cave","18","F_depth.wav","None","721.570012043","223","185811.694459","192728.120076","193494.750302","179594.857213","180361.473836","181127.992451","181894.738616","182661.296805","186577.832796","187344.447873","188111.20424","188877.739242","189644.576302","190410.924565","191178.055955","191960.716309","192738.200238"
"Mixed","Male","cave","18","M_cave.wav","None","723.608984699","223","185811.694459","192728.120076","193494.750302","194260.972115","180361.473836","181127.992451","181894.738616","182661.296805","186577.832796","187344.447873","188111.20424","188877.739242","189644.576302","190410.924565","191178.055955","191960.716309","193504.499034"
"Mixed","Male","cave","18","F_jolt.wav","space","464.968007145","223","185811.694459","192728.120076","193494.750302","194260.972115","195027.534633","181127.992451","181894.738616","182661.296805","186577.832796","187344.447873","188111.20424","188877.739242","189644.576302","190410.924565","191178.055955","191960.716309","194269.97173"
"Mixed","Male","cave","18","F_knife.wav","None","726.993772085","223","185811.694459","192728.120076","193494.750302","194260.972115","195027.534633","195793.528588","181894.738616","182661.296805","186577.832796","187344.447873","188111.20424","188877.739242","189644.576302","190410.924565","191178.055955","191960.716309","195037.326649"
"Mixed","Male","cave","18","M_cave.wav","None","732.412894591","223","185811.694459","192728.120076","193494.750302","194260.972115","195027.534633","195793.528588","196560.470148","182661.296805","186577.832796","187344.447873","188111.20424","188877.739242","189644.576302","190410.924565","191178.055955","191960.716309","195802.280249"
"Mixed","Male","cave","18","M_depth.wav","space","509.624136481","223","185811.694459","192728.120076","193494.750302","194260.972115","195027.534633","195793.528588","196560.470148","197327.267944","186577.832796","187344.447873","188111.20424","188877.739242","189644.576302","190410.924565","191178.055955","191960.716309","196569.243759"
"Mixed","Male","cave","15","F_park.wav","None","734.624692981","223","200477.423518","192728.120076","193494.750302","194260.972115","195027.534633","195793.528588","196560.470148","197327.267944","186577.832796","187344.447873","188111.20424","188877.739242","189644.576302","190410.924565","191178.055955","191960.716309","197336.856216"
"Mixed","Male","cave","15","M_tile.wav","None","725.423809505","223","200477.423518","192728.120076","193494.750302","194260.972115","195027.534633","195793.528588","196560.470148","197327.267944","201244.218531","187344.447873","188111.20424","188877.739242","189644.576302","190410.924565","191178.055955","191960.716309","200486.65841"
"Mixed","Male","cave","15","F_romp.wav","None","727.313762502","223","200477.423518","192728.120076","193494.750302","194260.972115","195027.534633","195793.528588","196560.470148","197327.267944","201244.218531","202010.369235","188111.20424","188877.739242","189644.576302","190410.924565","191178.055955","191960.716309","201253.304712"
"Mixed","Male","cave","15","M_cave.wav","None","729.952833106","223","200477.423518","192728.120076","193494.750302","194260.972115","195027.534633","195793.528588","196560.470148","197327.267944","201244.218531","202010.369235","202777.361189","188877.739242","189644.576302","190410.924565","191178.055955","191960.716309","202019.120895"
"Mixed","Male","cave","15","F_priest.wav","space","492.053417067","223","200477.423518","192728.120076","193494.750302","194260.972115","195027.534633","195793.528588","196560.470148","197327.267944","201244.218531","202010.369235","202777.361189","203544.172588","189644.576302","190410.924565","191178.055955","191960.716309","202786.626689"
"Mixed","Male","cave","15","F_cling.wav","None","732.057968038","223","200477.423518","192728.120076","193494.750302","194260.972115","195027.534633","195793.528588","196560.470148","197327.267944","201244.218531","202010.369235","202777.361189","203544.172588","204310.672345","190410.924565","191178.055955","191960.716309","203553.208684"
"Mixed","Male","cave","15","F_cling.wav","None","738.965741548","223","200477.423518","192728.120076","193494.750302","194260.972115","195027.534633","195793.528588","196560.470148","197327.267944","201244.218531","202010.369235","202777.361189","203544.172588","204310.672345","205077.629054","191178.055955","191960.716309","204314.864992"
"Mixed","Male","cave","15","F_cling.wav","None","735.355260447","223","200477.423518","192728.120076","193494.750302","194260.972115","195027.534633","195793.528588","196560.470148","197327.267944","201244.218531","202010.369235","202777.361189","203544.172588","204310.672345","205077.629054","205860.44863","191960.716309","205087.113445"
"Mixed","Male","cave","15","M_greet.wav","None","721.43428665","223","200477.423518","192728.120076","193494.750302","194260.972115","195027.534633","195793.528588","196560.470148","197327.267944","201244.218531","202010.369235","202777.361189","203544.172588","204310.672345","205077.629054","205860.44863","206627.631651","205869.835942"
"Mixed","Male","cave","15","F_priest.wav","None","722.457637588","223","200477.423518","207393.604891","193494.750302","194260.972115","195027.534633","195793.528588","196560.470148","197327.267944","201244.218531","202010.369235","202777.361189","203544.172588","204310.672345","205077.629054","205860.44863","206627.631651","206637.72356"
"Mixed","Male","cave","15","M_cave.wav","None","726.287629019","223","200477.423518","207393.604891","208160.552943","194260.972115","195027.534633","195793.528588","196560.470148","197327.267944","201244.218531","202010.369235","202777.361189","203544.172588","204310.672345","205077.629054","205860.44863","206627.631651","207402.664484"
"Mixed","Male","cave","15","M_gnash.wav","space","556.594090158","223","200477.423518","207393.604891","208160.552943","208927.141122","195027.534633","195793.528588","196560.470148","197327.267944","201244.218531","202010.369235","202777.361189","203544.172588","204310.672345","205077.629054","205860.44863","206627.631651","208169.936855"
"Mixed","Male","cave","15","M_cave.wav","None","728.347934375","223","200477.423518","207393.604891","208160.552943","208927.141122","209693.369119","195793.528588","196560.470148","197327.267944","201244.218531","202010.369235","202777.361189","203544.172588","204310.672345","205077.629054","205860.44863","206627.631651","208936.497209"
"Mixed","Male","cave","15","M_romp.wav","space","639.986371811","223","200477.423518","207393.604891","208160.552943","208927.141122","209693.369119","210460.534208","196560.470148","197327.267944","201244.218531","202010.369235","202777.361189","203544.172588","204310.672345","205077.629054","205860.44863","206627.631651","209702.506622"
"Mixed","Male","cave","15","M_cave.wav","None","731.537944986","223","200477.423518","207393.604891","208160.552943","208927.141122","209693.369119","210460.534208","211226.931011","197327.267944","201244.218531","202010.369235","202777.361189","203544.172588","204310.672345","205077.629054","205860.44863","206627.631651","210470.007779"
"Mixed","Male","cave","15","F_cad.wav","space","553.938015233","223","200477.423518","207393.604891","208160.552943","208927.141122","209693.369119","210460.534208","211226.931011","211993.534339","201244.218531","202010.369235","202777.361189","203544.172588","204310.672345","205077.629054","205860.44863","206627.631651","211236.481256"
"Mixed","Female","tile","31","M_gnash.wav","None","734.709405442","223","215143.830585","207393.604891","208160.552943","208927.141122","209693.369119","210460.534208","211226.931011","211993.534339","201244.218531","202010.369235","202777.361189","203544.172588","204310.672345","205077.629054","205860.44863","206627.631651","212002.966172"
"Mixed","Female","tile","31","M_depth.wav","None","725.638373129","223","215143.830585","207393.604891","208160.552943","208927.141122","209693.369119","210460.534208","211226.931011","211993.534339","215909.890084","202010.369235","202777.361189","203544.172588","204310.672345","205077.629054","205860.44863","206627.631651","215152.841948"
"Mixed","Female","tile","31","F_reek.wav","None","728.404821552","223","215143.830585","207393.604891","208160.552943","208927.141122","209693.369119","210460.534208","211226.931011","211993.534339","215909.890084","216676.624191","202777.361189","203544.172588","204310.672345","205077.629054","205860.44863","206627.631651","215918.802512"
"Mixed","Female","tile","31","M_done.wav","None","730.676289677","223","215143.830585","207393.604891","208160.552943","208927.141122","209693.369119","210460.534208","211226.931011","211993.534339","215909.890084","216676.624191","217443.108798","203544.172588","204310.672345","205077.629054","205860.44863","206627.631651","216685.3539"
"Mixed","Female","tile","31","M_park.wav","None","733.452940694","223","215143.830585","207393.604891","208160.552943","208927.141122","209693.369119","210460.534208","211226.931011","211993.534339","215909.890084","216676.624191","217443.108798","218210.09024","204310.672345","205077.629054","205860.44863","206627.631651","217451.857057"
"Mixed","Female","tile","31","F_tile.wav","None","734.750834134","223","215143.830585","207393.604891","208160.552943","208927.141122","209693.369119","210460.534208","211226.931011","211993.534339","215909.890084","216676.624191","217443.108798","218210.09024","218993.990364","205077.629054","205860.44863","206627.631651","218219.712522"
"Mixed","Female","tile","31","M_gnash.wav","space","450.418182634","223","215143.830585","207393.604891","208160.552943","208927.141122","209693.369119","210460.534208","211226.931011","211993.534339","215909.890084","216676.624191","217443.108798","218210.09024","218993.990364","219760.620281","205860.44863","206627.631651","219003.76723"
"Mixed","Female","tile","31","F_park.wav","None","720.51141577","223","215143.830585","207393.604891","208160.552943","208927.141122","209693.369119","210460.534208","211226.931011","211993.534339","215909.890084","216676.624191","217443.108798","218210.09024","218993.990364","219760.620281","220527.487021","206627.631651","219770.383543"
"Mixed","Female","tile","31","F_tile.wav","None","722.220813783","223","215143.830585","207393.604891","208160.552943","208927.141122","209693.369119","210460.534208","211226.931011","211993.534339","215909.890084","216676.624191","217443.108798","218210.09024","218993.990364","219760.620281","220527.487021","221293.546211","220537.43393"
"Mixed","Female","tile","31","M_gnash.wav","space","527.050782941","223","215143.830585","222059.681147","208160.552943","208927.141122","209693.369119","210460.534208","211226.931011","211993.534339","215909.890084","216676.624191","217443.108798","218210.09024","218993.990364","219760.620281","220527.487021","221293.546211","221303.063066"
"Mixed","Female","tile","31","F_tile.wav","None","727.688475905","223","215143.830585","222059.681147","222826.813464","208927.141122","209693.369119","210460.534208","211226.931011","211993.534339","215909.890084","216676.624191","217443.108798","218210.09024","218993.990364","219760.620281","220527.487021","221293.546211","222068.560185"
"Mixed","Female","tile","31","F_gnash.wav","space","545.843030952","223","215143.830585","222059.681147","222826.813464","223593.515418","209693.369119","210460.534208","211226.931011","211993.534339","215909.890084","216676.624191","217443.108798","218210.09024","218993.990364","219760.620281","220527.487021","221293.546211","222836.216236"
"Mixed","Female","tile","31","M_depth.wav","None","730.352280065","223","215143.830585","222059.681147","222826.813464","223593.515418","224359.550492","210460.534208","211226.931011","211993.534339","215909.890084","216676.624191","217443.108798","218210.09024","218993.990364","219760.620281","220527.487021","221293.546211","223602.868103"
"Mixed","Female","tile","31","F_tile.wav","None","733.524668001","223","215143.830585","222059.681147","222826.813464","223593.515418","224359.550492","225126.48525","211226.931011","211993.534339","215909.890084","216676.624191","217443.108798","218210.09024","218993.990364","219760.620281","220527.487021","221293.546211","224368.517644"
"Mixed","Female","tile","31","M_depth.wav","space","573.939734211","223","215143.830585","222059.681147","222826.813464","223593.515418","224359.550492","225126.48525","225893.411042","211993.534339","215909.890084","216676.624191","217443.108798","218210.09024","218993.990364","219760.620281","220527.487021","221293.546211","225136.054664"
"Mixed","Female","tile","31","F_cad.wav","None","735.756562426","223","215143.830585","222059.681147","222826.813464","223593.515418","224359.550492","225126.48525","225893.411042","226677.068777","215909.890084","216676.624191","217443.108798","218210.09024","218993.990364","219760.620281","220527.487021","221293.546211","225902.631712"
"Mixed","Female","cave","23","M_bluff.wav","None","720.376308716","223","229826.535521","222059.681147","222826.813464","223593.515418","224359.550492","225126.48525","225893.411042","226677.068777","215909.890084","216676.624191","217443.108798","218210.09024","218993.990364","219760.620281","220527.487021","221293.546211","226686.855845"
"Mixed","Female","cave","23","F_cave.wav","None","724.863903597","223","229826.535521","222059.681147","222826.813464","223593.515418","224359.550492","225126.48525","225893.411042","226677.068777","230593.408754","216676.624191","217443.108798","218210.09024","218993.990364","219760.620281","220527.487021","221293.546211","229836.14018"
"Mixed","Female","cave","23","F_jolt.wav","None","727.027780726","223","229826.535521","222059.681147","222826.813464","223593.515418","224359.550492","225126.48525","225893.411042","226677.068777","230593.408754","231359.883468","217443.108798","218210.09024","218993.990364","219760.620281","220527.487021","221293.546211","230602.375287"
"Mixed","Female","cave","23","F_cave.wav","space","0.0352453207597","223","229826.535521","222059.681147","222826.813464","223593.515418","224359.550492","225126.48525","225893.411042","226677.068777","230593.408754","231359.883468","232125.980686","218210.09024","218993.990364","219760.620281","220527.487021","221293.546211","231368.930076"
"Mixed","Female","cave","23","F_reek.wav","space","566.877375968","223","229826.535521","222059.681147","222826.813464","223593.515418","224359.550492","225126.48525","225893.411042","226677.068777","230593.408754","231359.883468","232125.980686","232893.235743","218993.990364","219760.620281","220527.487021","221293.546211","232134.923413"
"Mixed","Female","cave","23","F_cad.wav","None","730.846332866","223","229826.535521","222059.681147","222826.813464","223593.515418","224359.550492","225126.48525","225893.411042","226677.068777","230593.408754","231359.883468","232125.980686","232893.235743","233659.329251","219760.620281","220527.487021","221293.546211","232902.857406"
"Mixed","Female","cave","23","M_done.wav","None","734.518647863","223","229826.535521","222059.681147","222826.813464","223593.515418","224359.550492","225126.48525","225893.411042","226677.068777","230593.408754","231359.883468","232125.980686","232893.235743","233659.329251","234425.963496","220527.487021","221293.546211","233667.934674"
"Mixed","Female","cave","23","F_cling.wav","None","736.211969066","223","229826.535521","222059.681147","222826.813464","223593.515418","224359.550492","225126.48525","225893.411042","226677.068777","230593.408754","231359.883468","232125.980686","232893.235743","233659.329251","234425.963496","235209.432946","221293.546211","234434.958163"
"Mixed","Female","cave","23","M_tile.wav","None","721.493338016","223","229826.535521","222059.681147","222826.813464","223593.515418","224359.550492","225126.48525","225893.411042","226677.068777","230593.408754","231359.883468","232125.980686","232893.235743","233659.329251","234425.963496","235209.432946","235976.330604","235218.413701"
"Mixed","Female","cave","23","F_cave.wav","None","723.347118168","223","229826.535521","236743.146022","222826.813464","223593.515418","224359.550492","225126.48525","225893.411042","226677.068777","230593.408754","231359.883468","232125.980686","232893.235743","233659.329251","234425.963496","235209.432946","235976.330604","235985.631967"
"Mixed","Female","cave","23","M_depth.wav","space","524.397799702","223","229826.535521","236743.146022","237509.717815","223593.515418","224359.550492","225126.48525","225893.411042","226677.068777","230593.408754","231359.883468","232125.980686","232893.235743","233659.329251","234425.963496","235209.432946","235976.330604","236753.26112"
"Mixed","Female","cave","23","F_cave.wav","None","726.249601168","223","229826.535521","236743.146022","237509.717815","238276.373083","224359.550492","225126.48525","225893.411042","226677.068777","230593.408754","231359.883468","232125.980686","232893.235743","233659.329251","234425.963496","235209.432946","235976.330604","237519.290938"
"Mixed","Female","cave","23","M_tile.wav","space","511.323950239","223","229826.535521","236743.146022","237509.717815","238276.373083","239042.971156","225126.48525","225893.411042","226677.068777","230593.408754","231359.883468","232125.980686","232893.235743","233659.329251","234425.963496","235209.432946","235976.330604","238286.299279"
"Mixed","Female","cave","23","M_romp.wav","None","729.575955513","223","229826.535521","236743.146022","237509.717815","238276.373083","239042.971156","239809.63168","225893.411042","226677.068777","230593.408754","231359.883468","232125.980686","232893.235743","233659.329251","234425.963496","235209.432946","235976.330604","239052.792852"
"Mixed","Female","cave","23","M_priest.wav","None","731.823617592","223","229826.535521","236743.146022","237509.717815","238276.373083","239042.971156","239809.63168","240576.108558","226677.068777","230593.408754","231359.883468","232125.980686","232893.235743","233659.329251","234425.963496","235209.432946","235976.330604","239819.444719"
"Mixed","Female","cave","23","M_romp.wav","None","735.200984898","223","229826.535521","236743.146022","237509.717815","238276.373083","239042.971156","239809.63168","240576.108558","241359.838947","230593.408754","231359.883468","232125.980686","232893.235743","233659.329251","234425.963496","235209.432946","235976.330604","240585.083129"
"Mixed","Male","done","40","F_dime.wav","None","719.367488724","223","244492.891885","236743.146022","237509.717815","238276.373083","239042.971156","239809.63168","240576.108558","241359.838947","230593.408754","231359.883468","232125.980686","232893.235743","233659.329251","234425.963496","235209.432946","235976.330604","241369.69156"
"Mixed","Male","done","40","F_cling.wav","None","725.621059639","223","244492.891885","236743.146022","237509.717815","238276.373083","239042.971156","239809.63168","240576.108558","241359.838947","245259.475117","231359.883468","232125.980686","232893.235743","233659.329251","234425.963496","235209.432946","235976.330604","244502.257865"
"Mixed","Male","done","40","F_reek.wav","None","728.14079083","223","244492.891885","236743.146022","237509.717815","238276.373083","239042.971156","239809.63168","240576.108558","241359.838947","245259.475117","246026.09514","232125.980686","232893.235743","233659.329251","234425.963496","235209.432946","235976.330604","245268.535637"
"Mixed","Male","done","40","M_done.wav","None","730.737505219","223","244492.891885","236743.146022","237509.717815","238276.373083","239042.971156","239809.63168","240576.108558","241359.838947","245259.475117","246026.09514","246792.835739","232893.235743","233659.329251","234425.963496","235209.432946","235976.330604","246035.527282"
"Mixed","Male","done","40","M_lash.wav","space","507.105951154","223","244492.891885","236743.146022","237509.717815","238276.373083","239042.971156","239809.63168","240576.108558","241359.838947","245259.475117","246026.09514","246792.835739","247559.450198","233659.329251","234425.963496","235209.432946","235976.330604","246802.249022"
"Mixed","Male","done","40","F_jolt.wav","None","734.109925819","223","244492.891885","236743.146022","237509.717815","238276.373083","239042.971156","239809.63168","240576.108558","241359.838947","245259.475117","246026.09514","246792.835739","247559.450198","248342.435798","234425.963496","235209.432946","235976.330604","247568.710751"
"Mixed","Male","done","40","M_done.wav","None","720.228834878","223","244492.891885","236743.146022","237509.717815","238276.373083","239042.971156","239809.63168","240576.108558","241359.838947","245259.475117","246026.09514","246792.835739","247559.450198","248342.435798","249109.053348","235209.432946","235976.330604","248351.366467"
"Mixed","Male","done","40","M_dime.wav","space","503.210724957","223","244492.891885","236743.146022","237509.717815","238276.373083","239042.971156","239809.63168","240576.108558","241359.838947","245259.475117","246026.09514","246792.835739","247559.450198","248342.435798","249109.053348","249876.272232","235976.330604","249118.073985"
"Mixed","Male","done","40","F_priest.wav","None","722.623970782","223","244492.891885","236743.146022","237509.717815","238276.373083","239042.971156","239809.63168","240576.108558","241359.838947","245259.475117","246026.09514","246792.835739","247559.450198","248342.435798","249109.053348","249876.272232","250642.213938","249886.107841"
"Mixed","Male","done","40","M_romp.wav","None","727.205553165","223","244492.891885","251409.286894","237509.717815","238276.373083","239042.971156","239809.63168","240576.108558","241359.838947","245259.475117","246026.09514","246792.835739","247559.450198","248342.435798","249109.053348","249876.272232","250642.213938","250651.020321"
"Mixed","Male","done","40","F_dime.wav","None","734.155992075","223","244492.891885","251409.286894","252175.258899","238276.373083","239042.971156","239809.63168","240576.108558","241359.838947","245259.475117","246026.09514","246792.835739","247559.450198","248342.435798","249109.053348","249876.272232","250642.213938","251413.183048"
"Mixed","Male","done","40","M_done.wav","None","731.652646864","223","244492.891885","251409.286894","252175.258899","252942.373593","239042.971156","239809.63168","240576.108558","241359.838947","245259.475117","246026.09514","246792.835739","247559.450198","248342.435798","249109.053348","249876.272232","250642.213938","252184.473076"
"Mixed","Male","done","40","F_lash.wav","space","412.999401451","223","244492.891885","251409.286894","252175.258899","252942.373593","253709.017422","239809.63168","240576.108558","241359.838947","245259.475117","246026.09514","246792.835739","247559.450198","248342.435798","249109.053348","249876.272232","250642.213938","252952.202709"
"Mixed","Male","done","40","M_ball.wav","None","734.14826284","223","244492.891885","251409.286894","252175.258899","252942.373593","253709.017422","254476.00814","240576.108558","241359.838947","245259.475117","246026.09514","246792.835739","247559.450198","248342.435798","249109.053348","249876.272232","250642.213938","253718.323733"
"Mixed","Male","done","40","M_done.wav","None","735.785006022","223","244492.891885","251409.286894","252175.258899","252942.373593","253709.017422","254476.00814","255259.57807","241359.838947","245259.475117","246026.09514","246792.835739","247559.450198","248342.435798","249109.053348","249876.272232","250642.213938","254485.268384"
"Mixed","Male","done","40","F_cling.wav","space","630.885040897","223","244492.891885","251409.286894","252175.258899","252942.373593","253709.017422","254476.00814","255259.57807","256026.096068","245259.475117","246026.09514","246792.835739","247559.450198","248342.435798","249109.053348","249876.272232","250642.213938","255270.228031"
"Mixed","Female","cave","20","F_lash.wav","None","721.592890593","223","259158.414109","251409.286894","252175.258899","252942.373593","253709.017422","254476.00814","255259.57807","256026.096068","245259.475117","246026.09514","246792.835739","247559.450198","248342.435798","249109.053348","249876.272232","250642.213938","256036.017316"
"Mixed","Female","cave","20","F_cave.wav","None","728.146974216","223","259158.414109","251409.286894","252175.258899","252942.373593","253709.017422","254476.00814","255259.57807","256026.096068","259925.61197","246026.09514","246792.835739","247559.450198","248342.435798","249109.053348","249876.272232","250642.213938","259167.27707"
"Mixed","Female","cave","20","M_greet.wav","space","478.077411084","223","259158.414109","251409.286894","252175.258899","252942.373593","253709.017422","254476.00814","255259.57807","256026.096068","259925.61197","260692.44532","246792.835739","247559.450198","248342.435798","249109.053348","249876.272232","250642.213938","259934.847481"
"Mixed","Female","cave","20","M_jolt.wav","None","730.277461058","223","259158.414109","251409.286894","252175.258899","252942.373593","253709.017422","254476.00814","255259.57807","256026.096068","259925.61197","260692.44532","261458.997326","247559.450198","248342.435798","249109.053348","249876.272232","250642.213938","260701.473996"
"Mixed","Female","cave","20","M_romp.wav","None","732.16153981","223","259158.414109","251409.286894","252175.258899","252942.373593","253709.017422","254476.00814","255259.57807","256026.096068","259925.61197","260692.44532","261458.997326","262225.303543","248342.435798","249109.053348","249876.272232","250642.213938","261468.474607"
"Mixed","Female","cave","20","F_cave.wav","None","734.388796685","223","259158.414109","251409.286894","252175.258899","252942.373593","253709.017422","254476.00814","255259.57807","256026.096068","259925.61197","260692.44532","261458.997326","262225.303543","263009.280649","249109.053348","249876.272232","250642.213938","262234.979001"
"Mixed","Female","cave","20","F_cad.wav","space","449.481089963","223","259158.414109","251409.286894","252175.258899","252942.373593","253709.017422","254476.00814","255259.57807","256026.096068","259925.61197","260692.44532","261458.997326","262225.303543","263009.280649","263776.082464","249876.272232","250642.213938","263019.37596"
"Mixed","Female","cave","20","F_cave.wav","None","720.519763345","223","259158.414109","251409.286894","252175.258899","252942.373593","253709.017422","254476.00814","255259.57807","256026.096068","259925.61197","260692.44532","261458.997326","262225.303543","263009.280649","263776.082464","264541.966664","250642.213938","263785.739991"
"Mixed","Female","cave","20","F_lash.wav","space","565.84413159","223","259158.414109","251409.286894","252175.258899","252942.373593","253709.017422","254476.00814","255259.57807","256026.096068","259925.61197","260692.44532","261458.997326","262225.303543","263009.280649","263776.082464","264541.966664","265308.854428","264550.994104"
"Mixed","Female","cave","20","F_cave.wav","None","724.346353905","223","259158.414109","266075.015644","252175.258899","252942.373593","253709.017422","254476.00814","255259.57807","256026.096068","259925.61197","260692.44532","261458.997326","262225.303543","263009.280649","263776.082464","264541.966664","265308.854428","265318.431571"
"Mixed","Female","cave","20","M_bluff.wav","space","472.811945816","223","259158.414109","266075.015644","266842.213505","252942.373593","253709.017422","254476.00814","255259.57807","256026.096068","259925.61197","260692.44532","261458.997326","262225.303543","263009.280649","263776.082464","264541.966664","265308.854428","266083.979085"
"Mixed","Female","cave","20","M_ball.wav","None","728.421516702","223","259158.414109","266075.015644","266842.213505","267608.77324","253709.017422","254476.00814","255259.57807","256026.096068","259925.61197","260692.44532","261458.997326","262225.303543","263009.280649","263776.082464","264541.966664","265308.854428","266851.702534"
"Mixed","Female","cave","20","M_cad.wav","None","731.389234468","223","259158.414109","266075.015644","266842.213505","267608.77324","268375.152111","254476.00814","255259.57807","256026.096068","259925.61197","260692.44532","261458.997326","262225.303543","263009.280649","263776.082464","264541.966664","265308.854428","267618.252685"
"Mixed","Female","cave","20","F_romp.wav","None","733.857643543","223","259158.414109","266075.015644","266842.213505","267608.77324","268375.152111","269159.112523","255259.57807","256026.096068","259925.61197","260692.44532","261458.997326","262225.303543","263009.280649","263776.082464","264541.966664","265308.854428","268385.143232"
"Mixed","Female","cave","20","M_park.wav","None","718.382165622","223","259158.414109","266075.015644","266842.213505","267608.77324","268375.152111","269159.112523","269925.877856","256026.096068","259925.61197","260692.44532","261458.997326","262225.303543","263009.280649","263776.082464","264541.966664","265308.854428","269169.16826"
"Mixed","Female","cave","20","M_jolt.wav","None","720.832333682","223","259158.414109","266075.015644","266842.213505","267608.77324","268375.152111","269159.112523","269925.877856","270692.37112","259925.61197","260692.44532","261458.997326","262225.303543","263009.280649","263776.082464","264541.966664","265308.854428","269935.58083"
"Mixed","Female","ball","10","M_lash.wav","None","722.811018306","223","273825.222788","266075.015644","266842.213505","267608.77324","268375.152111","269159.112523","269925.877856","270692.37112","259925.61197","260692.44532","261458.997326","262225.303543","263009.280649","263776.082464","264541.966664","265308.854428","270702.25434"
"Mixed","Female","ball","10","F_cave.wav","None","725.271079791","223","273825.222788","266075.015644","266842.213505","267608.77324","268375.152111","269159.112523","269925.877856","270692.37112","274591.966788","260692.44532","261458.997326","262225.303543","263009.280649","263776.082464","264541.966664","265308.854428","273834.747062"
"Mixed","Female","ball","10","F_ball.wav","None","728.10647302","223","273825.222788","266075.015644","266842.213505","267608.77324","268375.152111","269159.112523","269925.877856","270692.37112","274591.966788","275359.214425","261458.997326","262225.303543","263009.280649","263776.082464","264541.966664","265308.854428","274601.00443"
"Mixed","Female","ball","10","M_reek.wav","space","491.917691659","223","273825.222788","266075.015644","266842.213505","267608.77324","268375.152111","269159.112523","269925.877856","270692.37112","274591.966788","275359.214425","276124.708144","262225.303543","263009.280649","263776.082464","264541.966664","265308.854428","275368.585352"
"Mixed","Female","ball","10","F_ball.wav","None","732.819143275","223","273825.222788","266075.015644","266842.213505","267608.77324","268375.152111","269159.112523","269925.877856","270692.37112","274591.966788","275359.214425","276124.708144","276891.367123","263009.280649","263776.082464","264541.966664","265308.854428","276133.577907"
"Mixed","Female","ball","10","F_cad.wav","space","535.872933819","223","273825.222788","266075.015644","266842.213505","267608.77324","268375.152111","269159.112523","269925.877856","270692.37112","274591.966788","275359.214425","276124.708144","276891.367123","277674.825443","263776.082464","264541.966664","265308.854428","276900.565533"
"Mixed","Female","ball","10","M_cad.wav","None","720.364560271","223","273825.222788","266075.015644","266842.213505","267608.77324","268375.152111","269159.112523","269925.877856","270692.37112","274591.966788","275359.214425","276124.708144","276891.367123","277674.825443","278442.212825","264541.966664","265308.854428","277683.658724"
"Mixed","Female","ball","10","M_jaw.wav","None","721.480662061","223","273825.222788","266075.015644","266842.213505","267608.77324","268375.152111","269159.112523","269925.877856","270692.37112","274591.966788","275359.214425","276124.708144","276891.367123","277674.825443","278442.212825","279208.502346","265308.854428","278452.10161"
"Mixed","Female","ball","10","F_ball.wav","None","724.797741335","223","273825.222788","266075.015644","266842.213505","267608.77324","268375.152111","269159.112523","269925.877856","270692.37112","274591.966788","275359.214425","276124.708144","276891.367123","277674.825443","278442.212825","279208.502346","279975.125152","279217.955821"
"Mixed","Female","ball","10","M_jaw.wav","space","450.829996364","223","273825.222788","280741.766199","266842.213505","267608.77324","268375.152111","269159.112523","269925.877856","270692.37112","274591.966788","275359.214425","276124.708144","276891.367123","277674.825443","278442.212825","279208.502346","279975.125152","279985.517574"
"Mixed","Female","ball","10","F_cave.wav","None","728.849098086","223","273825.222788","280741.766199","281508.400444","267608.77324","268375.152111","269159.112523","269925.877856","270692.37112","274591.966788","275359.214425","276124.708144","276891.367123","277674.825443","278442.212825","279208.502346","279975.125152","280750.881751"
"Mixed","Female","ball","10","M_romp.wav","None","731.082847531","223","273825.222788","280741.766199","281508.400444","282274.477565","268375.152111","269159.112523","269925.877856","270692.37112","274591.966788","275359.214425","276124.708144","276891.367123","277674.825443","278442.212825","279208.502346","279975.125152","281517.833513"
"Mixed","Female","ball","10","F_ball.wav","None","734.558839889","223","273825.222788","280741.766199","281508.400444","282274.477565","283057.992155","269159.112523","269925.877856","270692.37112","274591.966788","275359.214425","276124.708144","276891.367123","277674.825443","278442.212825","279208.502346","279975.125152","282283.38752"
"Mixed","Female","ball","10","M_jaw.wav","space","369.415780995","223","273825.222788","280741.766199","281508.400444","282274.477565","283057.992155","283825.330378","269925.877856","270692.37112","274591.966788","275359.214425","276124.708144","276891.367123","277674.825443","278442.212825","279208.502346","279975.125152","283066.863773"
"Mixed","Female","ball","10","F_gnash.wav","None","719.638321185","223","273825.222788","280741.766199","281508.400444","282274.477565","283057.992155","283825.330378","284592.299145","270692.37112","274591.966788","275359.214425","276124.708144","276891.367123","277674.825443","278442.212825","279208.502346","279975.125152","283835.397555"
"Mixed","Female","ball","10","M_depth.wav","None","722.243073993","223","273825.222788","280741.766199","281508.400444","282274.477565","283057.992155","283825.330378","284592.299145","285357.772459","274591.966788","275359.214425","276124.708144","276891.367123","277674.825443","278442.212825","279208.502346","279975.125152","284602.010158"
"Mixed","Male","ball","6","F_priest.wav","None","726.956671759","223","288491.479599","280741.766199","281508.400444","282274.477565","283057.992155","283825.330378","284592.299145","285357.772459","274591.966788","275359.214425","276124.708144","276891.367123","277674.825443","278442.212825","279208.502346","279975.125152","285366.49011"
"Mixed","Male","ball","6","M_ball.wav","None","725.708245431","223","288491.479599","280741.766199","281508.400444","282274.477565","283057.992155","283825.330378","284592.299145","285357.772459","289258.170112","275359.214425","276124.708144","276891.367123","277674.825443","278442.212825","279208.502346","279975.125152","288500.569799"
"Mixed","Male","ball","6","F_knife.wav","space","584.785399289","223","288491.479599","280741.766199","281508.400444","282274.477565","283057.992155","283825.330378","284592.299145","285357.772459","289258.170112","290024.764475","276124.708144","276891.367123","277674.825443","278442.212825","279208.502346","279975.125152","289267.307925"
"Mixed","Male","ball","6","F_dime.wav","None","728.691730837","223","288491.479599","280741.766199","281508.400444","282274.477565","283057.992155","283825.330378","284592.299145","285357.772459","289258.170112","290024.764475","290790.712364","276891.367123","277674.825443","278442.212825","279208.502346","279975.125152","290034.195689"
"Mixed","Male","ball","6","M_cad.wav","None","736.755179823","223","288491.479599","280741.766199","281508.400444","282274.477565","283057.992155","283825.330378","284592.299145","285357.772459","289258.170112","290024.764475","290790.712364","291575.103448","277674.825443","278442.212825","279208.502346","279975.125152","290799.50638"
"Mixed","Male","ball","6","M_gnash.wav","None","720.620243432","223","288491.479599","280741.766199","281508.400444","282274.477565","283057.992155","283825.330378","284592.299145","285357.772459","289258.170112","290024.764475","290790.712364","291575.103448","292341.824261","278442.212825","279208.502346","279975.125152","291584.778288"
"Mixed","Male","ball","6","F_cling.wav","None","728.402039036","223","288491.479599","280741.766199","281508.400444","282274.477565","283057.992155","283825.330378","284592.299145","285357.772459","289258.170112","290024.764475","290790.712364","291575.103448","292341.824261","293108.031852","279208.502346","279975.125152","292346.14645"
"Mixed","Male","ball","6","F_greet.wav","None","726.532800414","223","288491.479599","280741.766199","281508.400444","282274.477565","283057.992155","283825.330378","284592.299145","285357.772459","289258.170112","290024.764475","290790.712364","291575.103448","292341.824261","293108.031852","293874.625596","279975.125152","293117.187906"
"Mixed","Male","ball","6","M_ball.wav","None","728.925153773","223","288491.479599","280741.766199","281508.400444","282274.477565","283057.992155","283825.330378","284592.299145","285357.772459","289258.170112","290024.764475","290790.712364","291575.103448","292341.824261","293108.031852","293874.625596","294641.386291","293883.867908"
"Mixed","Male","ball","6","F_park.wav","space","393.587268656","223","288491.479599","295408.02301","281508.400444","282274.477565","283057.992155","283825.330378","284592.299145","285357.772459","289258.170112","290024.764475","290790.712364","291575.103448","292341.824261","293108.031852","293874.625596","294641.386291","294650.295319"
"Mixed","Male","ball","6","M_ball.wav","None","732.157520615","223","288491.479599","295408.02301","296174.399407","282274.477565","283057.992155","283825.330378","284592.299145","285357.772459","289258.170112","290024.764475","290790.712364","291575.103448","292341.824261","293108.031852","293874.625596","294641.386291","295417.610046"
"Mixed","Male","ball","6","F_jolt.wav","space","457.55999742","223","288491.479599","295408.02301","296174.399407","296958.291183","283057.992155","283825.330378","284592.299145","285357.772459","289258.170112","290024.764475","290790.712364","291575.103448","292341.824261","293108.031852","293874.625596","294641.386291","296178.285668"
"Mixed","Male","ball","6","M_bluff.wav","None","718.349702831","223","288491.479599","295408.02301","296174.399407","296958.291183","297724.821547","283825.330378","284592.299145","285357.772459","289258.170112","290024.764475","290790.712364","291575.103448","292341.824261","293108.031852","293874.625596","294641.386291","296968.314457"
"Mixed","Male","ball","6","M_ball.wav","None","720.77111814","223","288491.479599","295408.02301","296174.399407","296958.291183","297724.821547","298491.608831","284592.299145","285357.772459","289258.170112","290024.764475","290790.712364","291575.103448","292341.824261","293108.031852","293874.625596","294641.386291","297735.060622"
"Mixed","Male","ball","6","M_park.wav","space","534.482289542","223","288491.479599","295408.02301","296174.399407","296958.291183","297724.821547","298491.608831","299257.860634","285357.772459","289258.170112","290024.764475","290790.712364","291575.103448","292341.824261","293108.031852","293874.625596","294641.386291","298501.337158"
"Mixed","Male","ball","6","F_reek.wav","None","725.476986656","223","288491.479599","295408.02301","296174.399407","296958.291183","297724.821547","298491.608831","299257.860634","300024.406147","289258.170112","290024.764475","290790.712364","291575.103448","292341.824261","293108.031852","293874.625596","294641.386291","299267.392329"
"Mixed","Male","tile","30","F_ball.wav","None","728.158413491","223","303157.746303","295408.02301","296174.399407","296958.291183","297724.821547","298491.608831","299257.860634","300024.406147","289258.170112","290024.764475","290790.712364","291575.103448","292341.824261","293108.031852","293874.625596","294641.386291","300033.712458"
"Mixed","Male","tile","30","M_tile.wav","None","724.78661123","223","303157.746303","295408.02301","296174.399407","296958.291183","297724.821547","298491.608831","299257.860634","300024.406147","303924.333554","290024.764475","290790.712364","291575.103448","292341.824261","293108.031852","293874.625596","294641.386291","303167.246772"
"Mixed","Male","tile","30","M_dime.wav","space","477.86593916","223","303157.746303","295408.02301","296174.399407","296958.291183","297724.821547","298491.608831","299257.860634","300024.406147","303924.333554","304691.145263","290790.712364","291575.103448","292341.824261","293108.031852","293874.625596","294641.386291","303933.746528"
"Mixed","Male","tile","30","F_gnash.wav","None","729.02779805","223","303157.746303","295408.02301","296174.399407","296958.291183","297724.821547","298491.608831","299257.860634","300024.406147","303924.333554","304691.145263","305457.743644","291575.103448","292341.824261","293108.031852","293874.625596","294641.386291","304700.463321"
"Mixed","Male","tile","30","M_tile.wav","None","731.438083254","223","303157.746303","295408.02301","296174.399407","296958.291183","297724.821547","298491.608831","299257.860634","300024.406147","303924.333554","304691.145263","305457.743644","306223.961438","292341.824261","293108.031852","293874.625596","294641.386291","305467.23391"
"Mixed","Male","tile","30","F_gnash.wav","space","434.37321455","223","303157.746303","295408.02301","296174.399407","296958.291183","297724.821547","298491.608831","299257.860634","300024.406147","303924.333554","304691.145263","305457.743644","306223.961438","306991.059746","293108.031852","293874.625596","294641.386291","306233.206223"
"Mixed","Male","tile","30","F_priest.wav","None","735.392669958","223","303157.746303","295408.02301","296174.399407","296958.291183","297724.821547","298491.608831","299257.860634","300024.406147","303924.333554","304691.145263","305457.743644","306223.961438","306991.059746","307774.612363","293874.625596","294641.386291","307000.467773"
"Mixed","Male","tile","30","F_cave.wav","None","720.921374494","223","303157.746303","295408.02301","296174.399407","296958.291183","297724.821547","298491.608831","299257.860634","300024.406147","303924.333554","304691.145263","305457.743644","306223.961438","306991.059746","307774.612363","308541.195595","294641.386291","307784.382428"
"Mixed","Male","tile","30","M_tile.wav","None","723.510977987","223","303157.746303","295408.02301","296174.399407","296958.291183","297724.821547","298491.608831","299257.860634","300024.406147","303924.333554","304691.145263","305457.743644","306223.961438","306991.059746","307774.612363","308541.195595","309307.578486","308551.150852"
"Mixed","Male","tile","30","M_cad.wav","space","502.247971221","223","303157.746303","310074.149351","296174.399407","296958.291183","297724.821547","298491.608831","299257.860634","300024.406147","303924.333554","304691.145263","305457.743644","306223.961438","306991.059746","307774.612363","308541.195595","309307.578486","309317.216226"
"Mixed","Male","tile","30","F_cling.wav","None","728.564353005","223","303157.746303","310074.149351","310840.919012","296958.291183","297724.821547","298491.608831","299257.860634","300024.406147","303924.333554","304691.145263","305457.743644","306223.961438","306991.059746","307774.612363","308541.195595","309307.578486","310083.462154"
"Mixed","Male","tile","30","M_cling.wav","None","731.119329517","223","303157.746303","310074.149351","310840.919012","311607.430826","297724.821547","298491.608831","299257.860634","300024.406147","303924.333554","304691.145263","305457.743644","306223.961438","306991.059746","307774.612363","308541.195595","309307.578486","310850.340025"
"Mixed","Male","tile","30","F_bluff.wav","None","733.877430379","223","303157.746303","310074.149351","310840.919012","311607.430826","312391.280864","298491.608831","299257.860634","300024.406147","303924.333554","304691.145263","305457.743644","306223.961438","306991.059746","307774.612363","308541.195595","309307.578486","311616.946444"
"Mixed","Male","tile","30","M_tile.wav","None","718.258806999","223","303157.746303","310074.149351","310840.919012","311607.430826","312391.280864","313157.780621","299257.860634","300024.406147","303924.333554","304691.145263","305457.743644","306223.961438","306991.059746","307774.612363","308541.195595","309307.578486","312401.614236"
"Mixed","Male","tile","30","F_jaw.wav","space","475.468948251","223","303157.746303","310074.149351","310840.919012","311607.430826","312391.280864","313157.780621","313924.404972","300024.406147","303924.333554","304691.145263","305457.743644","306223.961438","306991.059746","307774.612363","308541.195595","309307.578486","313167.860164"
"Mixed","Male","tile","30","M_priest.wav","None","722.400132086","223","303157.746303","310074.149351","310840.919012","311607.430826","312391.280864","313157.780621","313924.404972","314690.366774","303924.333554","304691.145263","305457.743644","306223.961438","306991.059746","307774.612363","308541.195595","309307.578486","313934.251711"
"Mixed","Female","tile","35","M_jaw.wav","None","726.857428352","223","317823.901088","310074.149351","310840.919012","311607.430826","312391.280864","313157.780621","313924.404972","314690.366774","303924.333554","304691.145263","305457.743644","306223.961438","306991.059746","307774.612363","308541.195595","309307.578486","314699.230354"
"Mixed","Female","tile","35","M_gnash.wav","None","725.408351034","223","317823.901088","310074.149351","310840.919012","311607.430826","312391.280864","313157.780621","313924.404972","314690.366774","318590.687135","304691.145263","305457.743644","306223.961438","306991.059746","307774.612363","308541.195595","309307.578486","317833.44886"
"Mixed","Female","tile","35","M_done.wav","None","728.418115847","223","317823.901088","310074.149351","310840.919012","311607.430826","312391.280864","313157.780621","313924.404972","314690.366774","318590.687135","319357.26202","305457.743644","306223.961438","306991.059746","307774.612363","308541.195595","309307.578486","318599.947998"
"Mixed","Female","tile","35","F_bluff.wav","None","731.836911873","223","317823.901088","310074.149351","310840.919012","311607.430826","312391.280864","313157.780621","313924.404972","314690.366774","318590.687135","319357.26202","320123.29864","306223.961438","306991.059746","307774.612363","308541.195595","309307.578486","319366.457957"
"Mixed","Female","tile","35","M_bluff.wav","None","735.807884557","223","317823.901088","310074.149351","310840.919012","311607.430826","312391.280864","313157.780621","313924.404972","314690.366774","318590.687135","319357.26202","320123.29864","320907.340673","306991.059746","307774.612363","308541.195595","309307.578486","320131.977027"
"Mixed","Female","tile","35","F_jolt.wav","None","721.373689434","223","317823.901088","310074.149351","310840.919012","311607.430826","312391.280864","313157.780621","313924.404972","314690.366774","318590.687135","319357.26202","320123.29864","320907.340673","321673.289489","307774.612363","308541.195595","309307.578486","320916.727367"
"Mixed","Female","tile","35","F_tile.wav","None","725.120514253","223","317823.901088","310074.149351","310840.919012","311607.430826","312391.280864","313157.780621","313924.404972","314690.366774","318590.687135","319357.26202","320123.29864","320907.340673","321673.289489","322440.093159","308541.195595","309307.578486","321682.134209"
"Mixed","Female","tile","35","F_reek.wav","space","658.186560278","223","317823.901088","310074.149351","310840.919012","311607.430826","312391.280864","313157.780621","313924.404972","314690.366774","318590.687135","319357.26202","320123.29864","320907.340673","321673.289489","322440.093159","323207.147256","309307.578486","322448.879137"
"Mixed","Female","tile","35","M_knife.wav","None","730.625276701","223","317823.901088","310074.149351","310840.919012","311607.430826","312391.280864","313157.780621","313924.404972","314690.366774","318590.687135","319357.26202","320123.29864","320907.340673","321673.289489","322440.093159","323207.147256","323973.249111","323216.292489"
"Mixed","Female","tile","35","F_tile.wav","None","734.256472148","223","317823.901088","324756.760609","310840.919012","311607.430826","312391.280864","313157.780621","313924.404972","314690.366774","318590.687135","319357.26202","320123.29864","320907.340673","321673.289489","322440.093159","323207.147256","323973.249111","323982.324163"
"Mixed","Female","tile","35","M_cling.wav","space","549.398479867","223","317823.901088","324756.760609","325524.183545","311607.430826","312391.280864","313157.780621","313924.404972","314690.366774","318590.687135","319357.26202","320123.29864","320907.340673","321673.289489","322440.093159","323207.147256","323973.249111","324765.619242"
"Mixed","Female","tile","35","F_tile.wav","None","720.614369202","223","317823.901088","324756.760609","325524.183545","326291.049667","312391.280864","313157.780621","313924.404972","314690.366774","318590.687135","319357.26202","320123.29864","320907.340673","321673.289489","322440.093159","323207.147256","323973.249111","325533.729462"
"Mixed","Female","tile","35","M_jaw.wav","space","582.471574962","223","317823.901088","324756.760609","325524.183545","326291.049667","327057.008377","313157.780621","313924.404972","314690.366774","318590.687135","319357.26202","320123.29864","320907.340673","321673.289489","322440.093159","323207.147256","323973.249111","326300.508398"
"Mixed","Female","tile","35","M_reek.wav","None","724.892965532","223","317823.901088","324756.760609","325524.183545","326291.049667","327057.008377","327823.15568","313924.404972","314690.366774","318590.687135","319357.26202","320123.29864","320907.340673","321673.289489","322440.093159","323207.147256","323973.249111","327066.64519"
"Mixed","Female","tile","35","F_tile.wav","None","729.111582972","223","317823.901088","324756.760609","325524.183545","326291.049667","327057.008377","327823.15568","328589.921013","314690.366774","318590.687135","319357.26202","320123.29864","320907.340673","321673.289489","322440.093159","323207.147256","323973.249111","327832.021733"
"Mixed","Female","tile","35","F_park.wav","space","572.207148492","223","317823.901088","324756.760609","325524.183545","326291.049667","327057.008377","327823.15568","328589.921013","329357.020868","318590.687135","319357.26202","320123.29864","320907.340673","321673.289489","322440.093159","323207.147256","323973.249111","328598.716267"
"Mixed","Female","cave","22","M_tile.wav","None","732.057968038","223","332490.259925","324756.760609","325524.183545","326291.049667","327057.008377","327823.15568","328589.921013","329357.020868","318590.687135","319357.26202","320123.29864","320907.340673","321673.289489","322440.093159","323207.147256","323973.249111","329366.582243"
"Mixed","Female","cave","22","F_jaw.wav","None","725.619822944","223","332490.259925","324756.760609","325524.183545","326291.049667","327057.008377","327823.15568","328589.921013","329357.020868","333256.906537","319357.26202","320123.29864","320907.340673","321673.289489","322440.093159","323207.147256","323973.249111","332499.550468"
"Mixed","Female","cave","22","F_cave.wav","space","24.5304334094","223","332490.259925","324756.760609","325524.183545","326291.049667","327057.008377","327823.15568","328589.921013","329357.020868","333256.906537","334023.184","320123.29864","320907.340673","321673.289489","322440.093159","323207.147256","323973.249111","333266.236962"
"Mixed","Female","cave","22","F_romp.wav","space","666.443240189","223","332490.259925","324756.760609","325524.183545","326291.049667","327057.008377","327823.15568","328589.921013","329357.020868","333256.906537","334023.184","334790.175027","320907.340673","321673.289489","322440.093159","323207.147256","323973.249111","334032.294606"
"Mixed","Female","cave","22","M_gnash.wav","None","731.091813432","223","332490.259925","324756.760609","325524.183545","326291.049667","327057.008377","327823.15568","328589.921013","329357.020868","333256.906537","334023.184","334790.175027","335556.180112","321673.289489","322440.093159","323207.147256","323973.249111","334799.419813"
"Mixed","Female","cave","22","F_cave.wav","None","735.24519612","223","332490.259925","324756.760609","325524.183545","326291.049667","327057.008377","327823.15568","328589.921013","329357.020868","333256.906537","334023.184","334790.175027","335556.180112","336340.304384","322440.093159","323207.147256","323973.249111","335564.954033"
"Mixed","Female","cave","22","M_cad.wav","space","564.680417709","223","332490.259925","324756.760609","325524.183545","326291.049667","327057.008377","327823.15568","328589.921013","329357.020868","333256.906537","334023.184","334790.175027","335556.180112","336340.304384","337106.511666","323207.147256","323973.249111","336350.025599"
"Mixed","Female","cave","22","F_cave.wav","None","721.64792275","223","332490.259925","324756.760609","325524.183545","326291.049667","327057.008377","327823.15568","328589.921013","329357.020868","333256.906537","334023.184","334790.175027","335556.180112","336340.304384","337106.511666","337873.662224","323973.249111","337115.748722"
"Mixed","Female","cave","22","M_bluff.wav","None","723.20428188","223","332490.259925","324756.760609","325524.183545","326291.049667","327057.008377","327823.15568","328589.921013","329357.020868","333256.906537","334023.184","334790.175027","335556.180112","336340.304384","337106.511666","337873.662224","338640.068302","337883.542662"
"Mixed","Female","cave","22","F_gnash.wav","space","33.3779361827","223","332490.259925","339406.606395","325524.183545","326291.049667","327057.008377","327823.15568","328589.921013","329357.020868","333256.906537","334023.184","334790.175027","335556.180112","336340.304384","337106.511666","337873.662224","338640.068302","338649.220027"
"Mixed","Female","cave","22","M_lash.wav","None","727.307269932","223","332490.259925","339406.606395","340172.772248","326291.049667","327057.008377","327823.15568","328589.921013","329357.020868","333256.906537","334023.184","334790.175027","335556.180112","336340.304384","337106.511666","337873.662224","338640.068302","339415.80295"
"Mixed","Female","cave","22","M_dime.wav","None","730.729466828","223","332490.259925","339406.606395","340172.772248","340940.044001","327057.008377","327823.15568","328589.921013","329357.020868","333256.906537","334023.184","334790.175027","335556.180112","336340.304384","337106.511666","337873.662224","338640.068302","340181.686223"
"Mixed","Female","cave","22","M_romp.wav","None","731.164468263","223","332490.259925","339406.606395","340172.772248","340940.044001","341706.525826","327823.15568","328589.921013","329357.020868","333256.906537","334023.184","334790.175027","335556.180112","336340.304384","337106.511666","337873.662224","338640.068302","340950.00235"
"Mixed","Female","cave","22","F_cave.wav","None","734.442592176","223","332490.259925","339406.606395","340172.772248","340940.044001","341706.525826","342490.311865","328589.921013","329357.020868","333256.906537","334023.184","334790.175027","335556.180112","336340.304384","337106.511666","337873.662224","338640.068302","341715.963842"
"Mixed","Female","cave","22","F_bluff.wav","space","630.35790695","223","332490.259925","339406.606395","340172.772248","340940.044001","341706.525826","342490.311865","343256.868509","329357.020868","333256.906537","334023.184","334790.175027","335556.180112","336340.304384","337106.511666","337873.662224","338640.068302","342500.110683"
"Mixed","Female","cave","22","M_gnash.wav","None","720.98382673","223","332490.259925","339406.606395","340172.772248","340940.044001","341706.525826","342490.311865","343256.868509","344023.554385","333256.906537","334023.184","334790.175027","335556.180112","336340.304384","337106.511666","337873.662224","338640.068302","343266.739363"
"Mixed","Male","ball","5","F_greet.wav","None","723.186040879","223","347156.402652","339406.606395","340172.772248","340940.044001","341706.525826","342490.311865","343256.868509","344023.554385","333256.906537","334023.184","334790.175027","335556.180112","336340.304384","337106.511666","337873.662224","338640.068302","344033.864569"
"Mixed","Male","ball","5","M_ball.wav","None","724.907187323","223","347156.402652","339406.606395","340172.772248","340940.044001","341706.525826","342490.311865","343256.868509","344023.554385","347922.964243","334023.184","334790.175027","335556.180112","336340.304384","337106.511666","337873.662224","338640.068302","347165.948569"
"Mixed","Male","ball","5","F_greet.wav","space","622.155640871","223","347156.402652","339406.606395","340172.772248","340940.044001","341706.525826","342490.311865","343256.868509","344023.554385","347922.964243","348689.387634","334790.175027","335556.180112","336340.304384","337106.511666","337873.662224","338640.068302","347932.163271"
"Mixed","Male","ball","5","F_depth.wav","None","729.956543131","223","347156.402652","339406.606395","340172.772248","340940.044001","341706.525826","342490.311865","343256.868509","344023.554385","347922.964243","348689.387634","349455.850599","335556.180112","336340.304384","337106.511666","337873.662224","338640.068302","348698.161864"
"Mixed","Male","ball","5","F_depth.wav","None","733.136969488","223","347156.402652","339406.606395","340172.772248","340940.044001","341706.525826","342490.311865","343256.868509","344023.554385","347922.964243","348689.387634","349455.850599","350222.532147","336340.304384","337106.511666","337873.662224","338640.068302","349464.55001"
"Mixed","Male","ball","5","M_park.wav","None","735.27302139","223","347156.402652","339406.606395","340172.772248","340940.044001","341706.525826","342490.311865","343256.868509","344023.554385","347922.964243","348689.387634","349455.850599","350222.532147","351006.292217","337106.511666","337873.662224","338640.068302","350231.817434"
"Mixed","Male","ball","5","M_ball.wav","None","720.881182468","223","347156.402652","339406.606395","340172.772248","340940.044001","341706.525826","342490.311865","343256.868509","344023.554385","347922.964243","348689.387634","349455.850599","350222.532147","351006.292217","351773.324054","337873.662224","338640.068302","351015.598837"
"Mixed","Male","ball","5","F_cad.wav","space","522.793210141","223","347156.402652","339406.606395","340172.772248","340940.044001","341706.525826","342490.311865","343256.868509","344023.554385","347922.964243","348689.387634","349455.850599","350222.532147","351006.292217","351773.324054","352539.583586","338640.068302","351783.384738"
"Mixed","Male","ball","5","M_priest.wav","None","724.675928563","223","347156.402652","339406.606395","340172.772248","340940.044001","341706.525826","342490.311865","343256.868509","344023.554385","347922.964243","348689.387634","349455.850599","350222.532147","351006.292217","351773.324054","352539.583586","353306.235454","352549.202776"
"Mixed","Male","ball","5","M_depth.wav","None","727.975385162","223","347156.402652","354072.324942","340172.772248","340940.044001","341706.525826","342490.311865","343256.868509","344023.554385","347922.964243","348689.387634","349455.850599","350222.532147","351006.292217","351773.324054","352539.583586","353306.235454","353315.385633"
"Mixed","Male","ball","5","F_greet.wav","None","731.643990119","223","347156.402652","354072.324942","354839.267738","340940.044001","341706.525826","342490.311865","343256.868509","344023.554385","347922.964243","348689.387634","349455.850599","350222.532147","351006.292217","351773.324054","352539.583586","353306.235454","354081.272307"
"Mixed","Male","ball","5","M_ball.wav","None","734.222463521","223","347156.402652","354072.324942","354839.267738","355606.47271","341706.525826","342490.311865","343256.868509","344023.554385","347922.964243","348689.387634","349455.850599","350222.532147","351006.292217","351773.324054","352539.583586","353306.235454","354848.04877"
"Mixed","Male","ball","5","F_cad.wav","space","442.581354859","223","347156.402652","354072.324942","354839.267738","355606.47271","356389.871052","342490.311865","343256.868509","344023.554385","347922.964243","348689.387634","349455.850599","350222.532147","351006.292217","351773.324054","352539.583586","353306.235454","355615.51499"
"Mixed","Male","ball","5","M_ball.wav","None","719.906680286","223","347156.402652","354072.324942","354839.267738","355606.47271","356389.871052","357155.799154","343256.868509","344023.554385","347922.964243","348689.387634","349455.850599","350222.532147","351006.292217","351773.324054","352539.583586","353306.235454","356399.925861"
"Mixed","Male","ball","5","M_tile.wav","space","581.436784734","223","347156.402652","354072.324942","354839.267738","355606.47271","356389.871052","357155.799154","357922.674551","344023.554385","347922.964243","348689.387634","349455.850599","350222.532147","351006.292217","351773.324054","352539.583586","353306.235454","357164.615121"
"Mixed","Male","ball","5","F_knife.wav","None","725.288084112","223","347156.402652","354072.324942","354839.267738","355606.47271","356389.871052","357155.799154","357922.674551","358689.499554","347922.964243","348689.387634","349455.850599","350222.532147","351006.292217","351773.324054","352539.583586","353306.235454","357931.897076"
"Mixed","Female","done","48","F_park.wav","None","729.318108177","223","361822.573823","354072.324942","354839.267738","355606.47271","356389.871052","357155.799154","357922.674551","358689.499554","347922.964243","348689.387634","349455.850599","350222.532147","351006.292217","351773.324054","352539.583586","353306.235454","358698.534722"
"Mixed","Female","done","48","M_park.wav","None","725.209555079","223","361822.573823","354072.324942","354839.267738","355606.47271","356389.871052","357155.799154","357922.674551","358689.499554","362589.436854","348689.387634","349455.850599","350222.532147","351006.292217","351773.324054","352539.583586","353306.235454","361832.030081"
"Mixed","Female","done","48","M_romp.wav","None","727.800704408","223","361822.573823","354072.324942","354839.267738","355606.47271","356389.871052","357155.799154","357922.674551","358689.499554","362589.436854","363355.685565","349455.850599","350222.532147","351006.292217","351773.324054","352539.583586","353306.235454","362598.802525"
"Mixed","Female","done","48","M_dime.wav","None","731.216408749","223","361822.573823","354072.324942","354839.267738","355606.47271","356389.871052","357155.799154","357922.674551","358689.499554","362589.436854","363355.685565","364122.219948","350222.532147","351006.292217","351773.324054","352539.583586","353306.235454","363364.861405"
"Mixed","Female","done","48","F_romp.wav","None","740.202110275","223","361822.573823","354072.324942","354839.267738","355606.47271","356389.871052","357155.799154","357922.674551","358689.499554","362589.436854","363355.685565","364122.219948","364906.1244","351006.292217","351773.324054","352539.583586","353306.235454","364126.052104"
"Mixed","Female","done","48","F_done.wav","None","719.487446491","223","361822.573823","354072.324942","354839.267738","355606.47271","356389.871052","357155.799154","357922.674551","358689.499554","362589.436854","363355.685565","364122.219948","364906.1244","365672.783379","351773.324054","352539.583586","353306.235454","364916.640799"
"Mixed","Female","done","48","M_priest.wav","space","487.079498605","223","361822.573823","354072.324942","354839.267738","355606.47271","356389.871052","357155.799154","357922.674551","358689.499554","362589.436854","363355.685565","364122.219948","364906.1244","365672.783379","366439.218518","352539.583586","353306.235454","365682.728742"
