"Condition","Talker","Target","Trial","current_stimulus","response_response","response_time_response","subject_nr","time_Audio1","time_Audio10","time_Audio11","time_Audio12","time_Audio13","time_Audio14","time_Audio15","time_Audio16","time_Audio2","time_Audio3","time_Audio4","time_Audio5","time_Audio6","time_Audio7","time_Audio8","time_Audio9","time_response"
"Mixed","both","done","40","F_bluff.wav","NA","NA","320","109856.503627","NA","NA","NA","NA","NA","NA","NA","NA","NA","NA","NA","NA","NA","NA","NA","NA"
"Mixed","both","done","40","M_reek.wav","None","716.482010204","320","109856.503627","NA","NA","NA","NA","NA","NA","NA","110623.438385","NA","NA","NA","NA","NA","NA","NA","109871.81339"
"Mixed","both","done","40","M_knife.wav","None","720.180295408","320","109856.503627","NA","NA","NA","NA","NA","NA","NA","110623.438385","111372.561889","NA","NA","NA","NA","NA","NA","110632.827862"
"Mixed","both","done","40","F_done.wav","None","736.125710886","320","109856.503627","NA","NA","NA","NA","NA","NA","NA","110623.438385","111372.561889","112139.518289","NA","NA","NA","NA","NA","111381.62241"
"Mixed","both","done","40","F_gnash.wav","space","418.830028269","320","109856.503627","NA","NA","NA","NA","NA","NA","NA","110623.438385","111372.561889","112139.518289","112906.237246","NA","NA","NA","NA","112149.251563"
"Mixed","both","done","40","M_dime.wav","None","731.652028393","320","109856.503627","NA","NA","NA","NA","NA","NA","NA","110623.438385","111372.561889","112139.518289","112906.237246","113672.998869","NA","NA","NA","112915.421744"
"Mixed","both","done","40","F_bluff.wav","None","729.99333404","320","109856.503627","NA","NA","NA","NA","NA","NA","NA","110623.438385","111372.561889","112139.518289","112906.237246","113672.998869","114439.243252","NA","NA","113681.926138"
"Mixed","both","done","40","F_depth.wav","None","728.564043995","320","109856.503627","NA","NA","NA","NA","NA","NA","NA","110623.438385","111372.561889","112139.518289","112906.237246","113672.998869","114439.243252","115206.438949","NA","114448.154443"
"Mixed","both","done","40","M_cling.wav","None","726.166743785","320","109856.503627","NA","NA","NA","NA","NA","NA","NA","110623.438385","111372.561889","112139.518289","112906.237246","113672.998869","114439.243252","115206.438949","115973.777791","115215.484011"
"Mixed","both","done","40","M_done.wav","None","722.920773551","320","109856.503627","116740.241993","NA","NA","NA","NA","NA","NA","110623.438385","111372.561889","112139.518289","112906.237246","113672.998869","114439.243252","115206.438949","115973.777791","115983.448921"
"Mixed","both","done","40","F_lash.wav","space","473.783974536","320","109856.503627","116740.241993","117506.262227","NA","NA","NA","NA","NA","110623.438385","111372.561889","112139.518289","112906.237246","113672.998869","114439.243252","115206.438949","115973.777791","116750.143764"
"Mixed","both","done","40","M_done.wav","None","720.710211433","320","109856.503627","116740.241993","117506.262227","118255.950585","NA","NA","NA","NA","110623.438385","111372.561889","112139.518289","112906.237246","113672.998869","114439.243252","115206.438949","115973.777791","117515.138792"
"Mixed","both","done","40","F_priest.wav","space","614.900051616","320","109856.503627","116740.241993","117506.262227","118255.950585","119023.137625","NA","NA","NA","110623.438385","111372.561889","112139.518289","112906.237246","113672.998869","114439.243252","115206.438949","115973.777791","118264.964112"
"Mixed","both","done","40","F_done.wav","None","733.108526096","320","109856.503627","116740.241993","117506.262227","118255.950585","119023.137625","119789.278436","NA","NA","110623.438385","111372.561889","112139.518289","112906.237246","113672.998869","114439.243252","115206.438949","115973.777791","119032.243284"
"Mixed","both","done","40","M_romp.wav","space","490.86651532","320","109856.503627","116740.241993","117506.262227","118255.950585","119023.137625","119789.278436","120556.301306","NA","110623.438385","111372.561889","112139.518289","112906.237246","113672.998869","114439.243252","115206.438949","115973.777791","119797.934562"
"Mixed","both","done","40","M_jaw.wav","None","729.511957616","320","109856.503627","116740.241993","117506.262227","118255.950585","119023.137625","119789.278436","120556.301306","121323.309956","110623.438385","111372.561889","112139.518289","112906.237246","113672.998869","114439.243252","115206.438949","115973.777791","120565.354098"
"Mixed","both","cave","16","F_bluff.wav","None","726.813217159","320","124490.271982","116740.241993","117506.262227","118255.950585","119023.137625","119789.278436","120556.301306","121323.309956","110623.438385","111372.561889","112139.518289","112906.237246","113672.998869","114439.243252","115206.438949","115973.777791","121332.814444"
"Mixed","both","cave","16","F_park.wav","None","721.312164795","320","124490.271982","116740.241993","117506.262227","118255.950585","119023.137625","119789.278436","120556.301306","121323.309956","125256.738348","111372.561889","112139.518289","112906.237246","113672.998869","114439.243252","115206.438949","115973.777791","124499.803986"
"Mixed","both","cave","16","M_knife.wav","None","720.686714631","320","124490.271982","116740.241993","117506.262227","118255.950585","119023.137625","119789.278436","120556.301306","121323.309956","125256.738348","126023.199459","112139.518289","112906.237246","113672.998869","114439.243252","115206.438949","115973.777791","125266.437613"
"Mixed","both","cave","16","F_cave.wav","None","719.14457716","320","124490.271982","116740.241993","117506.262227","118255.950585","119023.137625","119789.278436","120556.301306","121323.309956","125256.738348","126023.199459","126772.799702","112906.237246","113672.998869","114439.243252","115206.438949","115973.777791","126032.844619"
"Mixed","both","cave","16","M_depth.wav","space","402.998078149","320","124490.271982","116740.241993","117506.262227","118255.950585","119023.137625","119789.278436","120556.301306","121323.309956","125256.738348","126023.199459","126772.799702","127539.634599","113672.998869","114439.243252","115206.438949","115973.777791","126781.602685"
"Mixed","both","cave","16","F_priest.wav","None","732.066933997","320","124490.271982","116740.241993","117506.262227","118255.950585","119023.137625","119789.278436","120556.301306","121323.309956","125256.738348","126023.199459","126772.799702","127539.634599","128306.26266","114439.243252","115206.438949","115973.777791","127549.237403"
"Mixed","both","cave","16","M_knife.wav","None","730.11081852","320","124490.271982","116740.241993","117506.262227","118255.950585","119023.137625","119789.278436","120556.301306","121323.309956","125256.738348","126023.199459","126772.799702","127539.634599","128306.26266","129072.689453","115206.438949","115973.777791","128315.735922"
"Mixed","both","cave","16","F_jolt.wav","None","729.072936811","320","124490.271982","116740.241993","117506.262227","118255.950585","119023.137625","119789.278436","120556.301306","121323.309956","125256.738348","126023.199459","126772.799702","127539.634599","128306.26266","129072.689453","129838.990722","115973.777791","129081.616103"
"Mixed","both","cave","16","M_jaw.wav","None","727.929937188","320","124490.271982","116740.241993","117506.262227","118255.950585","119023.137625","119789.278436","120556.301306","121323.309956","125256.738348","126023.199459","126772.799702","127539.634599","128306.26266","129072.689453","129838.990722","130606.17869","129847.674674"
"Mixed","both","cave","16","F_cave.wav","None","724.99653697","320","124490.271982","131373.290602","117506.262227","118255.950585","119023.137625","119789.278436","120556.301306","121323.309956","125256.738348","126023.199459","126772.799702","127539.634599","128306.26266","129072.689453","129838.990722","130606.17869","130615.717187"
"Mixed","both","cave","16","M_priest.wav","space","464.468389284","320","124490.271982","131373.290602","132139.753567","118255.950585","119023.137625","119789.278436","120556.301306","121323.309956","125256.738348","126023.199459","126772.799702","127539.634599","128306.26266","129072.689453","129838.990722","130606.17869","131383.002852"
"Mixed","both","cave","16","M_cave.wav","None","720.223888289","320","124490.271982","131373.290602","132139.753567","132889.778301","119023.137625","119789.278436","120556.301306","121323.309956","125256.738348","126023.199459","126772.799702","127539.634599","128306.26266","129072.689453","129838.990722","130606.17869","132149.933899"
"Mixed","both","cave","16","F_romp.wav","space","693.514737301","320","124490.271982","131373.290602","132139.753567","132889.778301","133655.487202","119789.278436","120556.301306","121323.309956","125256.738348","126023.199459","126772.799702","127539.634599","128306.26266","129072.689453","129838.990722","130606.17869","132898.897564"
"Mixed","both","cave","16","F_romp.wav","None","739.468141925","320","124490.271982","131373.290602","132139.753567","132889.778301","133655.487202","134422.937963","120556.301306","121323.309956","125256.738348","126023.199459","126772.799702","127539.634599","128306.26266","129072.689453","129838.990722","130606.17869","133660.287985"
"Mixed","both","cave","16","M_cave.wav","None","732.228011359","320","124490.271982","131373.290602","132139.753567","132889.778301","133655.487202","134422.937963","135189.348988","121323.309956","125256.738348","126023.199459","126772.799702","127539.634599","128306.26266","129072.689453","129838.990722","130606.17869","134432.531492"
"Mixed","both","cave","16","M_lash.wav","space","568.52308521","320","124490.271982","131373.290602","132139.753567","132889.778301","133655.487202","134422.937963","135189.348988","135955.896975","125256.738348","126023.199459","126772.799702","127539.634599","128306.26266","129072.689453","129838.990722","130606.17869","135198.857495"
"Mixed","both","done","38","M_bluff.wav","None","727.942922153","320","139089.453549","131373.290602","132139.753567","132889.778301","133655.487202","134422.937963","135189.348988","135955.896975","125256.738348","126023.199459","126772.799702","127539.634599","128306.26266","129072.689453","129838.990722","130606.17869","135965.571197"
"Mixed","both","done","38","M_park.wav","None","719.833716284","320","139089.453549","131373.290602","132139.753567","132889.778301","133655.487202","134422.937963","135189.348988","135955.896975","139839.258154","126023.199459","126772.799702","127539.634599","128306.26266","129072.689453","129838.990722","130606.17869","139099.938413"
"Mixed","both","done","38","F_done.wav","None","735.478000715","320","139089.453549","131373.290602","132139.753567","132889.778301","133655.487202","134422.937963","135189.348988","135955.896975","139839.258154","140605.796556","126772.799702","127539.634599","128306.26266","129072.689453","129838.990722","130606.17869","139848.74842"
"Mixed","both","done","38","F_cling.wav","space","608.129549772","320","139089.453549","131373.290602","132139.753567","132889.778301","133655.487202","134422.937963","135189.348988","135955.896975","139839.258154","140605.796556","141372.791293","127539.634599","128306.26266","129072.689453","129838.990722","130606.17869","140615.087717"
"Mixed","both","done","38","M_priest.wav","None","731.182400137","320","139089.453549","131373.290602","132139.753567","132889.778301","133655.487202","134422.937963","135189.348988","135955.896975","139839.258154","140605.796556","141372.791293","142139.230452","128306.26266","129072.689453","129838.990722","130606.17869","141382.605878"
"Mixed","both","done","38","F_reek.wav","None","729.646754917","320","139089.453549","131373.290602","132139.753567","132889.778301","133655.487202","134422.937963","135189.348988","135955.896975","139839.258154","140605.796556","141372.791293","142139.230452","142905.6254","129072.689453","129838.990722","130606.17869","142148.674034"
"Mixed","both","done","38","M_done.wav","None","728.404512629","320","139089.453549","131373.290602","132139.753567","132889.778301","133655.487202","134422.937963","135189.348988","135955.896975","139839.258154","140605.796556","141372.791293","142139.230452","142905.6254","143672.42165","129838.990722","130606.17869","142914.926454"
"Mixed","both","done","38","M_greet.wav","space","589.507653844","320","139089.453549","131373.290602","132139.753567","132889.778301","133655.487202","134422.937963","135189.348988","135955.896975","139839.258154","140605.796556","141372.791293","142139.230452","142905.6254","143672.42165","144438.643772","130606.17869","143681.622534"
"Mixed","both","done","38","F_bluff.wav","None","725.801923778","320","139089.453549","131373.290602","132139.753567","132889.778301","133655.487202","134422.937963","135189.348988","135955.896975","139839.258154","140605.796556","141372.791293","142139.230452","142905.6254","143672.42165","144438.643772","145206.106282","144447.744485"
"Mixed","both","done","38","M_done.wav","None","721.922155935","320","139089.453549","145972.976115","132139.753567","132889.778301","133655.487202","134422.937963","135189.348988","135955.896975","139839.258154","140605.796556","141372.791293","142139.230452","142905.6254","143672.42165","144438.643772","145206.106282","145215.988266"
"Mixed","both","done","38","F_gnash.wav","space","616.227934603","320","139089.453549","145972.976115","146722.397659","132889.778301","133655.487202","134422.937963","135189.348988","135955.896975","139839.258154","140605.796556","141372.791293","142139.230452","142905.6254","143672.42165","144438.643772","145206.106282","145982.81667"
"Mixed","both","done","38","F_done.wav","None","736.446319614","320","139089.453549","145972.976115","146722.397659","147488.504461","133655.487202","134422.937963","135189.348988","135955.896975","139839.258154","140605.796556","141372.791293","142139.230452","142905.6254","143672.42165","144438.643772","145206.106282","146731.034308"
"Mixed","both","done","38","F_priest.wav","space","453.63076264","320","139089.453549","145972.976115","146722.397659","147488.504461","148255.533515","134422.937963","135189.348988","135955.896975","139839.258154","140605.796556","141372.791293","142139.230452","142905.6254","143672.42165","144438.643772","145206.106282","147497.38288"
"Mixed","both","done","38","M_reek.wav","None","732.126603834","320","139089.453549","145972.976115","146722.397659","147488.504461","148255.533515","149022.336258","135189.348988","135955.896975","139839.258154","140605.796556","141372.791293","142139.230452","142905.6254","143672.42165","144438.643772","145206.106282","148264.598055"
"Mixed","both","done","38","F_cad.wav","None","729.478876572","320","139089.453549","145972.976115","146722.397659","147488.504461","148255.533515","149022.336258","149788.976686","135955.896975","139839.258154","140605.796556","141372.791293","142139.230452","142905.6254","143672.42165","144438.643772","145206.106282","149031.724188"
"Mixed","both","done","38","M_dime.wav","None","727.873050142","320","139089.453549","145972.976115","146722.397659","147488.504461","148255.533515","149022.336258","149788.976686","150555.061537","139839.258154","140605.796556","141372.791293","142139.230452","142905.6254","143672.42165","144438.643772","145206.106282","149798.393988"
"Mixed","both","done","37","F_jolt.wav","space","314.944448415","320","153689.201205","145972.976115","146722.397659","147488.504461","148255.533515","149022.336258","149788.976686","150555.061537","139839.258154","140605.796556","141372.791293","142139.230452","142905.6254","143672.42165","144438.643772","145206.106282","150563.960053"
"Mixed","both","done","37","M_done.wav","None","721.096055117","320","153689.201205","145972.976115","146722.397659","147488.504461","148255.533515","149022.336258","149788.976686","150555.061537","154455.797731","140605.796556","141372.791293","142139.230452","142905.6254","143672.42165","144438.643772","145206.106282","153698.905416"
"Mixed","both","done","37","M_greet.wav","space","434.670017567","320","153689.201205","145972.976115","146722.397659","147488.504461","148255.533515","149022.336258","149788.976686","150555.061537","154455.797731","155205.183721","141372.791293","142139.230452","142905.6254","143672.42165","144438.643772","145206.106282","154460.11992"
"Mixed","both","done","37","M_reek.wav","None","735.051656142","320","153689.201205","145972.976115","146722.397659","147488.504461","148255.533515","149022.336258","149788.976686","150555.061537","154455.797731","155205.183721","155972.335206","142139.230452","142905.6254","143672.42165","144438.643772","145206.106282","155214.495287"
"Mixed","both","done","37","F_done.wav","None","732.594067696","320","153689.201205","145972.976115","146722.397659","147488.504461","148255.533515","149022.336258","149788.976686","150555.061537","154455.797731","155205.183721","155972.335206","156738.167156","142905.6254","143672.42165","144438.643772","145206.106282","155982.134951"
"Mixed","both","done","37","M_jaw.wav","space","451.901577879","320","153689.201205","145972.976115","146722.397659","147488.504461","148255.533515","149022.336258","149788.976686","150555.061537","154455.797731","155205.183721","155972.335206","156738.167156","157505.248152","143672.42165","144438.643772","145206.106282","156746.8542"
"Mixed","both","done","37","F_cad.wav","None","729.811542667","320","153689.201205","145972.976115","146722.397659","147488.504461","148255.533515","149022.336258","149788.976686","150555.061537","154455.797731","155205.183721","155972.335206","156738.167156","157505.248152","158272.2871","144438.643772","145206.106282","157514.67813"
"Mixed","both","done","37","F_dime.wav","None","727.43155621","320","153689.201205","145972.976115","146722.397659","147488.504461","148255.533515","149022.336258","149788.976686","150555.061537","154455.797731","155205.183721","155972.335206","156738.167156","157505.248152","158272.2871","159038.507058","145206.106282","158281.598047"
"Mixed","both","done","37","M_park.wav","None","726.200134028","320","153689.201205","145972.976115","146722.397659","147488.504461","148255.533515","149022.336258","149788.976686","150555.061537","154455.797731","155205.183721","155972.335206","156738.167156","157505.248152","158272.2871","159038.507058","159805.273937","159047.878603"
"Mixed","both","done","37","F_knife.wav","None","723.679166287","320","153689.201205","160571.699183","146722.397659","147488.504461","148255.533515","149022.336258","149788.976686","150555.061537","154455.797731","155205.183721","155972.335206","156738.167156","157505.248152","158272.2871","159038.507058","159805.273937","159814.96609"
"Mixed","both","done","37","F_romp.wav","None","723.081232514","320","153689.201205","160571.699183","161338.997215","147488.504461","148255.533515","149022.336258","149788.976686","150555.061537","154455.797731","155205.183721","155972.335206","156738.167156","157505.248152","158272.2871","159038.507058","159805.273937","160580.669426"
"Mixed","both","done","37","F_done.wav","None","719.653161243","320","153689.201205","160571.699183","161338.997215","162088.200795","148255.533515","149022.336258","149788.976686","150555.061537","154455.797731","155205.183721","155972.335206","156738.167156","157505.248152","158272.2871","159038.507058","159805.273937","161349.104583"
"Mixed","both","done","37","M_priest.wav","space","477.29428485","320","153689.201205","160571.699183","161338.997215","162088.200795","162854.649229","149022.336258","149788.976686","150555.061537","154455.797731","155205.183721","155972.335206","156738.167156","157505.248152","158272.2871","159038.507058","159805.273937","162097.272754"
"Mixed","both","done","37","M_done.wav","None","734.75856334","320","153689.201205","160571.699183","161338.997215","162088.200795","162854.649229","163621.9587","149788.976686","150555.061537","154455.797731","155205.183721","155972.335206","156738.167156","157505.248152","158272.2871","159038.507058","159805.273937","162863.764472"
"Mixed","both","done","37","M_cad.wav","space","567.179434467","320","153689.201205","160571.699183","161338.997215","162088.200795","162854.649229","163621.9587","164388.545642","150555.061537","154455.797731","155205.183721","155972.335206","156738.167156","157505.248152","158272.2871","159038.507058","159805.273937","163631.348177"
"Mixed","both","done","37","F_cad.wav","None","729.413641617","320","153689.201205","160571.699183","161338.997215","162088.200795","162854.649229","163621.9587","164388.545642","165155.174631","154455.797731","155205.183721","155972.335206","156738.167156","157505.248152","158272.2871","159038.507058","159805.273937","164397.981185"
"Mixed","both","done","44","F_priest.wav","None","727.427227423","320","168288.708018","160571.699183","161338.997215","162088.200795","162854.649229","163621.9587","164388.545642","165155.174631","154455.797731","155205.183721","155972.335206","156738.167156","157505.248152","158272.2871","159038.507058","159805.273937","165164.648511"
"Mixed","both","done","44","F_cling.wav","None","720.964348875","320","168288.708018","160571.699183","161338.997215","162088.200795","162854.649229","163621.9587","164388.545642","165155.174631","169054.590363","155205.183721","155972.335206","156738.167156","157505.248152","158272.2871","159038.507058","159805.273937","168298.375747"
"Mixed","both","done","44","M_depth.wav","None","720.961566549","320","168288.708018","160571.699183","161338.997215","162088.200795","162854.649229","163621.9587","164388.545642","165155.174631","169054.590363","169804.840481","155972.335206","156738.167156","157505.248152","158272.2871","159038.507058","159805.273937","169063.540201"
"Mixed","both","done","44","F_done.wav","None","735.070515424","320","168288.708018","160571.699183","161338.997215","162088.200795","162854.649229","163621.9587","164388.545642","165155.174631","169054.590363","169804.840481","170571.672903","156738.167156","157505.248152","158272.2871","159038.507058","159805.273937","169814.416387"
"Mixed","both","done","44","F_depth.wav","space","449.384319596","320","168288.708018","160571.699183","161338.997215","162088.200795","162854.649229","163621.9587","164388.545642","165155.174631","169054.590363","169804.840481","170571.672903","171337.690047","157505.248152","158272.2871","159038.507058","159805.273937","170580.928819"
"Mixed","both","done","44","M_done.wav","None","733.093067538","320","168288.708018","160571.699183","161338.997215","162088.200795","162854.649229","163621.9587","164388.545642","165155.174631","169054.590363","169804.840481","170571.672903","171337.690047","172104.764858","158272.2871","159038.507058","159805.273937","171346.373689"
"Mixed","both","done","44","M_romp.wav","space","667.963426095","320","168288.708018","160571.699183","161338.997215","162088.200795","162854.649229","163621.9587","164388.545642","165155.174631","169054.590363","169804.840481","170571.672903","171337.690047","172104.764858","172871.949734","159038.507058","159805.273937","172114.284186"
"Mixed","both","done","44","F_done.wav","None","727.677036542","320","168288.708018","160571.699183","161338.997215","162088.200795","162854.649229","163621.9587","164388.545642","165155.174631","169054.590363","169804.840481","170571.672903","171337.690047","172104.764858","172871.949734","173637.670693","159805.273937","172881.577889"
"Mixed","both","done","44","M_gnash.wav","space","624.905703589","320","168288.708018","160571.699183","161338.997215","162088.200795","162854.649229","163621.9587","164388.545642","165155.174631","169054.590363","169804.840481","170571.672903","171337.690047","172104.764858","172871.949734","173637.670693","174404.868553","173646.279825"
"Mixed","both","done","44","M_gnash.wav","None","724.605128635","320","168288.708018","175172.083419","161338.997215","162088.200795","162854.649229","163621.9587","164388.545642","165155.174631","169054.590363","169804.840481","170571.672903","171337.690047","172104.764858","172871.949734","173637.670693","174404.868553","174414.210418"
"Mixed","both","done","44","F_romp.wav","None","722.152487375","320","168288.708018","175172.083419","175938.481458","162088.200795","162854.649229","163621.9587","164388.545642","165155.174631","169054.590363","169804.840481","170571.672903","171337.690047","172104.764858","172871.949734","173637.670693","174404.868553","175181.810508"
"Mixed","both","done","44","M_knife.wav","None","721.100692637","320","168288.708018","175172.083419","175938.481458","176704.431511","162854.649229","163621.9587","164388.545642","165155.174631","169054.590363","169804.840481","170571.672903","171337.690047","172104.764858","172871.949734","173637.670693","174404.868553","175948.079315"
"Mixed","both","done","44","M_done.wav","None","721.233017277","320","168288.708018","175172.083419","175938.481458","176704.431511","177454.403686","163621.9587","164388.545642","165155.174631","169054.590363","169804.840481","170571.672903","171337.690047","172104.764858","172871.949734","173637.670693","174404.868553","176713.319515"
"Mixed","both","done","44","M_reek.wav","space","598.393493798","320","168288.708018","175172.083419","175938.481458","176704.431511","177454.403686","178221.708829","164388.545642","165155.174631","169054.590363","169804.840481","170571.672903","171337.690047","172104.764858","172871.949734","173637.670693","174404.868553","177463.707214"
"Mixed","both","done","44","F_gnash.wav","None","732.137115207","320","168288.708018","175172.083419","175938.481458","176704.431511","177454.403686","178221.708829","178987.98351","165155.174631","169054.590363","169804.840481","170571.672903","171337.690047","172104.764858","172871.949734","173637.670693","174404.868553","178231.637807"
"Mixed","both","done","44","F_cad.wav","None","731.674907263","320","168288.708018","175172.083419","175938.481458","176704.431511","177454.403686","178221.708829","178987.98351","179754.606934","169054.590363","169804.840481","170571.672903","171337.690047","172104.764858","172871.949734","173637.670693","174404.868553","178997.539629"
"Mixed","both","cave","18","F_priest.wav","None","729.994880036","320","182888.187933","175172.083419","175938.481458","176704.431511","177454.403686","178221.708829","178987.98351","179754.606934","169054.590363","169804.840481","170571.672903","171337.690047","172104.764858","172871.949734","173637.670693","174404.868553","179764.220559"
"Mixed","both","cave","18","F_cling.wav","None","721.069157589","320","182888.187933","175172.083419","175938.481458","176704.431511","177454.403686","178221.708829","178987.98351","179754.606934","183654.376665","169804.840481","170571.672903","171337.690047","172104.764858","172871.949734","173637.670693","174404.868553","182898.303958"
"Mixed","both","cave","18","F_lash.wav","None","721.326695755","320","182888.187933","175172.083419","175938.481458","176704.431511","177454.403686","178221.708829","178987.98351","179754.606934","183654.376665","184404.463232","170571.672903","171337.690047","172104.764858","172871.949734","173637.670693","174404.868553","183663.132035"
"Mixed","both","cave","18","F_gnash.wav","None","736.695819534","320","182888.187933","175172.083419","175938.481458","176704.431511","177454.403686","178221.708829","178987.98351","179754.606934","183654.376665","184404.463232","185171.351924","171337.690047","172104.764858","172871.949734","173637.670693","174404.868553","184413.08535"
"Mixed","both","cave","18","F_park.wav","None","733.653591946","320","182888.187933","175172.083419","175938.481458","176704.431511","177454.403686","178221.708829","178987.98351","179754.606934","183654.376665","184404.463232","185171.351924","185937.820454","172104.764858","172871.949734","173637.670693","174404.868553","185180.665036"
"Mixed","both","cave","18","M_dime.wav","None","731.910803355","320","182888.187933","175172.083419","175938.481458","176704.431511","177454.403686","178221.708829","178987.98351","179754.606934","183654.376665","184404.463232","185171.351924","185937.820454","186703.967139","172871.949734","173637.670693","174404.868553","185947.49684"
"Mixed","both","cave","18","M_gnash.wav","None","737.082899082","320","182888.187933","175172.083419","175938.481458","176704.431511","177454.403686","178221.708829","178987.98351","179754.606934","183654.376665","184404.463232","185171.351924","185937.820454","186703.967139","187471.233326","173637.670693","174404.868553","186707.641"
"Mixed","both","cave","18","M_jaw.wav","None","729.203715455","320","182888.187933","175172.083419","175938.481458","176704.431511","177454.403686","178221.708829","178987.98351","179754.606934","183654.376665","184404.463232","185171.351924","185937.820454","186703.967139","187471.233326","188237.796772","174404.868553","187480.463581"
"Mixed","both","cave","18","M_cave.wav","None","728.077720385","320","182888.187933","175172.083419","175938.481458","176704.431511","177454.403686","178221.708829","178987.98351","179754.606934","183654.376665","184404.463232","185171.351924","185937.820454","186703.967139","187471.233326","188237.796772","189004.422051","188247.121014"
"Mixed","both","cave","18","M_cling.wav","space","671.836701687","320","182888.187933","189771.014558","175938.481458","176704.431511","177454.403686","178221.708829","178987.98351","179754.606934","183654.376665","184404.463232","185171.351924","185937.820454","186703.967139","187471.233326","188237.796772","189004.422051","189013.924375"
"Mixed","both","cave","18","F_cave.wav","None","725.11278512","320","182888.187933","189771.014558","190537.35231","176704.431511","177454.403686","178221.708829","178987.98351","179754.606934","183654.376665","184404.463232","185171.351924","185937.820454","186703.967139","187471.233326","188237.796772","189004.422051","189779.871645"
"Mixed","both","cave","18","M_romp.wav","space","667.494725436","320","182888.187933","189771.014558","190537.35231","191304.118261","177454.403686","178221.708829","178987.98351","179754.606934","183654.376665","184404.463232","185171.351924","185937.820454","186703.967139","187471.233326","188237.796772","189004.422051","190546.207851"
"Mixed","both","cave","18","F_cave.wav","None","722.158361692","320","182888.187933","189771.014558","190537.35231","191304.118261","192071.374864","178221.708829","178987.98351","179754.606934","183654.376665","184404.463232","185171.351924","185937.820454","186703.967139","187471.233326","188237.796772","189004.422051","191312.910731"
"Mixed","both","cave","18","M_park.wav","None","718.979790341","320","182888.187933","189771.014558","190537.35231","191304.118261","192071.374864","192821.292316","178987.98351","179754.606934","183654.376665","184404.463232","185171.351924","185937.820454","186703.967139","187471.233326","188237.796772","189004.422051","192081.241698"
"Mixed","both","cave","18","M_cave.wav","space","0.0636889599264","320","182888.187933","189771.014558","190537.35231","191304.118261","192071.374864","192821.292316","193587.047592","179754.606934","183654.376665","184404.463232","185171.351924","185937.820454","186703.967139","187471.233326","188237.796772","189004.422051","192830.614703"
"Mixed","both","cave","18","F_cad.wav","space","593.843446113","320","182888.187933","189771.014558","190537.35231","191304.118261","192071.374864","192821.292316","193587.047592","194353.760676","183654.376665","184404.463232","185171.351924","185937.820454","186703.967139","187471.233326","188237.796772","189004.422051","193595.762461"
"Mixed","both","tile","36","M_jolt.wav","None","732.01190168","320","197487.806356","189771.014558","190537.35231","191304.118261","192071.374864","192821.292316","193587.047592","194353.760676","183654.376665","184404.463232","185171.351924","185937.820454","186703.967139","187471.233326","188237.796772","189004.422051","194362.659191"
"Mixed","both","tile","36","F_greet.wav","None","720.909316558","320","197487.806356","189771.014558","190537.35231","191304.118261","192071.374864","192821.292316","193587.047592","194353.760676","198254.307658","184404.463232","185171.351924","185937.820454","186703.967139","187471.233326","188237.796772","189004.422051","197497.444405"
"Mixed","both","tile","36","M_depth.wav","None","720.032821409","320","197487.806356","189771.014558","190537.35231","191304.118261","192071.374864","192821.292316","193587.047592","194353.760676","198254.307658","199021.535818","185171.351924","185937.820454","186703.967139","187471.233326","188237.796772","189004.422051","198264.167073"
"Mixed","both","tile","36","M_tile.wav","None","718.765226658","320","197487.806356","189771.014558","190537.35231","191304.118261","192071.374864","192821.292316","193587.047592","194353.760676","198254.307658","199021.535818","199770.613256","185937.820454","186703.967139","187471.233326","188237.796772","189004.422051","199031.398633"
"Mixed","both","tile","36","M_romp.wav","space","513.874598313","320","197487.806356","189771.014558","190537.35231","191304.118261","192071.374864","192821.292316","193587.047592","194353.760676","198254.307658","199021.535818","199770.613256","200537.346126","186703.967139","187471.233326","188237.796772","189004.422051","199780.53636"
"Mixed","both","tile","36","M_romp.wav","None","733.37317491","320","197487.806356","189771.014558","190537.35231","191304.118261","192071.374864","192821.292316","193587.047592","194353.760676","198254.307658","199021.535818","199770.613256","200537.346126","201303.912045","187471.233326","188237.796772","189004.422051","200546.811659"
"Mixed","both","tile","36","M_tile.wav","None","732.106816955","320","197487.806356","189771.014558","190537.35231","191304.118261","192071.374864","192821.292316","193587.047592","194353.760676","198254.307658","199021.535818","199770.613256","200537.346126","201303.912045","202070.833508","188237.796772","189004.422051","201312.912587"
"Mixed","both","tile","36","F_romp.wav","space","469.120153226","320","197487.806356","189771.014558","190537.35231","191304.118261","192071.374864","192821.292316","193587.047592","194353.760676","198254.307658","199021.535818","199770.613256","200537.346126","201303.912045","202070.833508","202837.217326","189004.422051","202080.257612"
"Mixed","both","tile","36","F_tile.wav","None","727.963018231","320","197487.806356","189771.014558","190537.35231","191304.118261","192071.374864","192821.292316","193587.047592","194353.760676","198254.307658","199021.535818","199770.613256","200537.346126","201303.912045","202070.833508","202837.217326","203603.865175","202846.883819"
"Mixed","both","tile","36","M_knife.wav","space","576.447098516","320","197487.806356","204370.702853","190537.35231","191304.118261","192071.374864","192821.292316","193587.047592","194353.760676","198254.307658","199021.535818","199770.613256","200537.346126","201303.912045","202070.833508","202837.217326","203603.865175","203612.892305"
"Mixed","both","tile","36","F_gnash.wav","None","724.982934073","320","197487.806356","204370.702853","205137.606694","191304.118261","192071.374864","192821.292316","193587.047592","194353.760676","198254.307658","199021.535818","199770.613256","200537.346126","201303.912045","202070.833508","202837.217326","203603.865175","204379.798928"
"Mixed","both","tile","36","F_bluff.wav","None","722.8165837","320","197487.806356","204370.702853","205137.606694","205904.175396","192071.374864","192821.292316","193587.047592","194353.760676","198254.307658","199021.535818","199770.613256","200537.346126","201303.912045","202070.833508","202837.217326","203603.865175","205147.386961"
"Mixed","both","tile","36","F_jaw.wav","None","721.949363127","320","197487.806356","204370.702853","205137.606694","205904.175396","206671.432926","192821.292316","193587.047592","194353.760676","198254.307658","199021.535818","199770.613256","200537.346126","201303.912045","202070.833508","202837.217326","203603.865175","205913.755011"
"Mixed","both","tile","36","M_depth.wav","None","719.754878432","320","197487.806356","204370.702853","205137.606694","205904.175396","206671.432926","207437.634334","193587.047592","194353.760676","198254.307658","199021.535818","199770.613256","200537.346126","201303.912045","202070.833508","202837.217326","203603.865175","206681.450944"
"Mixed","both","tile","36","F_tile.wav","None","718.686079141","320","197487.806356","204370.702853","205137.606694","205904.175396","206671.432926","207437.634334","208187.005174","194353.760676","198254.307658","199021.535818","199770.613256","200537.346126","201303.912045","202070.833508","202837.217326","203603.865175","207447.5528"
"Mixed","both","tile","36","F_cling.wav","space","528.554892633","320","197487.806356","204370.702853","205137.606694","205904.175396","206671.432926","207437.634334","208187.005174","208953.266561","198254.307658","199021.535818","199770.613256","200537.346126","201303.912045","202070.833508","202837.217326","203603.865175","208196.62962"
"Mixed","both","ball","7","M_cling.wav","None","734.881921671","320","212087.533916","204370.702853","205137.606694","205904.175396","206671.432926","207437.634334","208187.005174","208953.266561","198254.307658","199021.535818","199770.613256","200537.346126","201303.912045","202070.833508","202837.217326","203603.865175","208962.135396"
"Mixed","both","ball","7","F_cling.wav","None","720.82398599","320","212087.533916","204370.702853","205137.606694","205904.175396","206671.432926","207437.634334","208187.005174","208953.266561","212853.276207","199021.535818","199770.613256","200537.346126","201303.912045","202070.833508","202837.217326","203603.865175","212097.345409"
"Mixed","both","ball","7","F_cad.wav","None","721.480043605","320","212087.533916","204370.702853","205137.606694","205904.175396","206671.432926","207437.634334","208187.005174","208953.266561","212853.276207","213620.13089","199770.613256","200537.346126","201303.912045","202070.833508","202837.217326","203603.865175","212862.163902"
"Mixed","both","ball","7","M_ball.wav","None","720.022618771","320","212087.533916","204370.702853","205137.606694","205904.175396","206671.432926","207437.634334","208187.005174","208953.266561","212853.276207","213620.13089","214370.471594","200537.346126","201303.912045","202070.833508","202837.217326","203603.865175","213629.115664"
"Mixed","both","ball","7","M_priest.wav","space","401.485620998","320","212087.533916","204370.702853","205137.606694","205904.175396","206671.432926","207437.634334","208187.005174","208953.266561","212853.276207","213620.13089","214370.471594","215136.889421","201303.912045","202070.833508","202837.217326","203603.865175","214379.500271"
"Mixed","both","ball","7","M_reek.wav","None","733.021340333","320","212087.533916","204370.702853","205137.606694","205904.175396","206671.432926","207437.634334","208187.005174","208953.266561","212853.276207","213620.13089","214370.471594","215136.889421","215903.407109","202070.833508","202837.217326","203603.865175","215146.416169"
"Mixed","both","ball","7","F_ball.wav","None","734.611089341","320","212087.533916","204370.702853","205137.606694","205904.175396","206671.432926","207437.634334","208187.005174","208953.266561","212853.276207","213620.13089","214370.471594","215136.889421","215903.407109","216670.475738","202837.217326","203603.865175","215912.164644"
"Mixed","both","ball","7","M_lash.wav","None","732.57675441","320","212087.533916","204370.702853","205137.606694","205904.175396","206671.432926","207437.634334","208187.005174","208953.266561","212853.276207","213620.13089","214370.471594","215136.889421","215903.407109","216670.475738","217436.844406","203603.865175","216679.576759"
"Mixed","both","ball","7","F_ball.wav","space","0.0340086407959","320","212087.533916","204370.702853","205137.606694","205904.175396","206671.432926","207437.634334","208187.005174","208953.266561","212853.276207","213620.13089","214370.471594","215136.889421","215903.407109","216670.475738","217436.844406","218203.38961","217440.74767"
"Mixed","both","ball","7","F_gnash.wav","space","536.430366337","320","212087.533916","218970.576341","205137.606694","205904.175396","206671.432926","207437.634334","208187.005174","208953.266561","212853.276207","213620.13089","214370.471594","215136.889421","215903.407109","216670.475738","217436.844406","218203.38961","218212.453222"
"Mixed","both","ball","7","M_gnash.wav","None","726.417171303","320","212087.533916","218970.576341","219736.287406","205904.175396","206671.432926","207437.634334","208187.005174","208953.266561","212853.276207","213620.13089","214370.471594","215136.889421","215903.407109","216670.475738","217436.844406","218203.38961","218980.023324"
"Mixed","both","ball","7","M_ball.wav","None","726.86361149","320","212087.533916","218970.576341","219736.287406","220503.682517","206671.432926","207437.634334","208187.005174","208953.266561","212853.276207","213620.13089","214370.471594","215136.889421","215903.407109","216670.475738","217436.844406","218203.38961","219745.008768"
"Mixed","both","ball","7","M_romp.wav","space","403.644242324","320","212087.533916","218970.576341","219736.287406","220503.682517","221270.565953","207437.634334","208187.005174","208953.266561","212853.276207","213620.13089","214370.471594","215136.889421","215903.407109","216670.475738","217436.844406","218203.38961","220513.164745"
"Mixed","both","ball","7","F_dime.wav","None","721.075959038","320","212087.533916","218970.576341","219736.287406","220503.682517","221270.565953","222037.332832","208187.005174","208953.266561","212853.276207","213620.13089","214370.471594","215136.889421","215903.407109","216670.475738","217436.844406","218203.38961","221280.355495"
"Mixed","both","ball","7","F_priest.wav","None","719.856594689","320","212087.533916","218970.576341","219736.287406","220503.682517","221270.565953","222037.332832","222803.642758","208953.266561","212853.276207","213620.13089","214370.471594","215136.889421","215903.407109","216670.475738","217436.844406","218203.38961","222047.267993"
"Mixed","both","ball","7","F_lash.wav","None","719.193425961","320","212087.533916","218970.576341","219736.287406","220503.682517","221270.565953","222037.332832","222803.642758","223552.877564","212853.276207","213620.13089","214370.471594","215136.889421","215903.407109","216670.475738","217436.844406","218203.38961","222813.258547"
"Mixed","both","tile","31","M_greet.wav","None","735.54354487","320","226687.121422","218970.576341","219736.287406","220503.682517","221270.565953","222037.332832","222803.642758","223552.877564","212853.276207","213620.13089","214370.471594","215136.889421","215903.407109","216670.475738","217436.844406","218203.38961","223562.36041"
"Mixed","both","tile","31","M_tile.wav","None","720.683004707","320","226687.121422","218970.576341","219736.287406","220503.682517","221270.565953","222037.332832","222803.642758","223552.877564","227453.28542","213620.13089","214370.471594","215136.889421","215903.407109","216670.475738","217436.844406","218203.38961","226697.015154"
"Mixed","both","tile","31","F_bluff.wav","space","646.158631425","320","226687.121422","218970.576341","219736.287406","220503.682517","221270.565953","222037.332832","222803.642758","223552.877564","227453.28542","228203.127744","214370.471594","215136.889421","215903.407109","216670.475738","217436.844406","218203.38961","227463.420304"
"Mixed","both","tile","31","M_cling.wav","None","735.374119598","320","226687.121422","218970.576341","219736.287406","220503.682517","221270.565953","222037.332832","222803.642758","223552.877564","227453.28542","228203.127744","228969.741275","215136.889421","215903.407109","216670.475738","217436.844406","218203.38961","228212.766102"
"Mixed","both","tile","31","F_priest.wav","None","734.231738374","320","226687.121422","218970.576341","219736.287406","220503.682517","221270.565953","222037.332832","222803.642758","223552.877564","227453.28542","228203.127744","228969.741275","229736.49455","215903.407109","216670.475738","217436.844406","218203.38961","228979.151466"
"Mixed","both","tile","31","M_tile.wav","None","733.134805225","320","226687.121422","218970.576341","219736.287406","220503.682517","221270.565953","222037.332832","222803.642758","223552.877564","227453.28542","228203.127744","228969.741275","229736.49455","230502.951641","216670.475738","217436.844406","218203.38961","229745.989454"
"Mixed","both","tile","31","M_park.wav","space","389.489845838","320","226687.121422","218970.576341","219736.287406","220503.682517","221270.565953","222037.332832","222803.642758","223552.877564","227453.28542","228203.127744","228969.741275","229736.49455","230502.951641","231270.012849","217436.844406","218203.38961","230512.001031"
"Mixed","both","tile","31","F_tile.wav","None","730.135552585","320","226687.121422","218970.576341","219736.287406","220503.682517","221270.565953","222037.332832","222803.642758","223552.877564","227453.28542","228203.127744","228969.741275","229736.49455","230502.951641","231270.012849","232036.486635","218203.38961","231278.992367"
"Mixed","both","tile","31","F_gnash.wav","None","728.963799775","320","226687.121422","218970.576341","219736.287406","220503.682517","221270.565953","222037.332832","222803.642758","223552.877564","227453.28542","228203.127744","228969.741275","229736.49455","230502.951641","231270.012849","232036.486635","232803.041424","232046.043991"
"Mixed","both","tile","31","M_knife.wav","space","0.0840942375362","320","226687.121422","233569.508717","219736.287406","220503.682517","221270.565953","222037.332832","222803.642758","223552.877564","227453.28542","228203.127744","228969.741275","229736.49455","230502.951641","231270.012849","232036.486635","232803.041424","232812.685965"
"Mixed","both","tile","31","F_jaw.wav","None","727.456907742","320","226687.121422","233569.508717","234335.844304","220503.682517","221270.565953","222037.332832","222803.642758","223552.877564","227453.28542","228203.127744","228969.741275","229736.49455","230502.951641","231270.012849","232036.486635","232803.041424","233578.309226"
"Mixed","both","tile","31","F_park.wav","None","726.923281327","320","226687.121422","233569.508717","234335.844304","235102.941685","221270.565953","222037.332832","222803.642758","223552.877564","227453.28542","228203.127744","228969.741275","229736.49455","230502.951641","231270.012849","232036.486635","232803.041424","234344.518982"
"Mixed","both","tile","31","M_bluff.wav","None","724.383453839","320","226687.121422","233569.508717","234335.844304","235102.941685","235870.45459","222037.332832","222803.642758","223552.877564","227453.28542","228203.127744","228969.741275","229736.49455","230502.951641","231270.012849","232036.486635","232803.041424","235112.617144"
"Mixed","both","tile","31","M_gnash.wav","None","721.557026729","320","226687.121422","233569.508717","234335.844304","235102.941685","235870.45459","236636.746585","222803.642758","223552.877564","227453.28542","228203.127744","228969.741275","229736.49455","230502.951641","231270.012849","232036.486635","232803.041424","235880.63214"
"Mixed","both","tile","31","F_tile.wav","None","728.372667916","320","226687.121422","233569.508717","234335.844304","235102.941685","235870.45459","236636.746585","237403.408964","223552.877564","227453.28542","228203.127744","228969.741275","229736.49455","230502.951641","231270.012849","232036.486635","232803.041424","236640.701481"
"Mixed","both","tile","31","F_park.wav","space","478.966891766","320","226687.121422","233569.508717","234335.844304","235102.941685","235870.45459","236636.746585","237403.408964","238169.783198","227453.28542","228203.127744","228969.741275","229736.49455","230502.951641","231270.012849","232036.486635","232803.041424","237413.351854"
"Mixed","both","cave","13","M_depth.wav","None","720.542951021","320","241286.468703","233569.508717","234335.844304","235102.941685","235870.45459","236636.746585","237403.408964","238169.783198","227453.28542","228203.127744","228969.741275","229736.49455","230502.951641","231270.012849","232036.486635","232803.041424","238178.88793"
"Mixed","both","cave","13","F_greet.wav","None","720.735563431","320","241286.468703","233569.508717","234335.844304","235102.941685","235870.45459","236636.746585","237403.408964","238169.783198","242053.181787","228203.127744","228969.741275","229736.49455","230502.951641","231270.012849","232036.486635","232803.041424","241296.389024"
"Mixed","both","cave","13","F_cave.wav","None","719.251241069","320","241286.468703","233569.508717","234335.844304","235102.941685","235870.45459","236636.746585","237403.408964","238169.783198","242053.181787","242802.670111","228969.741275","229736.49455","230502.951641","231270.012849","232036.486635","232803.041424","242063.173216"
"Mixed","both","cave","13","M_lash.wav","space","472.231325228","320","241286.468703","233569.508717","234335.844304","235102.941685","235870.45459","236636.746585","237403.408964","238169.783198","242053.181787","242802.670111","243569.603323","229736.49455","230502.951641","231270.012849","232036.486635","232803.041424","242811.901912"
"Mixed","both","cave","13","M_gnash.wav","None","732.730721124","320","241286.468703","233569.508717","234335.844304","235102.941685","235870.45459","236636.746585","237403.408964","238169.783198","242053.181787","242802.670111","243569.603323","244335.963026","230502.951641","231270.012849","232036.486635","232803.041424","243580.299968"
"Mixed","both","cave","13","F_gnash.wav","None","732.842949219","320","241286.468703","233569.508717","234335.844304","235102.941685","235870.45459","236636.746585","237403.408964","238169.783198","242053.181787","242802.670111","243569.603323","244335.963026","245102.135062","231270.012849","232036.486635","232803.041424","244345.313856"
"Mixed","both","cave","13","F_bluff.wav","None","732.294482645","320","241286.468703","233569.508717","234335.844304","235102.941685","235870.45459","236636.746585","237403.408964","238169.783198","242053.181787","242802.670111","243569.603323","244335.963026","245102.135062","245869.294277","232036.486635","232803.041424","245111.268856"
"Mixed","both","cave","13","M_cave.wav","None","730.16461404","320","241286.468703","233569.508717","234335.844304","235102.941685","235870.45459","236636.746585","237403.408964","238169.783198","242053.181787","242802.670111","243569.603323","244335.963026","245102.135062","245869.294277","246636.071668","232803.041424","245878.644799"
"Mixed","both","cave","13","F_bluff.wav","space","574.671538547","320","241286.468703","233569.508717","234335.844304","235102.941685","235870.45459","236636.746585","237403.408964","238169.783198","242053.181787","242802.670111","243569.603323","244335.963026","245102.135062","245869.294277","246636.071668","247402.50959","246645.413532"
"Mixed","both","cave","13","M_reek.wav","None","727.017268538","320","241286.468703","248168.964827","234335.844304","235102.941685","235870.45459","236636.746585","237403.408964","238169.783198","242053.181787","242802.670111","243569.603323","244335.963026","245102.135062","245869.294277","246636.071668","247402.50959","247411.504567"
"Mixed","both","cave","13","M_cave.wav","None","728.18376543","320","241286.468703","248168.964827","248935.984297","235102.941685","235870.45459","236636.746585","237403.408964","238169.783198","242053.181787","242802.670111","243569.603323","244335.963026","245102.135062","245869.294277","246636.071668","247402.50959","248177.765954"
"Mixed","both","cave","13","F_jolt.wav","space","600.783373695","320","241286.468703","248168.964827","248935.984297","249702.926784","235870.45459","236636.746585","237403.408964","238169.783198","242053.181787","242802.670111","243569.603323","244335.963026","245102.135062","245869.294277","246636.071668","247402.50959","248947.174067"
"Mixed","both","cave","13","M_cad.wav","None","723.664326128","320","241286.468703","248168.964827","248935.984297","249702.926784","250469.563502","236636.746585","237403.408964","238169.783198","242053.181787","242802.670111","243569.603323","244335.963026","245102.135062","245869.294277","246636.071668","247402.50959","249712.381186"
"Mixed","both","cave","13","M_knife.wav","None","721.138720866","320","241286.468703","248168.964827","248935.984297","249702.926784","250469.563502","251236.181052","237403.408964","238169.783198","242053.181787","242802.670111","243569.603323","244335.963026","245102.135062","245869.294277","246636.071668","247402.50959","250480.712153"
"Mixed","both","cave","13","F_cave.wav","None","721.74778441","320","241286.468703","248168.964827","248935.984297","249702.926784","250469.563502","251236.181052","252002.698122","238169.783198","242053.181787","242802.670111","243569.603323","244335.963026","245102.135062","245869.294277","246636.071668","247402.50959","251245.774271"
"Mixed","both","cave","13","F_dime.wav","space","423.225181643","320","241286.468703","248168.964827","248935.984297","249702.926784","250469.563502","251236.181052","252002.698122","252752.699668","242053.181787","242802.670111","243569.603323","244335.963026","245102.135062","245869.294277","246636.071668","247402.50959","252012.646268"
"Mixed","both","ball","12","M_priest.wav","None","734.069115482","320","255886.0188","248168.964827","248935.984297","249702.926784","250469.563502","251236.181052","252002.698122","252752.699668","242053.181787","242802.670111","243569.603323","244335.963026","245102.135062","245869.294277","246636.071668","247402.50959","252763.534512"
"Mixed","both","ball","12","M_ball.wav","None","717.677568551","320","255886.0188","248168.964827","248935.984297","249702.926784","250469.563502","251236.181052","252002.698122","252752.699668","256652.953867","242802.670111","243569.603323","244335.963026","245102.135062","245869.294277","246636.071668","247402.50959","255898.961561"
"Mixed","both","ball","12","F_reek.wav","space","532.507624011","320","255886.0188","248168.964827","248935.984297","249702.926784","250469.563502","251236.181052","252002.698122","252752.699668","256652.953867","257401.905164","243569.603323","244335.963026","245102.135062","245869.294277","246636.071668","247402.50959","256663.210255"
"Mixed","both","ball","12","M_ball.wav","None","736.336564645","320","255886.0188","248168.964827","248935.984297","249702.926784","250469.563502","251236.181052","252002.698122","252752.699668","256652.953867","257401.905164","258168.911958","244335.963026","245102.135062","245869.294277","246636.071668","247402.50959","257410.786057"
"Mixed","both","ball","12","M_knife.wav","space","561.800194904","320","255886.0188","248168.964827","248935.984297","249702.926784","250469.563502","251236.181052","252002.698122","252752.699668","256652.953867","257401.905164","258168.911958","258935.535382","245102.135062","245869.294277","246636.071668","247402.50959","258177.902298"
"Mixed","both","ball","12","F_bluff.wav","None","732.420623768","320","255886.0188","248168.964827","248935.984297","249702.926784","250469.563502","251236.181052","252002.698122","252752.699668","256652.953867","257401.905164","258168.911958","258935.535382","259702.177048","245869.294277","246636.071668","247402.50959","258944.945883"
"Mixed","both","ball","12","F_romp.wav","None","731.822999194","320","255886.0188","248168.964827","248935.984297","249702.926784","250469.563502","251236.181052","252002.698122","252752.699668","256652.953867","257401.905164","258168.911958","258935.535382","259702.177048","260469.003596","246636.071668","247402.50959","259711.139252"
"Mixed","both","ball","12","M_knife.wav","None","729.797320906","320","255886.0188","248168.964827","248935.984297","249702.926784","250469.563502","251236.181052","252002.698122","252752.699668","256652.953867","257401.905164","258168.911958","258935.535382","259702.177048","260469.003596","261235.483566","247402.50959","260478.81478"
"Mixed","both","ball","12","F_ball.wav","None","729.547820985","320","255886.0188","248168.964827","248935.984297","249702.926784","250469.563502","251236.181052","252002.698122","252752.699668","256652.953867","257401.905164","258168.911958","258935.535382","259702.177048","260469.003596","261235.483566","262002.252299","261245.169536"
"Mixed","both","ball","12","M_greet.wav","space","559.855828062","320","255886.0188","262769.205917","248935.984297","249702.926784","250469.563502","251236.181052","252002.698122","252752.699668","256652.953867","257401.905164","258168.911958","258935.535382","259702.177048","260469.003596","261235.483566","262002.252299","262011.735764"
"Mixed","both","ball","12","M_romp.wav","None","725.685366895","320","255886.0188","262769.205917","263535.562218","249702.926784","250469.563502","251236.181052","252002.698122","252752.699668","256652.953867","257401.905164","258168.911958","258935.535382","259702.177048","260469.003596","261235.483566","262002.252299","262778.681033"
"Mixed","both","ball","12","F_romp.wav","None","730.56777101","320","255886.0188","262769.205917","263535.562218","264302.378255","250469.563502","251236.181052","252002.698122","252752.699668","256652.953867","257401.905164","258168.911958","258935.535382","259702.177048","260469.003596","261235.483566","262002.252299","263539.765378"
"Mixed","both","ball","12","F_depth.wav","None","722.946434282","320","255886.0188","262769.205917","263535.562218","264302.378255","265069.205113","251236.181052","252002.698122","252752.699668","256652.953867","257401.905164","258168.911958","258935.535382","259702.177048","260469.003596","261235.483566","262002.252299","264312.539728"
"Mixed","both","ball","12","F_ball.wav","None","723.446052521","320","255886.0188","262769.205917","263535.562218","264302.378255","265069.205113","265835.260284","252002.698122","252752.699668","256652.953867","257401.905164","258168.911958","258935.535382","259702.177048","260469.003596","261235.483566","262002.252299","265079.016606"
"Mixed","both","ball","12","M_dime.wav","space","375.95286034","320","255886.0188","262769.205917","263535.562218","264302.378255","265069.205113","265835.260284","266601.807343","252752.699668","256652.953867","257401.905164","258168.911958","258935.535382","259702.177048","260469.003596","261235.483566","262002.252299","265844.436742"
"Mixed","both","ball","12","F_reek.wav","None","722.115386743","320","255886.0188","262769.205917","263535.562218","264302.378255","265069.205113","265835.260284","266601.807343","267369.086206","256652.953867","257401.905164","258168.911958","258935.535382","259702.177048","260469.003596","261235.483566","262002.252299","266610.802938"
"Mixed","both","tile","33","F_knife.wav","None","719.976243097","320","270485.601668","262769.205917","263535.562218","264302.378255","265069.205113","265835.260284","266601.807343","267369.086206","256652.953867","257401.905164","258168.911958","258935.535382","259702.177048","260469.003596","261235.483566","262002.252299","267378.907284"
"Mixed","both","tile","33","M_tile.wav","None","720.914263744","320","270485.601668","262769.205917","263535.562218","264302.378255","265069.205113","265835.260284","266601.807343","267369.086206","271251.632415","257401.905164","258168.911958","258935.535382","259702.177048","260469.003596","261235.483566","262002.252299","270495.513642"
"Mixed","both","tile","33","M_cling.wav","space","438.572972547","320","270485.601668","262769.205917","263535.562218","264302.378255","265069.205113","265835.260284","266601.807343","267369.086206","271251.632415","272019.264659","258168.911958","258935.535382","259702.177048","260469.003596","261235.483566","262002.252299","271260.726635"
"Mixed","both","tile","33","M_park.wav","None","718.049808405","320","270485.601668","262769.205917","263535.562218","264302.378255","265069.205113","265835.260284","266601.807343","267369.086206","271251.632415","272019.264659","272768.010977","258935.535382","259702.177048","260469.003596","261235.483566","262002.252299","272029.156227"
"Mixed","both","tile","33","M_knife.wav","None","736.007917207","320","270485.601668","262769.205917","263535.562218","264302.378255","265069.205113","265835.260284","266601.807343","267369.086206","271251.632415","272019.264659","272768.010977","273534.926257","259702.177048","260469.003596","261235.483566","262002.252299","272777.216189"
"Mixed","both","tile","33","M_tile.wav","None","735.290952958","320","270485.601668","262769.205917","263535.562218","264302.378255","265069.205113","265835.260284","266601.807343","267369.086206","271251.632415","272019.264659","272768.010977","273534.926257","274301.786814","260469.003596","261235.483566","262002.252299","273544.113846"
"Mixed","both","tile","33","F_greet.wav","space","451.834178995","320","270485.601668","262769.205917","263535.562218","264302.378255","265069.205113","265835.260284","266601.807343","267369.086206","271251.632415","272019.264659","272768.010977","273534.926257","274301.786814","275068.079427","261235.483566","262002.252299","274311.332112"
"Mixed","both","tile","33","M_jolt.wav","None","733.264037874","320","270485.601668","262769.205917","263535.562218","264302.378255","265069.205113","265835.260284","266601.807343","267369.086206","271251.632415","272019.264659","272768.010977","273534.926257","274301.786814","275068.079427","275835.125176","262002.252299","275077.25063"
"Mixed","both","tile","33","M_dime.wav","None","731.844950467","320","270485.601668","262769.205917","263535.562218","264302.378255","265069.205113","265835.260284","266601.807343","267369.086206","271251.632415","272019.264659","272768.010977","273534.926257","274301.786814","275068.079427","275835.125176","276601.807343","275844.480954"
"Mixed","both","tile","33","F_tile.wav","None","730.617238674","320","270485.601668","277368.687069","263535.562218","264302.378255","265069.205113","265835.260284","266601.807343","267369.086206","271251.632415","272019.264659","272768.010977","273534.926257","274301.786814","275068.079427","275835.125176","276601.807343","276611.549273"
"Mixed","both","tile","33","F_knife.wav","space","584.783544298","320","270485.601668","277368.687069","278135.09562","264302.378255","265069.205113","265835.260284","266601.807343","267369.086206","271251.632415","272019.264659","272768.010977","273534.926257","274301.786814","275068.079427","275835.125176","276601.807343","277378.334084"
"Mixed","both","tile","33","F_knife.wav","None","728.428318165","320","270485.601668","277368.687069","278135.09562","278901.554566","265069.205113","265835.260284","266601.807343","267369.086206","271251.632415","272019.264659","272768.010977","273534.926257","274301.786814","275068.079427","275835.125176","276601.807343","278144.299286"
"Mixed","both","tile","33","M_romp.wav","None","727.665288374","320","270485.601668","277368.687069","278135.09562","278901.554566","279668.757373","265835.260284","266601.807343","267369.086206","271251.632415","272019.264659","272768.010977","273534.926257","274301.786814","275068.079427","275835.125176","276601.807343","278910.621579"
"Mixed","both","tile","33","F_tile.wav","None","725.685676094","320","270485.601668","277368.687069","278135.09562","278901.554566","279668.757373","280434.900658","266601.807343","267369.086206","271251.632415","272019.264659","272768.010977","273534.926257","274301.786814","275068.079427","275835.125176","276601.807343","279678.478898"
"Mixed","both","tile","33","F_priest.wav","None","732.075899839","320","270485.601668","277368.687069","278135.09562","278901.554566","279668.757373","280434.900658","281201.520063","267369.086206","271251.632415","272019.264659","272768.010977","273534.926257","274301.786814","275068.079427","275835.125176","276601.807343","280438.541128"
"Mixed","both","tile","33","F_bluff.wav","None","725.957126822","320","270485.601668","277368.687069","278135.09562","278901.554566","279668.757373","280434.900658","281201.520063","281968.312912","271251.632415","272019.264659","272768.010977","273534.926257","274301.786814","275068.079427","275835.125176","276601.807343","281210.577491"
"Mixed","both","cave","24","F_cad.wav","None","724.693241995","320","285101.727577","277368.687069","278135.09562","278901.554566","279668.757373","280434.900658","281201.520063","281968.312912","271251.632415","272019.264659","272768.010977","273534.926257","274301.786814","275068.079427","275835.125176","276601.807343","281977.662506"
"Mixed","both","cave","24","F_cave.wav","None","721.465512644","320","285101.727577","277368.687069","278135.09562","278901.554566","279668.757373","280434.900658","281201.520063","281968.312912","285869.056217","272019.264659","272768.010977","273534.926257","274301.786814","275068.079427","275835.125176","276601.807343","285111.21537"
"Mixed","both","cave","24","F_cad.wav","space","507.846102584","320","285101.727577","277368.687069","278135.09562","278901.554566","279668.757373","280434.900658","281201.520063","281968.312912","285869.056217","286618.323794","272768.010977","273534.926257","274301.786814","275068.079427","275835.125176","276601.807343","285879.024768"
"Mixed","both","cave","24","M_knife.wav","None","735.304247588","320","285101.727577","277368.687069","278135.09562","278901.554566","279668.757373","280434.900658","281201.520063","281968.312912","285869.056217","286618.323794","287384.575288","273534.926257","274301.786814","275068.079427","275835.125176","276601.807343","286628.048411"
"Mixed","both","cave","24","M_bluff.wav","None","734.878830146","320","285101.727577","277368.687069","278135.09562","278901.554566","279668.757373","280434.900658","281201.520063","281968.312912","285869.056217","286618.323794","287384.575288","288151.267347","274301.786814","275068.079427","275835.125176","276601.807343","287394.338551"
"Mixed","both","cave","24","M_jolt.wav","None","734.080554452","320","285101.727577","277368.687069","278135.09562","278901.554566","279668.757373","280434.900658","281201.520063","281968.312912","285869.056217","286618.323794","287384.575288","288151.267347","288917.955079","275068.079427","275835.125176","276601.807343","288160.846964"
"Mixed","both","cave","24","F_cave.wav","None","733.72717388","320","285101.727577","277368.687069","278135.09562","278901.554566","279668.757373","280434.900658","281201.520063","281968.312912","285869.056217","286618.323794","287384.575288","288151.267347","288917.955079","289684.716392","275835.125176","276601.807343","288927.156271"
"Mixed","both","cave","24","F_romp.wav","None","732.209152076","320","285101.727577","277368.687069","278135.09562","278901.554566","279668.757373","280434.900658","281201.520063","281968.312912","285869.056217","286618.323794","287384.575288","288151.267347","288917.955079","289684.716392","290451.23068","276601.807343","289694.528813"
"Mixed","both","cave","24","M_cave.wav","space","13.9896096662","320","285101.727577","277368.687069","278135.09562","278901.554566","279668.757373","280434.900658","281201.520063","281968.312912","285869.056217","286618.323794","287384.575288","288151.267347","288917.955079","289684.716392","290451.23068","291217.890895","290460.753409"
"Mixed","both","cave","24","M_priest.wav","space","607.401764486","320","285101.727577","291984.57368","278135.09562","278901.554566","279668.757373","280434.900658","281201.520063","281968.312912","285869.056217","286618.323794","287384.575288","288151.267347","288917.955079","289684.716392","290451.23068","291217.890895","291227.261203"
"Mixed","both","cave","24","F_lash.wav","None","727.051586844","320","285101.727577","291984.57368","292751.24688","278901.554566","279668.757373","280434.900658","281201.520063","281968.312912","285869.056217","286618.323794","287384.575288","288151.267347","288917.955079","289684.716392","290451.23068","291217.890895","291994.159788"
"Mixed","both","cave","24","M_romp.wav","None","726.449943148","320","285101.727577","291984.57368","292751.24688","293517.869995","279668.757373","280434.900658","281201.520063","281968.312912","285869.056217","286618.323794","287384.575288","288151.267347","288917.955079","289684.716392","290451.23068","291217.890895","292760.973043"
"Mixed","both","cave","24","M_cave.wav","None","726.691404358","320","285101.727577","291984.57368","292751.24688","293517.869995","294284.040795","280434.900658","281201.520063","281968.312912","285869.056217","286618.323794","287384.575288","288151.267347","288917.955079","289684.716392","290451.23068","291217.890895","293526.609289"
"Mixed","both","cave","24","M_gnash.wav","space","485.879302956","320","285101.727577","291984.57368","292751.24688","293517.869995","294284.040795","295051.046044","281201.520063","281968.312912","285869.056217","286618.323794","287384.575288","288151.267347","288917.955079","289684.716392","290451.23068","291217.890895","294292.691975"
"Mixed","both","cave","24","F_romp.wav","None","723.872397095","320","285101.727577","291984.57368","292751.24688","293517.869995","294284.040795","295051.046044","295818.626657","281968.312912","285869.056217","286618.323794","287384.575288","288151.267347","288917.955079","289684.716392","290451.23068","291217.890895","295060.019997"
"Mixed","both","cave","24","F_romp.wav","None","721.495192964","320","285101.727577","291984.57368","292751.24688","293517.869995","294284.040795","295051.046044","295818.626657","296584.104608","285869.056217","286618.323794","287384.575288","288151.267347","288917.955079","289684.716392","290451.23068","291217.890895","295828.278618"
"Mixed","both","cave","17","F_park.wav","None","722.282338422","320","299701.356203","291984.57368","292751.24688","293517.869995","294284.040795","295051.046044","295818.626657","296584.104608","285869.056217","286618.323794","287384.575288","288151.267347","288917.955079","289684.716392","290451.23068","291217.890895","296593.28756"
"Mixed","both","cave","17","F_priest.wav","None","721.681313124","320","299701.356203","291984.57368","292751.24688","293517.869995","294284.040795","295051.046044","295818.626657","296584.104608","300467.44229","286618.323794","287384.575288","288151.267347","288917.955079","289684.716392","290451.23068","291217.890895","299710.883878"
"Mixed","both","cave","17","F_cave.wav","None","722.102401778","320","299701.356203","291984.57368","292751.24688","293517.869995","294284.040795","295051.046044","295818.626657","296584.104608","300467.44229","301233.886396","287384.575288","288151.267347","288917.955079","289684.716392","290451.23068","291217.890895","300476.462001"
"Mixed","both","cave","17","M_reek.wav","space","455.594607163","320","299701.356203","291984.57368","292751.24688","293517.869995","294284.040795","295051.046044","295818.626657","296584.104608","300467.44229","301233.886396","301983.722536","288151.267347","288917.955079","289684.716392","290451.23068","291217.890895","301242.786767"
"Mixed","both","cave","17","M_gnash.wav","None","736.433024984","320","299701.356203","291984.57368","292751.24688","293517.869995","294284.040795","295051.046044","295818.626657","296584.104608","300467.44229","301233.886396","301983.722536","302750.743243","288917.955079","289684.716392","290451.23068","291217.890895","301992.626617"
"Mixed","both","cave","17","M_cave.wav","None","734.448775649","320","299701.356203","291984.57368","292751.24688","293517.869995","294284.040795","295051.046044","295818.626657","296584.104608","300467.44229","301233.886396","301983.722536","302750.743243","303517.805688","289684.716392","290451.23068","291217.890895","302760.530003"
"Mixed","both","cave","17","F_romp.wav","space","379.504908342","320","299701.356203","291984.57368","292751.24688","293517.869995","294284.040795","295051.046044","295818.626657","296584.104608","300467.44229","301233.886396","301983.722536","302750.743243","303517.805688","304283.757905","290451.23068","291217.890895","303526.809013"
"Mixed","both","cave","17","M_gnash.wav","None","733.215189539","320","299701.356203","291984.57368","292751.24688","293517.869995","294284.040795","295051.046044","295818.626657","296584.104608","300467.44229","301233.886396","301983.722536","302750.743243","303517.805688","304283.757905","305050.408537","291217.890895","304292.400119"
"Mixed","both","cave","17","M_priest.wav","None","732.368992642","320","299701.356203","291984.57368","292751.24688","293517.869995","294284.040795","295051.046044","295818.626657","296584.104608","300467.44229","301233.886396","301983.722536","302750.743243","303517.805688","304283.757905","305050.408537","305817.172323","305059.39702"
"Mixed","both","cave","17","F_cave.wav","None","730.833347421","320","299701.356203","306584.270632","292751.24688","293517.869995","294284.040795","295051.046044","295818.626657","296584.104608","300467.44229","301233.886396","301983.722536","302750.743243","303517.805688","304283.757905","305050.408537","305817.172323","305826.346928"
"Mixed","both","cave","17","M_priest.wav","space","513.408061583","320","299701.356203","306584.270632","307350.347754","293517.869995","294284.040795","295051.046044","295818.626657","296584.104608","300467.44229","301233.886396","301983.722536","302750.743243","303517.805688","304283.757905","305050.408537","305817.172323","306593.803873"
"Mixed","both","cave","17","F_romp.wav","None","727.974148467","320","299701.356203","306584.270632","307350.347754","308117.653515","294284.040795","295051.046044","295818.626657","296584.104608","300467.44229","301233.886396","301983.722536","302750.743243","303517.805688","304283.757905","305050.408537","305817.172323","307359.286771"
"Mixed","both","cave","17","M_jolt.wav","None","725.978150032","320","299701.356203","306584.270632","307350.347754","308117.653515","308884.1239","295051.046044","295818.626657","296584.104608","300467.44229","301233.886396","301983.722536","302750.743243","303517.805688","304283.757905","305050.408537","305817.172323","308127.026915"
"Mixed","both","cave","17","M_cave.wav","None","724.154050462","320","299701.356203","306584.270632","307350.347754","308117.653515","308884.1239","309650.354679","295818.626657","296584.104608","300467.44229","301233.886396","301983.722536","302750.743243","303517.805688","304283.757905","305050.408537","305817.172323","308894.262495"
"Mixed","both","cave","17","F_jaw.wav","space","414.651603438","320","299701.356203","306584.270632","307350.347754","308117.653515","308884.1239","309650.354679","310418.307223","296584.104608","300467.44229","301233.886396","301983.722536","302750.743243","303517.805688","304283.757905","305050.408537","305817.172323","309659.497748"
"Mixed","both","cave","17","F_greet.wav","None","722.183094826","320","299701.356203","306584.270632","307350.347754","308117.653515","308884.1239","309650.354679","310418.307223","311184.369195","300467.44229","301233.886396","301983.722536","302750.743243","303517.805688","304283.757905","305050.408537","305817.172323","310426.618007"
"Mixed","both","cave","14","F_dime.wav","None","720.26129812","320","314317.932571","306584.270632","307350.347754","308117.653515","308884.1239","309650.354679","310418.307223","311184.369195","300467.44229","301233.886396","301983.722536","302750.743243","303517.805688","304283.757905","305050.408537","305817.172323","311194.319814"
"Mixed","both","cave","14","M_cave.wav","None","720.441234298","320","314317.932571","306584.270632","307350.347754","308117.653515","308884.1239","309650.354679","310418.307223","311184.369195","315084.329065","301233.886396","301983.722536","302750.743243","303517.805688","304283.757905","305050.408537","305817.172323","314327.682231"
"Mixed","both","cave","14","F_greet.wav","space","459.669151809","320","314317.932571","306584.270632","307350.347754","308117.653515","308884.1239","309650.354679","310418.307223","311184.369195","315084.329065","315833.536664","301983.722536","302750.743243","303517.805688","304283.757905","305050.408537","305817.172323","315094.322041"
"Mixed","both","cave","14","F_romp.wav","None","735.759963281","320","314317.932571","306584.270632","307350.347754","308117.653515","308884.1239","309650.354679","310418.307223","311184.369195","315084.329065","315833.536664","316600.453799","302750.743243","303517.805688","304283.757905","305050.408537","305817.172323","315842.753006"
"Mixed","both","cave","14","F_lash.wav","None","734.129403718","320","314317.932571","306584.270632","307350.347754","308117.653515","308884.1239","309650.354679","310418.307223","311184.369195","315084.329065","315833.536664","316600.453799","317367.501094","303517.805688","304283.757905","305050.408537","305817.172323","316609.78577"
"Mixed","both","cave","14","F_bluff.wav","None","732.708151452","320","314317.932571","306584.270632","307350.347754","308117.653515","308884.1239","309650.354679","310418.307223","311184.369195","315084.329065","315833.536664","316600.453799","317367.501094","318133.744549","304283.757905","305050.408537","305817.172323","317377.115646"
"Mixed","both","cave","14","F_cave.wav","None","732.937246095","320","314317.932571","306584.270632","307350.347754","308117.653515","308884.1239","309650.354679","310418.307223","311184.369195","315084.329065","315833.536664","316600.453799","317367.501094","318133.744549","318899.96358","305050.408537","305817.172323","318143.480296"
"Mixed","both","cave","14","M_greet.wav","space","516.946506221","320","314317.932571","306584.270632","307350.347754","308117.653515","308884.1239","309650.354679","310418.307223","311184.369195","315084.329065","315833.536664","316600.453799","317367.501094","318133.744549","318899.96358","319667.154639","305817.172323","318908.91249"
"Mixed","both","cave","14","F_cave.wav","None","731.262783986","320","314317.932571","306584.270632","307350.347754","308117.653515","308884.1239","309650.354679","310418.307223","311184.369195","315084.329065","315833.536664","316600.453799","317367.501094","318133.744549","318899.96358","319667.154639","320433.7422","319675.977718"
"Mixed","both","cave","14","M_priest.wav","None","735.904963687","320","314317.932571","321199.88301","307350.347754","308117.653515","308884.1239","309650.354679","310418.307223","311184.369195","315084.329065","315833.536664","316600.453799","317367.501094","318133.744549","318899.96358","319667.154639","320433.7422","320437.628769"
"Mixed","both","cave","14","M_romp.wav","space","0.0241152010858","320","314317.932571","321199.88301","321967.108388","308117.653515","308884.1239","309650.354679","310418.307223","311184.369195","315084.329065","315833.536664","316600.453799","317367.501094","318133.744549","318899.96358","319667.154639","320433.7422","321208.85449"
"Mixed","both","cave","14","M_romp.wav","None","728.761912324","320","314317.932571","321199.88301","321967.108388","322733.671214","308884.1239","309650.354679","310418.307223","311184.369195","315084.329065","315833.536664","316600.453799","317367.501094","318133.744549","318899.96358","319667.154639","320433.7422","321975.801305"
"Mixed","both","cave","14","M_jolt.wav","None","728.146664798","320","314317.932571","321199.88301","321967.108388","322733.671214","323500.209308","309650.354679","310418.307223","311184.369195","315084.329065","315833.536664","316600.453799","317367.501094","318133.744549","318899.96358","319667.154639","320433.7422","322743.342035"
"Mixed","both","cave","14","M_cave.wav","None","728.140172083","320","314317.932571","321199.88301","321967.108388","322733.671214","323500.209308","324267.430047","310418.307223","311184.369195","315084.329065","315833.536664","316600.453799","317367.501094","318133.744549","318899.96358","319667.154639","320433.7422","323509.25437"
"Mixed","both","cave","14","M_greet.wav","space","612.815940287","320","314317.932571","321199.88301","321967.108388","322733.671214","323500.209308","324267.430047","325033.053927","311184.369195","315084.329065","315833.536664","316600.453799","317367.501094","318133.744549","318899.96358","319667.154639","320433.7422","324276.870846"
"Mixed","both","cave","14","F_cling.wav","None","731.763020158","320","314317.932571","321199.88301","321967.108388","322733.671214","323500.209308","324267.430047","325033.053927","325799.756498","315084.329065","315833.536664","316600.453799","317367.501094","318133.744549","318899.96358","319667.154639","320433.7422","325036.669045"
"Mixed","both","ball","10","F_cling.wav","None","725.786465686","320","328933.923064","321199.88301","321967.108388","322733.671214","323500.209308","324267.430047","325033.053927","325799.756498","315084.329065","315833.536664","316600.453799","317367.501094","318133.744549","318899.96358","319667.154639","320433.7422","325808.550205"
"Mixed","both","ball","10","M_ball.wav","None","720.47988046","320","328933.923064","321199.88301","321967.108388","322733.671214","323500.209308","324267.430047","325033.053927","325799.756498","329699.698436","315833.536664","316600.453799","317367.501094","318133.744549","318899.96358","319667.154639","320433.7422","328944.163993"
"Mixed","both","ball","10","F_gnash.wav","space","509.826024063","320","328933.923064","321199.88301","321967.108388","322733.671214","323500.209308","324267.430047","325033.053927","325799.756498","329699.698436","330467.395606","316600.453799","317367.501094","318133.744549","318899.96358","319667.154639","320433.7422","329708.65322"
"Mixed","both","ball","10","M_jaw.wav","None","718.413391616","320","328933.923064","321199.88301","321967.108388","322733.671214","323500.209308","324267.430047","325033.053927","325799.756498","329699.698436","330467.395606","331216.821787","317367.501094","318133.744549","318899.96358","319667.154639","320433.7422","330477.22163"
"Mixed","both","ball","10","F_knife.wav","None","735.784078483","320","328933.923064","321199.88301","321967.108388","322733.671214","323500.209308","324267.430047","325033.053927","325799.756498","329699.698436","330467.395606","331216.821787","331982.825636","318133.744549","318899.96358","319667.154639","320433.7422","331226.033801"
"Mixed","both","ball","10","F_ball.wav","None","736.009463202","320","328933.923064","321199.88301","321967.108388","322733.671214","323500.209308","324267.430047","325033.053927","325799.756498","329699.698436","330467.395606","331216.821787","331982.825636","332749.365893","318899.96358","319667.154639","320433.7422","331991.984163"
"Mixed","both","ball","10","M_cling.wav","space","491.478362121","320","328933.923064","321199.88301","321967.108388","322733.671214","323500.209308","324267.430047","325033.053927","325799.756498","329699.698436","330467.395606","331216.821787","331982.825636","332749.365893","333516.22676","319667.154639","320433.7422","332765.972004"
"Mixed","both","ball","10","F_cling.wav","None","733.278568834","320","328933.923064","321199.88301","321967.108388","322733.671214","323500.209308","324267.430047","325033.053927","325799.756498","329699.698436","330467.395606","331216.821787","331982.825636","332749.365893","333516.22676","334283.319812","320433.7422","333525.539253"
"Mixed","both","ball","10","M_romp.wav","None","731.94852192","320","328933.923064","321199.88301","321967.108388","322733.671214","323500.209308","324267.430047","325033.053927","325799.756498","329699.698436","330467.395606","331216.821787","331982.825636","332749.365893","333516.22676","334283.319812","335049.931797","334292.912413"
"Mixed","both","ball","10","F_greet.wav","None","730.642281007","320","328933.923064","335816.861917","321967.108388","322733.671214","323500.209308","324267.430047","325033.053927","325799.756498","329699.698436","330467.395606","331216.821787","331982.825636","332749.365893","333516.22676","334283.319812","335049.931797","335059.857065"
"Mixed","both","ball","10","M_ball.wav","None","730.19738635","320","328933.923064","335816.861917","336583.312825","322733.671214","323500.209308","324267.430047","325033.053927","325799.756498","329699.698436","330467.395606","331216.821787","331982.825636","332749.365893","333516.22676","334283.319812","335049.931797","335826.503367"
"Mixed","both","ball","10","M_jaw.wav","space","456.487797666","320","328933.923064","335816.861917","336583.312825","337349.413134","323500.209308","324267.430047","325033.053927","325799.756498","329699.698436","330467.395606","331216.821787","331982.825636","332749.365893","333516.22676","334283.319812","335049.931797","336592.842665"
"Mixed","both","ball","10","F_ball.wav","None","728.254565503","320","328933.923064","335816.861917","336583.312825","337349.413134","338116.39705","324267.430047","325033.053927","325799.756498","329699.698436","330467.395606","331216.821787","331982.825636","332749.365893","333516.22676","334283.319812","335049.931797","337359.275022"
"Mixed","both","ball","10","M_park.wav","None","727.868412621","320","328933.923064","335816.861917","336583.312825","337349.413134","338116.39705","338883.188663","325033.053927","325799.756498","329699.698436","330467.395606","331216.821787","331982.825636","332749.365893","333516.22676","334283.319812","335049.931797","338125.864438"
"Mixed","both","ball","10","F_reek.wav","space","27.9897307046","320","328933.923064","335816.861917","336583.312825","337349.413134","338116.39705","338883.188663","339649.74747","325799.756498","329699.698436","330467.395606","331216.821787","331982.825636","332749.365893","333516.22676","334283.319812","335049.931797","338893.291393"
"Mixed","both","ball","10","M_romp.wav","None","724.973349366","320","328933.923064","335816.861917","336583.312825","337349.413134","338116.39705","338883.188663","339649.74747","340416.045339","329699.698436","330467.395606","331216.821787","331982.825636","332749.365893","333516.22676","334283.319812","335049.931797","339659.088717"
"Mixed","both","ball","2","M_depth.wav","None","725.0586804","320","343550.007853","335816.861917","336583.312825","337349.413134","338116.39705","338883.188663","339649.74747","340416.045339","329699.698436","330467.395606","331216.821787","331982.825636","332749.365893","333516.22676","334283.319812","335049.931797","340425.275903"
"Mixed","both","ball","2","F_jaw.wav","None","721.588871442","320","343550.007853","335816.861917","336583.312825","337349.413134","338116.39705","338883.188663","339649.74747","340416.045339","344317.180053","330467.395606","331216.821787","331982.825636","332749.365893","333516.22676","334283.319812","335049.931797","343559.587778"
"Mixed","both","ball","2","M_dime.wav","None","719.962021336","320","343550.007853","335816.861917","336583.312825","337349.413134","338116.39705","338883.188663","339649.74747","340416.045339","344317.180053","345083.352089","331216.821787","331982.825636","332749.365893","333516.22676","334283.319812","335049.931797","344327.382336"
"Mixed","both","ball","2","F_ball.wav","None","719.143959228","320","343550.007853","335816.861917","336583.312825","337349.413134","338116.39705","338883.188663","339649.74747","340416.045339","344317.180053","345083.352089","345849.837315","331982.825636","332749.365893","333516.22676","334283.319812","335049.931797","345093.888276"
"Mixed","both","ball","2","F_cad.wav","space","398.012102116","320","343550.007853","335816.861917","336583.312825","337349.413134","338116.39705","338883.188663","339649.74747","340416.045339","344317.180053","345083.352089","345849.837315","346599.658306","332749.365893","333516.22676","334283.319812","335049.931797","345859.995387"
"Mixed","both","ball","2","M_jaw.wav","None","734.612016939","320","343550.007853","335816.861917","336583.312825","337349.413134","338116.39705","338883.188663","339649.74747","340416.045339","344317.180053","345083.352089","345849.837315","346599.658306","347366.465377","333516.22676","334283.319812","335049.931797","346609.256781"
"Mixed","both","ball","2","M_reek.wav","None","734.181344043","320","343550.007853","335816.861917","336583.312825","337349.413134","338116.39705","338883.188663","339649.74747","340416.045339","344317.180053","345083.352089","345849.837315","346599.658306","347366.465377","348132.334118","334283.319812","335049.931797","347375.961517"
"Mixed","both","ball","2","F_jolt.wav","None","734.700130299","320","343550.007853","335816.861917","336583.312825","337349.413134","338116.39705","338883.188663","339649.74747","340416.045339","344317.180053","345083.352089","345849.837315","346599.658306","347366.465377","348132.334118","348899.025559","335049.931797","348141.81109"
"Mixed","both","ball","2","F_cad.wav","None","734.598104376","320","343550.007853","335816.861917","336583.312825","337349.413134","338116.39705","338883.188663","339649.74747","340416.045339","344317.180053","345083.352089","345849.837315","346599.658306","347366.465377","348132.334118","348899.025559","349666.660277","348908.102466"
"Mixed","both","ball","2","F_ball.wav","None","732.842949219","320","343550.007853","350432.83386","336583.312825","337349.413134","338116.39705","338883.188663","339649.74747","340416.045339","344317.180053","345083.352089","345849.837315","346599.658306","347366.465377","348132.334118","348899.025559","349666.660277","349676.132611"
"Mixed","both","ball","2","M_romp.wav","space","421.969335061","320","343550.007853","350432.83386","351199.431932","337349.413134","338116.39705","338883.188663","339649.74747","340416.045339","344317.180053","345083.352089","345849.837315","346599.658306","347366.465377","348132.334118","348899.025559","349666.660277","350442.968126"
"Mixed","both","ball","2","F_gnash.wav","None","730.652792845","320","343550.007853","350432.83386","351199.431932","351965.64818","338116.39705","338883.188663","339649.74747","340416.045339","344317.180053","345083.352089","345849.837315","346599.658306","347366.465377","348132.334118","348899.025559","349666.660277","351209.315462"
"Mixed","both","ball","2","M_ball.wav","None","731.137570459","320","343550.007853","350432.83386","351199.431932","351965.64818","352732.232958","338883.188663","339649.74747","340416.045339","344317.180053","345083.352089","345849.837315","346599.658306","347366.465377","348132.334118","348899.025559","349666.660277","351975.290557"
"Mixed","both","ball","2","F_reek.wav","space","692.696675193","320","343550.007853","350432.83386","351199.431932","351965.64818","352732.232958","353499.327556","339649.74747","340416.045339","344317.180053","345083.352089","345849.837315","346599.658306","347366.465377","348132.334118","348899.025559","349666.660277","352741.166719"
"Mixed","both","ball","2","M_ball.wav","None","728.44315879","320","343550.007853","350432.83386","351199.431932","351965.64818","352732.232958","353499.327556","354266.315491","340416.045339","344317.180053","345083.352089","345849.837315","346599.658306","347366.465377","348132.334118","348899.025559","349666.660277","353508.70683"
"Mixed","both","ball","2","M_lash.wav","space","517.952852882","320","343550.007853","350432.83386","351199.431932","351965.64818","352732.232958","353499.327556","354266.315491","355032.745994","344317.180053","345083.352089","345849.837315","346599.658306","347366.465377","348132.334118","348899.025559","349666.660277","354275.829873"
"Mixed","both","ball","5","M_park.wav","None","725.170290563","320","358166.863092","350432.83386","351199.431932","351965.64818","352732.232958","353499.327556","354266.315491","355032.745994","344317.180053","345083.352089","345849.837315","346599.658306","347366.465377","348132.334118","348899.025559","349666.660277","355042.810387"
"Mixed","both","ball","5","F_ball.wav","None","720.797087997","320","358166.863092","350432.83386","351199.431932","351965.64818","352732.232958","353499.327556","354266.315491","355032.745994","358932.93805","345083.352089","345849.837315","346599.658306","347366.465377","348132.334118","348899.025559","349666.660277","358177.187807"
"Mixed","both","ball","5","M_depth.wav","space","417.657039594","320","358166.863092","350432.83386","351199.431932","351965.64818","352732.232958","353499.327556","354266.315491","355032.745994","358932.93805","359699.603212","345849.837315","346599.658306","347366.465377","348132.334118","348899.025559","349666.660277","358943.032433"
"Mixed","both","ball","5","M_ball.wav","None","718.585908413","320","358166.863092","350432.83386","351199.431932","351965.64818","352732.232958","353499.327556","354266.315491","355032.745994","358932.93805","359699.603212","360449.354331","346599.658306","347366.465377","348132.334118","348899.025559","349666.660277","359709.825282"
"Mixed","both","ball","5","M_reek.wav","space","469.626263715","320","358166.863092","350432.83386","351199.431932","351965.64818","352732.232958","353499.327556","354266.315491","355032.745994","358932.93805","359699.603212","360449.354331","361216.245804","347366.465377","348132.334118","348899.025559","349666.660277","360458.992379"
"Mixed","both","ball","5","F_greet.wav","None","731.880504638","320","358166.863092","350432.83386","351199.431932","351965.64818","352732.232958","353499.327556","354266.315491","355032.745994","358932.93805","359699.603212","360449.354331","361216.245804","361982.489878","348132.334118","348899.025559","349666.660277","361227.09858"
"Mixed","both","ball","5","F_cling.wav","None","732.842949219","320","358166.863092","350432.83386","351199.431932","351965.64818","352732.232958","353499.327556","354266.315491","355032.745994","358932.93805","359699.603212","360449.354331","361216.245804","361982.489878","362749.05456","348899.025559","349666.660277","361992.146168"
"Mixed","both","ball","5","F_park.wav","None","732.907874975","320","358166.863092","350432.83386","351199.431932","351965.64818","352732.232958","353499.327556","354266.315491","355032.745994","358932.93805","359699.603212","360449.354331","361216.245804","361982.489878","362749.05456","363516.072175","349666.660277","362758.405081"
"Mixed","both","ball","5","M_knife.wav","None","731.524650473","320","358166.863092","350432.83386","351199.431932","351965.64818","352732.232958","353499.327556","354266.315491","355032.745994","358932.93805","359699.603212","360449.354331","361216.245804","361982.489878","362749.05456","363516.072175","364282.403743","363525.986312"
"Mixed","both","ball","5","M_greet.wav","None","731.113764457","320","358166.863092","365049.087146","351199.431932","351965.64818","352732.232958","353499.327556","354266.315491","355032.745994","358932.93805","359699.603212","360449.354331","361216.245804","361982.489878","362749.05456","363516.072175","364282.403743","364292.379096"
"Mixed","both","ball","5","F_jolt.wav","None","730.812015012","320","358166.863092","365049.087146","365816.021904","351965.64818","352732.232958","353499.327556","354266.315491","355032.745994","358932.93805","359699.603212","360449.354331","361216.245804","361982.489878","362749.05456","363516.072175","364282.403743","365058.700153"
"Mixed","both","ball","5","M_reek.wav","None","730.168633629","320","358166.863092","365049.087146","365816.021904","366581.849835","352732.232958","353499.327556","354266.315491","355032.745994","358932.93805","359699.603212","360449.354331","361216.245804","361982.489878","362749.05456","363516.072175","364282.403743","365825.794132"
"Mixed","both","ball","5","F_ball.wav","None","731.196313165","320","358166.863092","365049.087146","365816.021904","366581.849835","367348.971022","353499.327556","354266.315491","355032.745994","358932.93805","359699.603212","360449.354331","361216.245804","361982.489878","362749.05456","363516.072175","364282.403743","366591.219216"
"Mixed","both","ball","5","F_jolt.wav","space","465.552646667","320","358166.863092","365049.087146","365816.021904","366581.849835","367348.971022","368115.575896","354266.315491","355032.745994","358932.93805","359699.603212","360449.354331","361216.245804","361982.489878","362749.05456","363516.072175","364282.403743","367358.888251"
"Mixed","both","ball","5","M_ball.wav","None","726.939358283","320","358166.863092","365049.087146","365816.021904","366581.849835","367348.971022","368115.575896","368882.351432","355032.745994","358932.93805","359699.603212","360449.354331","361216.245804","361982.489878","362749.05456","363516.072175","364282.403743","368125.609373"
"Mixed","both","ball","5","F_bluff.wav","space","388.167836703","320","358166.863092","365049.087146","365816.021904","366581.849835","367348.971022","368115.575896","368882.351432","369648.869429","358932.93805","359699.603212","360449.354331","361216.245804","361982.489878","362749.05456","363516.072175","364282.403743","368892.19446"
"Mixed","both","cave","23","F_cad.wav","None","724.930684082","320","372782.589554","365049.087146","365816.021904","366581.849835","367348.971022","368115.575896","368882.351432","369648.869429","358932.93805","359699.603212","360449.354331","361216.245804","361982.489878","362749.05456","363516.072175","364282.403743","369658.527883"
"Mixed","both","cave","23","M_cad.wav","None","721.059882548","320","372782.589554","365049.087146","365816.021904","366581.849835","367348.971022","368115.575896","368882.351432","369648.869429","373549.125483","359699.603212","360449.354331","361216.245804","361982.489878","362749.05456","363516.072175","364282.403743","372792.461335"
"Mixed","both","cave","23","F_cave.wav","None","720.345082693","320","372782.589554","365049.087146","365816.021904","366581.849835","367348.971022","368115.575896","368882.351432","369648.869429","373549.125483","374316.549965","360449.354331","361216.245804","361982.489878","362749.05456","363516.072175","364282.403743","373559.046113"
"Mixed","both","cave","23","F_romp.wav","None","718.623008579","320","372782.589554","365049.087146","365816.021904","366581.849835","367348.971022","368115.575896","368882.351432","369648.869429","373549.125483","374316.549965","375082.51424","361216.245804","361982.489878","362749.05456","363516.072175","364282.403743","374327.107484"
"Mixed","both","cave","23","M_cave.wav","space","91.5206563659","320","372782.589554","365049.087146","365816.021904","366581.849835","367348.971022","368115.575896","368882.351432","369648.869429","373549.125483","374316.549965","375082.51424","375848.298269","361982.489878","362749.05456","363516.072175","364282.403743","375092.629338"
"Mixed","both","cave","23","F_knife.wav","space","511.851393152","320","372782.589554","365049.087146","365816.021904","366581.849835","367348.971022","368115.575896","368882.351432","369648.869429","373549.125483","374316.549965","375082.51424","375848.298269","376598.968858","362749.05456","363516.072175","364282.403743","375857.289536"
"Mixed","both","cave","23","M_cling.wav","None","735.503661912","320","372782.589554","365049.087146","365816.021904","366581.849835","367348.971022","368115.575896","368882.351432","369648.869429","373549.125483","374316.549965","375082.51424","375848.298269","376598.968858","377365.7008","363516.072175","364282.403743","376608.535798"
"Mixed","both","cave","23","F_cave.wav","None","734.714970458","320","372782.589554","365049.087146","365816.021904","366581.849835","367348.971022","368115.575896","368882.351432","369648.869429","373549.125483","374316.549965","375082.51424","375848.298269","376598.968858","377365.7008","378131.796472","364282.403743","377375.565471"
