"Condition","Talker","Target","Trial","current_stimulus","response_response","response_time_response","subject_nr","time_Audio1","time_Audio10","time_Audio11","time_Audio12","time_Audio13","time_Audio14","time_Audio15","time_Audio16","time_Audio2","time_Audio3","time_Audio4","time_Audio5","time_Audio6","time_Audio7","time_Audio8","time_Audio9","time_response","title"
"Blocked","Female","ball","2","F_priest.wav","NA","NA","118","293234.211024","NA","NA","NA","NA","NA","NA","NA","NA","NA","NA","NA","NA","NA","NA","NA","NA","Mapping"
"Blocked","Female","ball","2","F_dime.wav","None","725.414534434","118","293234.211024","NA","NA","NA","NA","NA","NA","NA","294001.563161","NA","NA","NA","NA","NA","NA","NA","293254.092167","Mapping"
"Blocked","Female","ball","2","F_ball.wav","None","731.975728966","118","293234.211024","NA","NA","NA","NA","NA","NA","NA","294001.563161","294769.008048","NA","NA","NA","NA","NA","NA","294010.950164","Mapping"
"Blocked","Female","ball","2","F_lash.wav","space","528.060530429","118","293234.211024","NA","NA","NA","NA","NA","NA","NA","294001.563161","294769.008048","295535.817592","NA","NA","NA","NA","NA","294778.809648","Mapping"
"Blocked","Female","ball","2","F_ball.wav","None","723.943196906","118","293234.211024","NA","NA","NA","NA","NA","NA","NA","294001.563161","294769.008048","295535.817592","296303.329879","NA","NA","NA","NA","295545.85818","Mapping"
"Blocked","Female","ball","2","F_lash.wav","space","554.722378176","118","293234.211024","NA","NA","NA","NA","NA","NA","NA","294001.563161","294769.008048","295535.817592","296303.329879","297053.732108","NA","NA","NA","296313.058205","Mapping"
"Blocked","Female","ball","2","F_gnash.wav","None","733.9553411","118","293234.211024","NA","NA","NA","NA","NA","NA","NA","294001.563161","294769.008048","295535.817592","296303.329879","297053.732108","297821.002624","NA","NA","297062.943194","Mapping"
"Blocked","Female","ball","2","F_ball.wav","None","728.859300682","118","293234.211024","NA","NA","NA","NA","NA","NA","NA","294001.563161","294769.008048","295535.817592","296303.329879","297053.732108","297821.002624","298588.296946","NA","297831.657532","Mapping"
"Blocked","Female","ball","2","F_gnash.wav","space","525.971781492","118","293234.211024","NA","NA","NA","NA","NA","NA","NA","294001.563161","294769.008048","295535.817592","296303.329879","297053.732108","297821.002624","298588.296946","299355.219337","298597.751658","Mapping"
"Blocked","Female","ball","2","F_cling.wav","None","723.387928534","118","293234.211024","300105.825309","NA","NA","NA","NA","NA","NA","294001.563161","294769.008048","295535.817592","296303.329879","297053.732108","297821.002624","298588.296946","299355.219337","299364.629838","Mapping"
"Blocked","Female","ball","2","F_park.wav","None","736.132203339","118","293234.211024","300105.825309","300872.996891","NA","NA","NA","NA","NA","294001.563161","294769.008048","295535.817592","296303.329879","297053.732108","297821.002624","298588.296946","299355.219337","300115.419147","Mapping"
"Blocked","Female","ball","2","F_reek.wav","None","733.680798599","118","293234.211024","300105.825309","300872.996891","301640.211756","NA","NA","NA","NA","294001.563161","294769.008048","295535.817592","296303.329879","297053.732108","297821.002624","298588.296946","299355.219337","300881.975791","Mapping"
"Blocked","Female","ball","2","F_ball.wav","None","729.769495607","118","293234.211024","300105.825309","300872.996891","301640.211756","302408.367734","NA","NA","NA","294001.563161","294769.008048","295535.817592","296303.329879","297053.732108","297821.002624","298588.296946","299355.219337","301649.433045","Mapping"
"Blocked","Female","ball","2","F_reek.wav","space","497.733478594","118","293234.211024","300105.825309","300872.996891","301640.211756","302408.367734","303175.237257","NA","NA","294001.563161","294769.008048","295535.817592","296303.329879","297053.732108","297821.002624","298588.296946","299355.219337","302417.892936","Mapping"
"Blocked","Female","ball","2","F_greet.wav","None","722.059427324","118","293234.211024","300105.825309","300872.996891","301640.211756","302408.367734","303175.237257","303925.451202","NA","294001.563161","294769.008048","295535.817592","296303.329879","297053.732108","297821.002624","298588.296946","299355.219337","303184.601691","Mapping"
"Blocked","Female","ball","2","F_park.wav","None","734.786388624","118","293234.211024","300105.825309","300872.996891","301640.211756","302408.367734","303175.237257","303925.451202","304693.132295","294001.563161","294769.008048","295535.817592","296303.329879","297053.732108","297821.002624","298588.296946","299355.219337","303935.444796","Mapping"
"Blocked","Female","ball","4","F_jolt.wav","None","730.605489865","118","307828.669718","300105.825309","300872.996891","301640.211756","302408.367734","303175.237257","303925.451202","304693.132295","294001.563161","294769.008048","295535.817592","296303.329879","297053.732108","297821.002624","298588.296946","299355.219337","304703.009641","Mapping"
"Blocked","Female","ball","4","F_park.wav","None","735.903417924","118","307828.669718","300105.825309","300872.996891","301640.211756","302408.367734","303175.237257","303925.451202","304693.132295","308596.058027","294769.008048","295535.817592","296303.329879","297053.732108","297821.002624","298588.296946","299355.219337","307837.960879","Mapping"
"Blocked","Female","ball","4","F_ball.wav","None","732.215644457","118","307828.669718","300105.825309","300872.996891","301640.211756","302408.367734","303175.237257","303925.451202","304693.132295","308596.058027","309362.827689","295535.817592","296303.329879","297053.732108","297821.002624","298588.296946","299355.219337","308605.515522","Mapping"
"Blocked","Female","ball","4","F_depth.wav","space","486.724572052","118","307828.669718","300105.825309","300872.996891","301640.211756","302408.367734","303175.237257","303925.451202","304693.132295","308596.058027","309362.827689","310130.424069","296303.329879","297053.732108","297821.002624","298588.296946","299355.219337","309371.693742","Mapping"
"Blocked","Female","ball","4","F_jaw.wav","None","725.338169563","118","307828.669718","300105.825309","300872.996891","301640.211756","302408.367734","303175.237257","303925.451202","304693.132295","308596.058027","309362.827689","310130.424069","310897.553913","297053.732108","297821.002624","298588.296946","299355.219337","310139.651541","Mapping"
"Blocked","Female","ball","4","F_done.wav","None","721.371525244","118","307828.669718","300105.825309","300872.996891","301640.211756","302408.367734","303175.237257","303925.451202","304693.132295","308596.058027","309362.827689","310130.424069","310897.553913","311648.205024","297821.002624","298588.296946","299355.219337","310906.976471","Mapping"
"Blocked","Female","ball","4","F_ball.wav","None","734.463615692","118","307828.669718","300105.825309","300872.996891","301640.211756","302408.367734","303175.237257","303925.451202","304693.132295","308596.058027","309362.827689","310130.424069","310897.553913","311648.205024","312415.384026","298588.296946","299355.219337","311657.641185","Mapping"
"Blocked","Female","ball","4","F_reek.wav","space","601.649357297","118","307828.669718","300105.825309","300872.996891","301640.211756","302408.367734","303175.237257","303925.451202","304693.132295","308596.058027","309362.827689","310130.424069","310897.553913","311648.205024","312415.384026","313182.634755","299355.219337","312424.661892","Mapping"
"Blocked","Female","ball","4","F_tile.wav","None","726.871650157","118","307828.669718","300105.825309","300872.996891","301640.211756","302408.367734","303175.237257","303925.451202","304693.132295","308596.058027","309362.827689","310130.424069","310897.553913","311648.205024","312415.384026","313182.634755","313949.993384","313192.59805","Mapping"
"Blocked","Female","ball","4","F_park.wav","None","722.986626555","118","307828.669718","314717.376128","300872.996891","301640.211756","302408.367734","303175.237257","303925.451202","304693.132295","308596.058027","309362.827689","310130.424069","310897.553913","311648.205024","312415.384026","313182.634755","313949.993384","313959.894227","Mapping"
"Blocked","Female","ball","4","F_ball.wav","None","720.103621235","118","307828.669718","314717.376128","315467.745895","301640.211756","302408.367734","303175.237257","303925.451202","304693.132295","308596.058027","309362.827689","310130.424069","310897.553913","311648.205024","312415.384026","313182.634755","313949.993384","314726.615658","Mapping"
"Blocked","Female","ball","4","F_knife.wav","space","581.813353157","118","307828.669718","314717.376128","315467.745895","316234.971581","302408.367734","303175.237257","303925.451202","304693.132295","308596.058027","309362.827689","310130.424069","310897.553913","311648.205024","312415.384026","313182.634755","313949.993384","315477.363539","Mapping"
"Blocked","Female","ball","4","F_dime.wav","None","729.573791337","118","307828.669718","314717.376128","315467.745895","316234.971581","317002.253536","303175.237257","303925.451202","304693.132295","308596.058027","309362.827689","310130.424069","310897.553913","311648.205024","312415.384026","313182.634755","313949.993384","316244.51657","Mapping"
"Blocked","Female","ball","4","F_ball.wav","None","726.253311208","118","307828.669718","314717.376128","315467.745895","316234.971581","317002.253536","317769.032473","303925.451202","304693.132295","308596.058027","309362.827689","310130.424069","310897.553913","311648.205024","312415.384026","313182.634755","313949.993384","317011.985264","Mapping"
"Blocked","Female","ball","4","F_reek.wav","space","496.065818472","118","307828.669718","314717.376128","315467.745895","316234.971581","317002.253536","317769.032473","318536.528064","304693.132295","308596.058027","309362.827689","310130.424069","310897.553913","311648.205024","312415.384026","313182.634755","313949.993384","317779.059457","Mapping"
"Blocked","Female","ball","4","F_romp.wav","None","719.305963998","118","307828.669718","314717.376128","315467.745895","316234.971581","317002.253536","317769.032473","318536.528064","319287.260796","308596.058027","309362.827689","310130.424069","310897.553913","311648.205024","312415.384026","313182.634755","313949.993384","318546.42056","Mapping"
"Blocked","Female","done","23","F_dime.wav","None","732.854079426","118","322406.218387","314717.376128","315467.745895","316234.971581","317002.253536","317769.032473","318536.528064","319287.260796","308596.058027","309362.827689","310130.424069","310897.553913","311648.205024","312415.384026","313182.634755","313949.993384","319296.884314","Mapping"
"Blocked","Female","done","23","F_done.wav","None","735.494695895","118","322406.218387","314717.376128","315467.745895","316234.971581","317002.253536","317769.032473","318536.528064","319287.260796","323173.274958","309362.827689","310130.424069","310897.553913","311648.205024","312415.384026","313182.634755","313949.993384","322416.031736","Mapping"
"Blocked","Female","done","23","F_cad.wav","space","587.099532786","118","322406.218387","314717.376128","315467.745895","316234.971581","317002.253536","317769.032473","318536.528064","319287.260796","323173.274958","323940.261347","310130.424069","310897.553913","311648.205024","312415.384026","313182.634755","313949.993384","323182.906824","Mapping"
"Blocked","Female","done","23","F_jolt.wav","None","729.952214766","118","322406.218387","314717.376128","315467.745895","316234.971581","317002.253536","317769.032473","318536.528064","319287.260796","323173.274958","323940.261347","324707.898847","310897.553913","311648.205024","312415.384026","313182.634755","313949.993384","323949.477998","Mapping"
"Blocked","Female","done","23","F_cave.wav","None","725.898384655","118","322406.218387","314717.376128","315467.745895","316234.971581","317002.253536","317769.032473","318536.528064","319287.260796","323173.274958","323940.261347","324707.898847","325475.033638","311648.205024","312415.384026","313182.634755","313949.993384","324717.241639","Mapping"
"Blocked","Female","done","23","F_priest.wav","None","721.970386512","118","322406.218387","314717.376128","315467.745895","316234.971581","317002.253536","317769.032473","318536.528064","319287.260796","323173.274958","323940.261347","324707.898847","325475.033638","326225.164107","312415.384026","313182.634755","313949.993384","325485.16914","Mapping"
"Blocked","Female","done","23","F_bluff.wav","None","735.878993539","118","322406.218387","314717.376128","315467.745895","316234.971581","317002.253536","317769.032473","318536.528064","319287.260796","323173.274958","323940.261347","324707.898847","325475.033638","326225.164107","326992.799752","313182.634755","313949.993384","326234.81947","Mapping"
"Blocked","Female","done","23","F_done.wav","None","732.003554207","118","322406.218387","314717.376128","315467.745895","316234.971581","317002.253536","317769.032473","318536.528064","319287.260796","323173.274958","323940.261347","324707.898847","325475.033638","326225.164107","326992.799752","327759.903626","313949.993384","327002.595478","Mapping"
"Blocked","Female","done","23","F_romp.wav","space","497.76192219","118","322406.218387","314717.376128","315467.745895","316234.971581","317002.253536","317769.032473","318536.528064","319287.260796","323173.274958","323940.261347","324707.898847","325475.033638","326225.164107","326992.799752","327759.903626","328527.338001","327769.097707","Mapping"
"Blocked","Female","done","23","F_reek.wav","None","724.500938639","118","322406.218387","329294.562142","315467.745895","316234.971581","317002.253536","317769.032473","318536.528064","319287.260796","323173.274958","323940.261347","324707.898847","325475.033638","326225.164107","326992.799752","327759.903626","328527.338001","328537.156915","Mapping"
"Blocked","Female","done","23","F_done.wav","None","721.583924678","118","322406.218387","329294.562142","330044.718582","316234.971581","317002.253536","317769.032473","318536.528064","319287.260796","323173.274958","323940.261347","324707.898847","325475.033638","326225.164107","326992.799752","327759.903626","328527.338001","329304.043133","Mapping"
"Blocked","Female","done","23","F_ball.wav","space","723.279410056","118","322406.218387","329294.562142","330044.718582","330812.229631","317002.253536","317769.032473","318536.528064","319287.260796","323173.274958","323940.261347","324707.898847","325475.033638","326225.164107","326992.799752","327759.903626","328527.338001","330054.518945","Mapping"
"Blocked","Female","done","23","F_priest.wav","None","730.643517702","118","322406.218387","329294.562142","330044.718582","330812.229631","331579.151095","317769.032473","318536.528064","319287.260796","323173.274958","323940.261347","324707.898847","325475.033638","326225.164107","326992.799752","327759.903626","328527.338001","330821.85655","Mapping"
"Blocked","Female","done","23","F_depth.wav","None","729.127659783","118","322406.218387","329294.562142","330044.718582","330812.229631","331579.151095","332346.746239","318536.528064","319287.260796","323173.274958","323940.261347","324707.898847","325475.033638","326225.164107","326992.799752","327759.903626","328527.338001","331587.821753","Mapping"
"Blocked","Female","done","23","F_done.wav","None","724.201971767","118","322406.218387","329294.562142","330044.718582","330812.229631","331579.151095","332346.746239","333113.843001","319287.260796","323173.274958","323940.261347","324707.898847","325475.033638","326225.164107","326992.799752","327759.903626","328527.338001","332356.549384","Mapping"
"Blocked","Female","done","23","F_cave.wav","space","511.575614189","118","322406.218387","329294.562142","330044.718582","330812.229631","331579.151095","332346.746239","333113.843001","333864.429187","323173.274958","323940.261347","324707.898847","325475.033638","326225.164107","326992.799752","327759.903626","328527.338001","333123.126742","Mapping"
"Blocked","Female","ball","6","F_romp.wav","None","734.301610908","118","336983.369465","329294.562142","330044.718582","330812.229631","331579.151095","332346.746239","333113.843001","333864.429187","323173.274958","323940.261347","324707.898847","325475.033638","326225.164107","326992.799752","327759.903626","328527.338001","333873.718802","Mapping"
"Blocked","Female","ball","6","F_lash.wav","None","735.73399306","118","336983.369465","329294.562142","330044.718582","330812.229631","331579.151095","332346.746239","333113.843001","333864.429187","337750.66997","323940.261347","324707.898847","325475.033638","326225.164107","326992.799752","327759.903626","328527.338001","336993.138911","Mapping"
"Blocked","Female","ball","6","F_cad.wav","None","731.788990597","118","336983.369465","329294.562142","330044.718582","330812.229631","331579.151095","332346.746239","333113.843001","333864.429187","337750.66997","338518.029218","324707.898847","325475.033638","326225.164107","326992.799752","327759.903626","328527.338001","337760.846283","Mapping"
"Blocked","Female","ball","6","F_dime.wav","None","728.903821087","118","336983.369465","329294.562142","330044.718582","330812.229631","331579.151095","332346.746239","333113.843001","333864.429187","337750.66997","338518.029218","339284.971705","325475.033638","326225.164107","326992.799752","327759.903626","328527.338001","338527.697565","Mapping"
"Blocked","Female","ball","6","F_priest.wav","None","731.67305204","118","336983.369465","329294.562142","330044.718582","330812.229631","331579.151095","332346.746239","333113.843001","333864.429187","337750.66997","338518.029218","339284.971705","340052.529439","326225.164107","326992.799752","327759.903626","328527.338001","339288.913616","Mapping"
"Blocked","Female","ball","6","F_ball.wav","None","722.514524779","118","336983.369465","329294.562142","330044.718582","330812.229631","331579.151095","332346.746239","333113.843001","333864.429187","337750.66997","338518.029218","339284.971705","340052.529439","340802.299417","326992.799752","327759.903626","328527.338001","340061.774534","Mapping"
"Blocked","Female","ball","6","F_jolt.wav","space","574.217368398","118","336983.369465","329294.562142","330044.718582","330812.229631","331579.151095","332346.746239","333113.843001","333864.429187","337750.66997","338518.029218","339284.971705","340052.529439","340802.299417","341569.713388","327759.903626","328527.338001","340811.265023","Mapping"
"Blocked","Female","ball","6","F_ball.wav","None","732.403928676","118","336983.369465","329294.562142","330044.718582","330812.229631","331579.151095","332346.746239","333113.843001","333864.429187","337750.66997","338518.029218","339284.971705","340052.529439","340802.299417","341569.713388","342337.311623","328527.338001","341578.816573","Mapping"
"Blocked","Female","ball","6","F_done.wav","space","638.288103903","118","336983.369465","329294.562142","330044.718582","330812.229631","331579.151095","332346.746239","333113.843001","333864.429187","337750.66997","338518.029218","339284.971705","340052.529439","340802.299417","341569.713388","342337.311623","343104.131988","342347.145995","Mapping"
"Blocked","Female","ball","6","F_dime.wav","None","725.44235969","118","336983.369465","343871.849563","330044.718582","330812.229631","331579.151095","332346.746239","333113.843001","333864.429187","337750.66997","338518.029218","339284.971705","340052.529439","340802.299417","341569.713388","342337.311623","343104.131988","343113.179524","Mapping"
"Blocked","Female","ball","6","F_park.wav","None","720.74514789","118","336983.369465","343871.849563","344622.316718","330812.229631","331579.151095","332346.746239","333113.843001","333864.429187","337750.66997","338518.029218","339284.971705","340052.529439","340802.299417","341569.713388","342337.311623","343104.131988","343881.516365","Mapping"
"Blocked","Female","ball","6","F_park.wav","None","734.047473597","118","336983.369465","343871.849563","344622.316718","345389.496029","331579.151095","332346.746239","333113.843001","333864.429187","337750.66997","338518.029218","339284.971705","340052.529439","340802.299417","341569.713388","342337.311623","343104.131988","344632.003925","Mapping"
"Blocked","Female","ball","6","F_ball.wav","None","729.667778854","118","336983.369465","343871.849563","344622.316718","345389.496029","346156.903198","332346.746239","333113.843001","333864.429187","337750.66997","338518.029218","339284.971705","340052.529439","340802.299417","341569.713388","342337.311623","343104.131988","345400.095286","Mapping"
"Blocked","Female","ball","6","F_jolt.wav","space","595.738655335","118","336983.369465","343871.849563","344622.316718","345389.496029","346156.903198","346923.680279","333113.843001","333864.429187","337750.66997","338518.029218","339284.971705","340052.529439","340802.299417","341569.713388","342337.311623","343104.131988","346166.557015","Mapping"
"Blocked","Female","ball","6","F_ball.wav","None","724.454254043","118","336983.369465","343871.849563","344622.316718","345389.496029","346156.903198","346923.680279","347691.29521","333864.429187","337750.66997","338518.029218","339284.971705","340052.529439","340802.299417","341569.713388","342337.311623","343104.131988","346932.644648","Mapping"
"Blocked","Female","ball","6","F_jolt.wav","space","620.249301894","118","336983.369465","343871.849563","344622.316718","345389.496029","346156.903198","346923.680279","347691.29521","348441.900564","337750.66997","338518.029218","339284.971705","340052.529439","340802.299417","341569.713388","342337.311623","343104.131988","347701.020445","Mapping"
"Blocked","Female","done","22","F_dime.wav","None","732.179162471","118","351560.723048","343871.849563","344622.316718","345389.496029","346156.903198","346923.680279","347691.29521","348441.900564","337750.66997","338518.029218","339284.971705","340052.529439","340802.299417","341569.713388","342337.311623","343104.131988","348452.065128","Mapping"
"Blocked","Female","done","22","F_done.wav","None","735.367318077","118","351560.723048","343871.849563","344622.316718","345389.496029","346156.903198","346923.680279","347691.29521","348441.900564","352328.157733","338518.029218","339284.971705","340052.529439","340802.299417","341569.713388","342337.311623","343104.131988","351570.414275","Mapping"
"Blocked","Female","done","22","F_park.wav","space","528.243249602","118","351560.723048","343871.849563","344622.316718","345389.496029","346156.903198","346923.680279","347691.29521","348441.900564","352328.157733","353095.224506","339284.971705","340052.529439","340802.299417","341569.713388","342337.311623","343104.131988","352337.863181","Mapping"
"Blocked","Female","done","22","F_depth.wav","None","728.233232498","118","351560.723048","343871.849563","344622.316718","345389.496029","346156.903198","346923.680279","347691.29521","348441.900564","352328.157733","353095.224506","353862.520065","340052.529439","340802.299417","341569.713388","342337.311623","343104.131988","353105.009411","Mapping"
"Blocked","Female","done","22","F_lash.wav","None","724.636354862","118","351560.723048","343871.849563","344622.316718","345389.496029","346156.903198","346923.680279","347691.29521","348441.900564","352328.157733","353095.224506","353862.520065","354629.744515","340802.299417","341569.713388","342337.311623","343104.131988","353872.347635","Mapping"
"Blocked","Female","done","22","F_jolt.wav","None","721.226524765","118","351560.723048","343871.849563","344622.316718","345389.496029","346156.903198","346923.680279","347691.29521","348441.900564","352328.157733","353095.224506","353862.520065","354629.744515","355380.088311","341569.713388","342337.311623","343104.131988","354639.840135","Mapping"
"Blocked","Female","done","22","F_gnash.wav","None","735.24797865","118","351560.723048","343871.849563","344622.316718","345389.496029","346156.903198","346923.680279","347691.29521","348441.900564","352328.157733","353095.224506","353862.520065","354629.744515","355380.088311","356147.058005","342337.311623","343104.131988","355389.986681","Mapping"
"Blocked","Female","done","22","F_done.wav","None","734.080863884","118","351560.723048","343871.849563","344622.316718","345389.496029","346156.903198","346923.680279","347691.29521","348441.900564","352328.157733","353095.224506","353862.520065","354629.744515","355380.088311","356147.058005","356914.106846","343104.131988","356156.148515","Mapping"
"Blocked","Female","done","22","F_dime.wav","space","518.740616695","118","351560.723048","343871.849563","344622.316718","345389.496029","346156.903198","346923.680279","347691.29521","348441.900564","352328.157733","353095.224506","353862.520065","354629.744515","355380.088311","356147.058005","356914.106846","357682.042077","356923.224873","Mapping"
"Blocked","Female","done","22","F_done.wav","None","727.188548859","118","351560.723048","358449.100502","344622.316718","345389.496029","346156.903198","346923.680279","347691.29521","348441.900564","352328.157733","353095.224506","353862.520065","354629.744515","355380.088311","356147.058005","356914.106846","357682.042077","357692.265693","Mapping"
"Blocked","Female","done","22","F_cling.wav","space","582.747663299","118","351560.723048","358449.100502","359216.457276","345389.496029","346156.903198","346923.680279","347691.29521","348441.900564","352328.157733","353095.224506","353862.520065","354629.744515","355380.088311","356147.058005","356914.106846","357682.042077","358459.189939","Mapping"
"Blocked","Female","done","22","F_ball.wav","None","721.294542047","118","351560.723048","358449.100502","359216.457276","359966.467788","346156.903198","346923.680279","347691.29521","348441.900564","352328.157733","353095.224506","353862.520065","354629.744515","355380.088311","356147.058005","356914.106846","357682.042077","359225.677638","Mapping"
"Blocked","Female","done","22","F_dime.wav","None","735.767074206","118","351560.723048","358449.100502","359216.457276","359966.467788","360733.957814","346923.680279","347691.29521","348441.900564","352328.157733","353095.224506","353862.520065","354629.744515","355380.088311","356147.058005","356914.106846","357682.042077","359975.732979","Mapping"
"Blocked","Female","done","22","F_done.wav","None","731.665941144","118","351560.723048","358449.100502","359216.457276","359966.467788","360733.957814","361501.437947","347691.29521","348441.900564","352328.157733","353095.224506","353862.520065","354629.744515","355380.088311","356147.058005","356914.106846","357682.042077","360743.729116","Mapping"
"Blocked","Female","done","22","F_greet.wav","space","497.709981733","118","351560.723048","358449.100502","359216.457276","359966.467788","360733.957814","361501.437947","362268.32602","348441.900564","352328.157733","353095.224506","353862.520065","354629.744515","355380.088311","356147.058005","356914.106846","357682.042077","361512.134593","Mapping"
"Blocked","Female","done","22","F_ball.wav","None","726.072137899","118","351560.723048","358449.100502","359216.457276","359966.467788","360733.957814","361501.437947","362268.32602","363035.850983","352328.157733","353095.224506","353862.520065","354629.744515","355380.088311","356147.058005","356914.106846","357682.042077","362277.642842","Mapping"
"Blocked","Female","tile","18","F_reek.wav","None","721.909789296","118","366137.992229","358449.100502","359216.457276","359966.467788","360733.957814","361501.437947","362268.32602","363035.850983","352328.157733","353095.224506","353862.520065","354629.744515","355380.088311","356147.058005","356914.106846","357682.042077","363045.6869","Mapping"
"Blocked","Female","tile","18","F_tile.wav","None","735.880539389","118","366137.992229","358449.100502","359216.457276","359966.467788","360733.957814","361501.437947","362268.32602","363035.850983","366905.04849","353095.224506","353862.520065","354629.744515","355380.088311","356147.058005","356914.106846","357682.042077","366147.504755","Mapping"
"Blocked","Female","tile","18","F_cave.wav","space","614.138567282","118","366137.992229","358449.100502","359216.457276","359966.467788","360733.957814","361501.437947","362268.32602","363035.850983","366905.04849","367672.33972","353862.520065","354629.744515","355380.088311","356147.058005","356914.106846","357682.042077","366914.540611","Mapping"
"Blocked","Female","tile","18","F_tile.wav","None","729.281007851","118","366137.992229","358449.100502","359216.457276","359966.467788","360733.957814","361501.437947","362268.32602","363035.850983","366905.04849","367672.33972","368439.751836","354629.744515","355380.088311","356147.058005","356914.106846","357682.042077","367681.408279","Mapping"
"Blocked","Female","tile","18","F_priest.wav","space","718.984427745","118","366137.992229","358449.100502","359216.457276","359966.467788","360733.957814","361501.437947","362268.32602","363035.850983","366905.04849","367672.33972","368439.751836","369206.679174","355380.088311","356147.058005","356914.106846","357682.042077","368449.657007","Mapping"
"Blocked","Female","tile","18","F_cave.wav","None","722.182785947","118","366137.992229","358449.100502","359216.457276","359966.467788","360733.957814","361501.437947","362268.32602","363035.850983","366905.04849","367672.33972","368439.751836","369206.679174","369957.063162","356147.058005","356914.106846","357682.042077","369216.077307","Mapping"
"Blocked","Female","tile","18","F_done.wav","None","735.94670165","118","366137.992229","358449.100502","359216.457276","359966.467788","360733.957814","361501.437947","362268.32602","363035.850983","366905.04849","367672.33972","368439.751836","369206.679174","369957.063162","370724.378198","356914.106846","357682.042077","369966.362361","Mapping"
"Blocked","Female","tile","18","F_jolt.wav","None","732.645390031","118","366137.992229","358449.100502","359216.457276","359966.467788","360733.957814","361501.437947","362268.32602","363035.850983","366905.04849","367672.33972","368439.751836","369206.679174","369957.063162","370724.378198","371491.643458","357682.042077","370733.678325","Mapping"
"Blocked","Female","tile","18","F_knife.wav","None","729.502373186","118","366137.992229","358449.100502","359216.457276","359966.467788","360733.957814","361501.437947","362268.32602","363035.850983","366905.04849","367672.33972","368439.751836","369206.679174","369957.063162","370724.378198","371491.643458","372258.909027","371500.797039","Mapping"
"Blocked","Female","tile","18","F_tile.wav","None","726.540220479","118","366137.992229","373026.62382","359216.457276","359966.467788","360733.957814","361501.437947","362268.32602","363035.850983","366905.04849","367672.33972","368439.751836","369206.679174","369957.063162","370724.378198","371491.643458","372258.909027","372267.858556","Mapping"
"Blocked","Female","tile","18","F_cad.wav","space","571.677541186","118","366137.992229","373026.62382","373776.476346","359966.467788","360733.957814","361501.437947","362268.32602","363035.850983","366905.04849","367672.33972","368439.751836","369206.679174","369957.063162","370724.378198","371491.643458","372258.909027","373036.820847","Mapping"
"Blocked","Female","tile","18","F_reek.wav","None","736.236393452","118","366137.992229","373026.62382","373776.476346","374544.151874","360733.957814","361501.437947","362268.32602","363035.850983","366905.04849","367672.33972","368439.751836","369206.679174","369957.063162","370724.378198","371491.643458","372258.909027","373785.59128","Mapping"
"Blocked","Female","tile","18","F_romp.wav","None","731.767039571","118","366137.992229","373026.62382","373776.476346","374544.151874","375311.507721","361501.437947","362268.32602","363035.850983","366905.04849","367672.33972","368439.751836","369206.679174","369957.063162","370724.378198","371491.643458","372258.909027","374554.146086","Mapping"
"Blocked","Female","tile","18","F_greet.wav","None","728.780462465","118","366137.992229","373026.62382","373776.476346","374544.151874","375311.507721","376078.741136","362268.32602","363035.850983","366905.04849","367672.33972","368439.751836","369206.679174","369957.063162","370724.378198","371491.643458","372258.909027","375321.128456","Mapping"
"Blocked","Female","tile","18","F_tile.wav","None","725.939195021","118","366137.992229","373026.62382","373776.476346","374544.151874","375311.507721","376078.741136","376845.556245","363035.850983","366905.04849","367672.33972","368439.751836","369206.679174","369957.063162","370724.378198","371491.643458","372258.909027","376088.063832","Mapping"
"Blocked","Female","tile","18","F_greet.wav","space","650.779478077","118","366137.992229","373026.62382","373776.476346","374544.151874","375311.507721","376078.741136","376845.556245","377596.432432","366905.04849","367672.33972","368439.751836","369206.679174","369957.063162","370724.378198","371491.643458","372258.909027","376854.599143","Mapping"
"Blocked","Female","cave","9","F_tile.wav","None","736.184762151","118","380715.104969","373026.62382","373776.476346","374544.151874","375311.507721","376078.741136","376845.556245","377596.432432","366905.04849","367672.33972","368439.751836","369206.679174","369957.063162","370724.378198","371491.643458","372258.909027","377605.999681","Mapping"
"Blocked","Female","cave","9","F_knife.wav","None","736.123546594","118","380715.104969","373026.62382","373776.476346","374544.151874","375311.507721","376078.741136","376845.556245","377596.432432","381482.624985","367672.33972","368439.751836","369206.679174","369957.063162","370724.378198","371491.643458","372258.909027","380724.751984","Mapping"
"Blocked","Female","cave","9","F_cave.wav","None","732.437009807","118","380715.104969","373026.62382","373776.476346","374544.151874","375311.507721","376078.741136","376845.556245","377596.432432","381482.624985","382250.080384","368439.751836","369206.679174","369957.063162","370724.378198","371491.643458","372258.909027","381492.371243","Mapping"
"Blocked","Female","cave","9","F_priest.wav","space","629.644034634","118","380715.104969","373026.62382","373776.476346","374544.151874","375311.507721","376078.741136","376845.556245","377596.432432","381482.624985","382250.080384","383017.255057","369206.679174","369957.063162","370724.378198","371491.643458","372258.909027","382259.58178","Mapping"
"Blocked","Female","cave","9","F_done.wav","None","724.734361589","118","380715.104969","373026.62382","373776.476346","374544.151874","375311.507721","376078.741136","376845.556245","377596.432432","381482.624985","382250.080384","383017.255057","383784.246084","369957.063162","370724.378198","371491.643458","372258.909027","383027.093448","Mapping"
"Blocked","Female","cave","9","F_cave.wav","None","722.722905004","118","380715.104969","373026.62382","373776.476346","374544.151874","375311.507721","376078.741136","376845.556245","377596.432432","381482.624985","382250.080384","383017.255057","383784.246084","384535.045905","370724.378198","371491.643458","372258.909027","383793.984613","Mapping"
"Blocked","Female","cave","9","F_lash.wav","space","575.596573413","118","380715.104969","373026.62382","373776.476346","374544.151874","375311.507721","376078.741136","376845.556245","377596.432432","381482.624985","382250.080384","383017.255057","383784.246084","384535.045905","385302.199246","371491.643458","372258.909027","384544.577291","Mapping"
"Blocked","Female","cave","9","F_gnash.wav","None","732.724846588","118","380715.104969","373026.62382","373776.476346","374544.151874","375311.507721","376078.741136","376845.556245","377596.432432","381482.624985","382250.080384","383017.255057","383784.246084","384535.045905","385302.199246","386069.44441","372258.909027","385311.418989","Mapping"
"Blocked","Female","cave","9","F_greet.wav","None","729.114056332","118","380715.104969","373026.62382","373776.476346","374544.151874","375311.507721","376078.741136","376845.556245","377596.432432","381482.624985","382250.080384","383017.255057","383784.246084","384535.045905","385302.199246","386069.44441","386836.165223","386079.281874","Mapping"
"Blocked","Female","cave","9","F_cave.wav","None","727.027162386","118","380715.104969","387603.763458","373776.476346","374544.151874","375311.507721","376078.741136","376845.556245","377596.432432","381482.624985","382250.080384","383017.255057","383784.246084","384535.045905","385302.199246","386069.44441","386836.165223","386845.38342","Mapping"
"Blocked","Female","cave","9","F_greet.wav","space","634.59012784","118","380715.104969","387603.763458","388370.364313","374544.151874","375311.507721","376078.741136","376845.556245","377596.432432","381482.624985","382250.080384","383017.255057","383784.246084","384535.045905","385302.199246","386069.44441","386836.165223","387613.479418","Mapping"
"Blocked","Female","cave","9","F_cave.wav","None","723.037330361","118","380715.104969","387603.763458","388370.364313","389121.302024","375311.507721","376078.741136","376845.556245","377596.432432","381482.624985","382250.080384","383017.255057","383784.246084","384535.045905","385302.199246","386069.44441","386836.165223","388379.516657","Mapping"
"Blocked","Female","cave","9","F_done.wav","space","694.472235336","118","380715.104969","387603.763458","388370.364313","389121.302024","389888.913554","376078.741136","376845.556245","377596.432432","381482.624985","382250.080384","383017.255057","383784.246084","384535.045905","385302.199246","386069.44441","386836.165223","389130.52795","Mapping"
"Blocked","Female","cave","9","F_cling.wav","None","730.687419767","118","380715.104969","387603.763458","388370.364313","389121.302024","389888.913554","390655.836254","376845.556245","377596.432432","381482.624985","382250.080384","383017.255057","383784.246084","384535.045905","385302.199246","386069.44441","386836.165223","389899.259601","Mapping"
"Blocked","Female","cave","9","F_gnash.wav","None","728.975857564","118","380715.104969","387603.763458","388370.364313","389121.302024","389888.913554","390655.836254","391423.16242","377596.432432","381482.624985","382250.080384","383017.255057","383784.246084","384535.045905","385302.199246","386069.44441","386836.165223","390665.024152","Mapping"
"Blocked","Female","cave","9","F_gnash.wav","None","724.815673166","118","380715.104969","387603.763458","388370.364313","389121.302024","389888.913554","390655.836254","391423.16242","392190.610399","381482.624985","382250.080384","383017.255057","383784.246084","384535.045905","385302.199246","386069.44441","386836.165223","391433.175801","Mapping"
"Blocked","Female","tile","15","F_priest.wav","None","721.904842576","118","395293.03268","387603.763458","388370.364313","389121.302024","389888.913554","390655.836254","391423.16242","392190.610399","381482.624985","382250.080384","383017.255057","383784.246084","384535.045905","385302.199246","386069.44441","386836.165223","392200.187542","Mapping"
"Blocked","Female","tile","15","F_done.wav","None","735.809121237","118","395293.03268","387603.763458","388370.364313","389121.302024","389888.913554","390655.836254","391423.16242","392190.610399","396060.137481","382250.080384","383017.255057","383784.246084","384535.045905","385302.199246","386069.44441","386836.165223","395302.661764","Mapping"
"Blocked","Female","tile","15","F_cling.wav","None","733.140061187","118","395293.03268","387603.763458","388370.364313","389121.302024","389888.913554","390655.836254","391423.16242","392190.610399","396060.137481","396827.313701","383017.255057","383784.246084","384535.045905","385302.199246","386069.44441","386836.165223","396069.986075","Mapping"
"Blocked","Female","tile","15","F_tile.wav","None","730.690820637","118","395293.03268","387603.763458","388370.364313","389121.302024","389888.913554","390655.836254","391423.16242","392190.610399","396060.137481","396827.313701","397594.219087","383784.246084","384535.045905","385302.199246","386069.44441","386836.165223","396836.767176","Mapping"
"Blocked","Female","tile","15","F_cad.wav","space","508.334899787","118","395293.03268","387603.763458","388370.364313","389121.302024","389888.913554","390655.836254","391423.16242","392190.610399","396060.137481","396827.313701","397594.219087","398361.644806","384535.045905","385302.199246","386069.44441","386836.165223","397603.467583","Mapping"
"Blocked","Female","tile","15","F_tile.wav","None","724.373560806","118","395293.03268","387603.763458","388370.364313","389121.302024","389888.913554","390655.836254","391423.16242","392190.610399","396060.137481","396827.313701","397594.219087","398361.644806","399128.778669","385302.199246","386069.44441","386836.165223","398371.080349","Mapping"
"Blocked","Female","tile","15","F_reek.wav","space","574.711730384","118","395293.03268","387603.763458","388370.364313","389121.302024","389888.913554","390655.836254","391423.16242","392190.610399","396060.137481","396827.313701","397594.219087","398361.644806","399128.778669","399879.484194","386069.44441","386836.165223","399137.968113","Mapping"
"Blocked","Female","tile","15","F_done.wav","None","732.608289705","118","395293.03268","387603.763458","388370.364313","389121.302024","389888.913554","390655.836254","391423.16242","392190.610399","396060.137481","396827.313701","397594.219087","398361.644806","399128.778669","399879.484194","400646.708953","386836.165223","399890.021926","Mapping"
"Blocked","Female","tile","15","F_jaw.wav","None","730.009411112","118","395293.03268","387603.763458","388370.364313","389121.302024","389888.913554","390655.836254","391423.16242","392190.610399","396060.137481","396827.313701","397594.219087","398361.644806","399128.778669","399879.484194","400646.708953","401413.526226","400656.88372","Mapping"
"Blocked","Female","tile","15","F_bluff.wav","None","728.095342914","118","395293.03268","402180.675238","388370.364313","389121.302024","389888.913554","390655.836254","391423.16242","392190.610399","396060.137481","396827.313701","397594.219087","398361.644806","399128.778669","399879.484194","400646.708953","401413.526226","401422.899008","Mapping"
"Blocked","Female","tile","15","F_ball.wav","None","725.507285271","118","395293.03268","402180.675238","402948.46856","389121.302024","389888.913554","390655.836254","391423.16242","392190.610399","396060.137481","396827.313701","397594.219087","398361.644806","399128.778669","399879.484194","400646.708953","401413.526226","402189.676708","Mapping"
"Blocked","Female","tile","15","F_knife.wav","None","721.729543497","118","395293.03268","402180.675238","402948.46856","403698.675703","389888.913554","390655.836254","391423.16242","392190.610399","396060.137481","396827.313701","397594.219087","398361.644806","399128.778669","399879.484194","400646.708953","401413.526226","402957.8568","Mapping"
"Blocked","Female","tile","15","F_tile.wav","None","735.308575866","118","395293.03268","402180.675238","402948.46856","403698.675703","404466.288779","390655.836254","391423.16242","392190.610399","396060.137481","396827.313701","397594.219087","398361.644806","399128.778669","399879.484194","400646.708953","401413.526226","403708.676408","Mapping"
"Blocked","Female","tile","15","F_dime.wav","space","628.626867081","118","395293.03268","402180.675238","402948.46856","403698.675703","404466.288779","405233.204368","391423.16242","392190.610399","396060.137481","396827.313701","397594.219087","398361.644806","399128.778669","399879.484194","400646.708953","401413.526226","404475.934867","Mapping"
"Blocked","Female","tile","15","F_tile.wav","None","728.986369344","118","395293.03268","402180.675238","402948.46856","403698.675703","404466.288779","405233.204368","406000.318135","392190.610399","396060.137481","396827.313701","397594.219087","398361.644806","399128.778669","399879.484194","400646.708953","401413.526226","405242.790168","Mapping"
"Blocked","Female","tile","15","F_ball.wav","space","710.91603204","118","395293.03268","402180.675238","402948.46856","403698.675703","404466.288779","405233.204368","406000.318135","406768.007885","396060.137481","396827.313701","397594.219087","398361.644806","399128.778669","399879.484194","400646.708953","401413.526226","406009.594765","Mapping"
"Blocked","Female","done","19","F_tile.wav","None","721.66647292","118","409869.998565","402180.675238","402948.46856","403698.675703","404466.288779","405233.204368","406000.318135","406768.007885","396060.137481","396827.313701","397594.219087","398361.644806","399128.778669","399879.484194","400646.708953","401413.526226","406777.940264","Mapping"
"Blocked","Female","done","19","F_romp.wav","None","735.538907116","118","409869.998565","402180.675238","402948.46856","403698.675703","404466.288779","405233.204368","406000.318135","406768.007885","410637.453965","396827.313701","397594.219087","398361.644806","399128.778669","399879.484194","400646.708953","401413.526226","409879.557776","Mapping"
"Blocked","Female","done","19","F_done.wav","None","731.123039543","118","409869.998565","402180.675238","402948.46856","403698.675703","404466.288779","405233.204368","406000.318135","406768.007885","410637.453965","411404.62771","397594.219087","398361.644806","399128.778669","399879.484194","400646.708953","401413.526226","410647.881942","Mapping"
"Blocked","Female","done","19","F_depth.wav","space","506.23873077","118","409869.998565","402180.675238","402948.46856","403698.675703","404466.288779","405233.204368","406000.318135","406768.007885","410637.453965","411404.62771","412171.892043","398361.644806","399128.778669","399879.484194","400646.708953","401413.526226","411414.109629","Mapping"
"Blocked","Female","done","19","F_knife.wav","None","725.079394717","118","409869.998565","402180.675238","402948.46856","403698.675703","404466.288779","405233.204368","406000.318135","406768.007885","410637.453965","411404.62771","412171.892043","412939.120203","399128.778669","399879.484194","400646.708953","401413.526226","412181.372416","Mapping"
"Blocked","Female","done","19","F_cling.wav","None","721.820130158","118","409869.998565","402180.675238","402948.46856","403698.675703","404466.288779","405233.204368","406000.318135","406768.007885","410637.453965","411404.62771","412171.892043","412939.120203","413689.696495","399879.484194","400646.708953","401413.526226","412948.951483","Mapping"
"Blocked","Female","done","19","F_done.wav","None","735.654536518","118","409869.998565","402180.675238","402948.46856","403698.675703","404466.288779","405233.204368","406000.318135","406768.007885","410637.453965","411404.62771","412171.892043","412939.120203","413689.696495","414456.983087","400646.708953","401413.526226","413699.426676","Mapping"
"Blocked","Female","done","19","F_gnash.wav","space","509.353304034","118","409869.998565","402180.675238","402948.46856","403698.675703","404466.288779","405233.204368","406000.318135","406768.007885","410637.453965","411404.62771","412171.892043","412939.120203","413689.696495","414456.983087","415224.069029","401413.526226","414466.863834","Mapping"
"Blocked","Female","done","19","F_done.wav","None","728.828074571","118","409869.998565","402180.675238","402948.46856","403698.675703","404466.288779","405233.204368","406000.318135","406768.007885","410637.453965","411404.62771","412171.892043","412939.120203","413689.696495","414456.983087","415224.069029","415990.984927","415233.978529","Mapping"
"Blocked","Female","done","19","F_depth.wav","space","630.802801825","118","409869.998565","416758.58409","402948.46856","403698.675703","404466.288779","405233.204368","406000.318135","406768.007885","410637.453965","411404.62771","412171.892043","412939.120203","413689.696495","414456.983087","415224.069029","415990.984927","416000.435001","Mapping"
"Blocked","Female","done","19","F_greet.wav","None","722.302125345","118","409869.998565","416758.58409","417525.917058","403698.675703","404466.288779","405233.204368","406000.318135","406768.007885","410637.453965","411404.62771","412171.892043","412939.120203","413689.696495","414456.983087","415224.069029","415990.984927","416768.329421","Mapping"
"Blocked","Female","done","19","F_done.wav","None","719.931104672","118","409869.998565","416758.58409","417525.917058","418275.997752","404466.288779","405233.204368","406000.318135","406768.007885","410637.453965","411404.62771","412171.892043","412939.120203","413689.696495","414456.983087","415224.069029","415990.984927","417535.739373","Mapping"
"Blocked","Female","done","19","F_cad.wav","space","578.912106837","118","409869.998565","416758.58409","417525.917058","418275.997752","419043.412959","405233.204368","406000.318135","406768.007885","410637.453965","411404.62771","412171.892043","412939.120203","413689.696495","414456.983087","415224.069029","415990.984927","418285.201727","Mapping"
"Blocked","Female","done","19","F_bluff.wav","None","730.429263262","118","409869.998565","416758.58409","417525.917058","418275.997752","419043.412959","419810.865576","406000.318135","406768.007885","410637.453965","411404.62771","412171.892043","412939.120203","413689.696495","414456.983087","415224.069029","415990.984927","419053.084707","Mapping"
"Blocked","Female","done","19","F_lash.wav","None","726.756639109","118","409869.998565","416758.58409","417525.917058","418275.997752","419043.412959","419810.865576","420577.646676","406768.007885","410637.453965","411404.62771","412171.892043","412939.120203","413689.696495","414456.983087","415224.069029","415990.984927","419821.195546","Mapping"
"Blocked","Female","done","19","F_cave.wav","None","725.881071165","118","409869.998565","416758.58409","417525.917058","418275.997752","419043.412959","419810.865576","420577.646676","421345.098675","410637.453965","411404.62771","412171.892043","412939.120203","413689.696495","414456.983087","415224.069029","415990.984927","420587.143126","Mapping"
"Blocked","Female","done","20","F_ball.wav","None","723.054334681","118","424464.119955","416758.58409","417525.917058","418275.997752","419043.412959","419810.865576","420577.646676","421345.098675","410637.453965","411404.62771","412171.892043","412939.120203","413689.696495","414456.983087","415224.069029","415990.984927","421354.698077","Mapping"
"Blocked","Female","done","20","F_bluff.wav","None","720.451127723","118","424464.119955","416758.58409","417525.917058","418275.997752","419043.412959","419810.865576","420577.646676","421345.098675","425214.699339","411404.62771","412171.892043","412939.120203","413689.696495","414456.983087","415224.069029","415990.984927","424473.674838","Mapping"
"Blocked","Female","done","20","F_depth.wav","None","734.121365094","118","424464.119955","416758.58409","417525.917058","418275.997752","419043.412959","419810.865576","420577.646676","421345.098675","425214.699339","425981.927808","412171.892043","412939.120203","413689.696495","414456.983087","415224.069029","415990.984927","425224.233198","Mapping"
"Blocked","Female","done","20","F_done.wav","None","730.950522979","118","424464.119955","416758.58409","417525.917058","418275.997752","419043.412959","419810.865576","420577.646676","421345.098675","425214.699339","425981.927808","426748.939858","412939.120203","413689.696495","414456.983087","415224.069029","415990.984927","425991.636347","Mapping"
"Blocked","Female","done","20","F_dime.wav","space","488.572168819","118","424464.119955","416758.58409","417525.917058","418275.997752","419043.412959","419810.865576","420577.646676","421345.098675","425214.699339","425981.927808","426748.939858","427515.933049","413689.696495","414456.983087","415224.069029","415990.984927","426758.322533","Mapping"
"Blocked","Female","done","20","F_knife.wav","None","724.453944888","118","424464.119955","416758.58409","417525.917058","418275.997752","419043.412959","419810.865576","420577.646676","421345.098675","425214.699339","425981.927808","426748.939858","427515.933049","428283.194908","414456.983087","415224.069029","415990.984927","427525.439082","Mapping"
"Blocked","Female","done","20","F_done.wav","None","722.256059104","118","424464.119955","416758.58409","417525.917058","418275.997752","419043.412959","419810.865576","420577.646676","421345.098675","425214.699339","425981.927808","426748.939858","427515.933049","428283.194908","429034.019463","415224.069029","415990.984927","428292.033445","Mapping"
"Blocked","Female","done","20","F_jaw.wav","space","492.143694544","118","424464.119955","416758.58409","417525.917058","418275.997752","419043.412959","419810.865576","420577.646676","421345.098675","425214.699339","425981.927808","426748.939858","427515.933049","428283.194908","429034.019463","429801.485683","415990.984927","429043.663695","Mapping"
"Blocked","Female","done","20","F_done.wav","None","731.177144218","118","424464.119955","416758.58409","417525.917058","418275.997752","419043.412959","419810.865576","420577.646676","421345.098675","425214.699339","425981.927808","426748.939858","427515.933049","428283.194908","429034.019463","429801.485683","430568.814014","429811.108274","Mapping"
"Blocked","Female","done","20","F_jaw.wav","space","565.282988988","118","424464.119955","431335.796074","417525.917058","418275.997752","419043.412959","419810.865576","420577.646676","421345.098675","425214.699339","425981.927808","426748.939858","427515.933049","428283.194908","429034.019463","429801.485683","430568.814014","430578.48267","Mapping"
"Blocked","Female","done","20","F_cave.wav","None","724.377889186","118","424464.119955","431335.796074","432103.169234","418275.997752","419043.412959","419810.865576","420577.646676","421345.098675","425214.699339","425981.927808","426748.939858","427515.933049","428283.194908","429034.019463","429801.485683","430568.814014","431345.697845","Mapping"
"Blocked","Female","done","20","F_cling.wav","None","721.434286635","118","424464.119955","431335.796074","432103.169234","432870.153769","419043.412959","419810.865576","420577.646676","421345.098675","425214.699339","425981.927808","426748.939858","427515.933049","428283.194908","429034.019463","429801.485683","430568.814014","432113.056474","Mapping"
"Blocked","Female","done","20","F_knife.wav","None","719.766935683","118","424464.119955","431335.796074","432103.169234","432870.153769","433620.884954","419810.865576","420577.646676","421345.098675","425214.699339","425981.927808","426748.939858","427515.933049","428283.194908","429034.019463","429801.485683","430568.814014","432879.874984","Mapping"
"Blocked","Female","done","20","F_done.wav","None","733.977601281","118","424464.119955","431335.796074","432103.169234","432870.153769","433620.884954","434388.154852","420577.646676","421345.098675","425214.699339","425981.927808","426748.939858","427515.933049","428283.194908","429034.019463","429801.485683","430568.814014","433630.03297","Mapping"
"Blocked","Female","done","20","F_romp.wav","space","529.166738808","118","424464.119955","431335.796074","432103.169234","432870.153769","433620.884954","434388.154852","435155.078789","421345.098675","425214.699339","425981.927808","426748.939858","427515.933049","428283.194908","429034.019463","429801.485683","430568.814014","434398.487296","Mapping"
"Blocked","Female","done","20","F_reek.wav","None","727.206171519","118","424464.119955","431335.796074","432103.169234","432870.153769","433620.884954","434388.154852","435155.078789","435922.409593","425214.699339","425981.927808","426748.939858","427515.933049","428283.194908","429034.019463","429801.485683","430568.814014","435164.469193","Mapping"
"Blocked","Female","tile","14","F_gnash.wav","None","724.220212753","118","439024.726447","431335.796074","432103.169234","432870.153769","433620.884954","434388.154852","435155.078789","435922.409593","425214.699339","425981.927808","426748.939858","427515.933049","428283.194908","429034.019463","429801.485683","430568.814014","435931.804635","Mapping"
"Blocked","Female","tile","14","F_cave.wav","None","736.021829842","118","439024.726447","431335.796074","432103.169234","432870.153769","433620.884954","434388.154852","435155.078789","435922.409593","439792.090332","425981.927808","426748.939858","427515.933049","428283.194908","429034.019463","429801.485683","430568.814014","439034.172193","Mapping"
"Blocked","Female","tile","14","F_tile.wav","None","733.110690097","118","439024.726447","431335.796074","432103.169234","432870.153769","433620.884954","434388.154852","435155.078789","435922.409593","439792.090332","440559.356519","426748.939858","427515.933049","428283.194908","429034.019463","429801.485683","430568.814014","439801.756515","Mapping"
"Blocked","Female","tile","14","F_gnash.wav","space","685.891545829","118","439024.726447","431335.796074","432103.169234","432870.153769","433620.884954","434388.154852","435155.078789","435922.409593","439792.090332","440559.356519","441326.553762","427515.933049","428283.194908","429034.019463","429801.485683","430568.814014","440568.596358","Mapping"
"Blocked","Female","tile","14","F_done.wav","None","726.145101886","118","439024.726447","431335.796074","432103.169234","432870.153769","433620.884954","434388.154852","435155.078789","435922.409593","439792.090332","440559.356519","441326.553762","442093.791506","428283.194908","429034.019463","429801.485683","430568.814014","441336.580746","Mapping"
"Blocked","Female","tile","14","F_priest.wav","None","723.396585279","118","439024.726447","431335.796074","432103.169234","432870.153769","433620.884954","434388.154852","435155.078789","435922.409593","439792.090332","440559.356519","441326.553762","442093.791506","442860.994314","429034.019463","429801.485683","430568.814014","442103.683692","Mapping"
"Blocked","Female","tile","14","F_cave.wav","None","721.474787846","118","439024.726447","431335.796074","432103.169234","432870.153769","433620.884954","434388.154852","435155.078789","435922.409593","439792.090332","440559.356519","441326.553762","442093.791506","442860.994314","443611.501661","429801.485683","430568.814014","442870.322575","Mapping"
"Blocked","Female","tile","14","F_tile.wav","None","736.115508189","118","439024.726447","431335.796074","432103.169234","432870.153769","433620.884954","434388.154852","435155.078789","435922.409593","439792.090332","440559.356519","441326.553762","442093.791506","442860.994314","443611.501661","444378.692411","430568.814014","443620.869496","Mapping"
"Blocked","Female","tile","14","F_cave.wav","space","617.779037813","118","439024.726447","431335.796074","432103.169234","432870.153769","433620.884954","434388.154852","435155.078789","435922.409593","439792.090332","440559.356519","441326.553762","442093.791506","442860.994314","443611.501661","444378.692411","445145.655612","444388.606239","Mapping"
"Blocked","Female","tile","14","F_ball.wav","None","730.514903204","118","439024.726447","445913.368241","432103.169234","432870.153769","433620.884954","434388.154852","435155.078789","435922.409593","439792.090332","440559.356519","441326.553762","442093.791506","442860.994314","443611.501661","444378.692411","445145.655612","445154.703148","Mapping"
"Blocked","Female","tile","14","F_cling.wav","None","726.824038051","118","439024.726447","445913.368241","446680.147177","432870.153769","433620.884954","434388.154852","435155.078789","435922.409593","439792.090332","440559.356519","441326.553762","442093.791506","442860.994314","443611.501661","444378.692411","445145.655612","445922.824498","Mapping"
"Blocked","Female","tile","14","F_tile.wav","None","724.983552194","118","439024.726447","445913.368241","446680.147177","447447.775402","433620.884954","434388.154852","435155.078789","435922.409593","439792.090332","440559.356519","441326.553762","442093.791506","442860.994314","443611.501661","444378.692411","445145.655612","446689.191002","Mapping"
"Blocked","Female","tile","14","F_cad.wav","space","596.780247288","118","439024.726447","445913.368241","446680.147177","447447.775402","448198.049635","434388.154852","435155.078789","435922.409593","439792.090332","440559.356519","441326.553762","442093.791506","442860.994314","443611.501661","444378.692411","445145.655612","447457.515477","Mapping"
"Blocked","Female","tile","14","F_tile.wav","None","734.59779525","118","439024.726447","445913.368241","446680.147177","447447.775402","448198.049635","448965.472263","435155.078789","435922.409593","439792.090332","440559.356519","441326.553762","442093.791506","442860.994314","443611.501661","444378.692411","445145.655612","448208.091151","Mapping"
"Blocked","Female","tile","14","F_done.wav","space","606.765493721","118","439024.726447","445913.368241","446680.147177","447447.775402","448198.049635","448965.472263","449732.657448","435922.409593","439792.090332","440559.356519","441326.553762","442093.791506","442860.994314","443611.501661","444378.692411","445145.655612","448975.451326","Mapping"
"Blocked","Female","tile","14","F_priest.wav","None","728.460781233","118","439024.726447","445913.368241","446680.147177","447447.775402","448198.049635","448965.472263","449732.657448","450499.997527","439792.090332","440559.356519","441326.553762","442093.791506","442860.994314","443611.501661","444378.692411","445145.655612","449742.266126","Mapping"
"Blocked","Female","ball","1","F_reek.wav","None","724.053879589","118","453602.014177","445913.368241","446680.147177","447447.775402","448198.049635","448965.472263","449732.657448","450499.997527","439792.090332","440559.356519","441326.553762","442093.791506","442860.994314","443611.501661","444378.692411","445145.655612","450511.165346","Mapping"
"Blocked","Female","ball","1","F_depth.wav","None","735.889505304","118","453602.014177","445913.368241","446680.147177","447447.775402","448198.049635","448965.472263","449732.657448","450499.997527","454369.423201","440559.356519","441326.553762","442093.791506","442860.994314","443611.501661","444378.692411","445145.655612","453611.775894","Mapping"
"Blocked","Female","ball","1","F_bluff.wav","None","732.948066958","118","453602.014177","445913.368241","446680.147177","447447.775402","448198.049635","448965.472263","449732.657448","450499.997527","454369.423201","455136.732054","441326.553762","442093.791506","442860.994314","443611.501661","444378.692411","445145.655612","454379.533352","Mapping"
"Blocked","Female","ball","1","F_ball.wav","None","730.57395457","118","453602.014177","445913.368241","446680.147177","447447.775402","448198.049635","448965.472263","449732.657448","450499.997527","454369.423201","455136.732054","455903.924659","442093.791506","442860.994314","443611.501661","444378.692411","445145.655612","455146.333621","Mapping"
"Blocked","Female","ball","1","F_jolt.wav","space","509.915064962","118","453602.014177","445913.368241","446680.147177","447447.775402","448198.049635","448965.472263","449732.657448","450499.997527","454369.423201","455136.732054","455903.924659","456671.026987","442860.994314","443611.501661","444378.692411","445145.655612","455913.20098","Mapping"
"Blocked","Female","ball","1","F_cad.wav","None","724.78506538","118","453602.014177","445913.368241","446680.147177","447447.775402","448198.049635","448965.472263","449732.657448","450499.997527","454369.423201","455136.732054","455903.924659","456671.026987","457438.00441","443611.501661","444378.692411","445145.655612","456680.302071","Mapping"
"Blocked","Female","ball","1","F_ball.wav","None","722.495974624","118","453602.014177","445913.368241","446680.147177","447447.775402","448198.049635","448965.472263","449732.657448","450499.997527","454369.423201","455136.732054","455903.924659","456671.026987","457438.00441","458188.452706","444378.692411","445145.655612","457447.538269","Mapping"
"Blocked","Female","ball","1","F_reek.wav","space","601.09965397","118","453602.014177","445913.368241","446680.147177","447447.775402","448198.049635","448965.472263","449732.657448","450499.997527","454369.423201","455136.732054","455903.924659","456671.026987","457438.00441","458188.452706","458955.821847","445145.655612","458197.874027","Mapping"
"Blocked","Female","ball","1","F_tile.wav","None","732.961361238","118","453602.014177","445913.368241","446680.147177","447447.775402","448198.049635","448965.472263","449732.657448","450499.997527","454369.423201","455136.732054","455903.924659","456671.026987","457438.00441","458188.452706","458955.821847","459723.397822","458964.991504","Mapping"
"Blocked","Female","ball","1","F_done.wav","None","730.061969924","118","453602.014177","460490.634948","446680.147177","447447.775402","448198.049635","448965.472263","449732.657448","450499.997527","454369.423201","455136.732054","455903.924659","456671.026987","457438.00441","458188.452706","458955.821847","459723.397822","459732.72361","Mapping"
"Blocked","Female","ball","1","F_done.wav","None","727.138154238","118","453602.014177","460490.634948","461257.870836","447447.775402","448198.049635","448965.472263","449732.657448","450499.997527","454369.423201","455136.732054","455903.924659","456671.026987","457438.00441","458188.452706","458955.821847","459723.397822","460500.157986","Mapping"
"Blocked","Female","ball","1","F_ball.wav","None","723.88630973","118","453602.014177","460490.634948","461257.870836","462025.12713","448198.049635","448965.472263","449732.657448","450499.997527","454369.423201","455136.732054","455903.924659","456671.026987","457438.00441","458188.452706","458955.821847","459723.397822","461267.996446","Mapping"
"Blocked","Female","ball","1","F_lash.wav","space","626.856253497","118","453602.014177","460490.634948","461257.870836","462025.12713","462775.521631","448965.472263","449732.657448","450499.997527","454369.423201","455136.732054","455903.924659","456671.026987","457438.00441","458188.452706","458955.821847","459723.397822","462034.989946","Mapping"
"Blocked","Female","ball","1","F_knife.wav","None","734.783296939","118","453602.014177","460490.634948","461257.870836","462025.12713","462775.521631","463542.463809","449732.657448","450499.997527","454369.423201","455136.732054","455903.924659","456671.026987","457438.00441","458188.452706","458955.821847","459723.397822","462784.949754","Mapping"
"Blocked","Female","ball","1","F_ball.wav","None","732.438864827","118","453602.014177","460490.634948","461257.870836","462025.12713","462775.521631","463542.463809","464309.995882","450499.997527","454369.423201","455136.732054","455903.924659","456671.026987","457438.00441","458188.452706","458955.821847","459723.397822","463551.845247","Mapping"
"Blocked","Female","ball","1","F_priest.wav","space","525.807303318","118","453602.014177","460490.634948","461257.870836","462025.12713","462775.521631","463542.463809","464309.995882","465076.796151","454369.423201","455136.732054","455903.924659","456671.026987","457438.00441","458188.452706","458955.821847","459723.397822","464319.980201","Mapping"
"Blocked","Female","tile","13","F_romp.wav","None","726.185293926","118","468212.768885","460490.634948","461257.870836","462025.12713","462775.521631","463542.463809","464309.995882","465076.796151","454369.423201","455136.732054","455903.924659","456671.026987","457438.00441","458188.452706","458955.821847","459723.397822","465085.833484","Mapping"
"Blocked","Female","tile","13","F_tile.wav","None","719.944089797","118","468212.768885","460490.634948","461257.870836","462025.12713","462775.521631","463542.463809","464309.995882","465076.796151","468963.000143","455136.732054","455903.924659","456671.026987","457438.00441","458188.452706","458955.821847","459723.397822","468222.390548","Mapping"
"Blocked","Female","tile","13","F_cave.wav","space","640.940777972","118","468212.768885","460490.634948","461257.870836","462025.12713","462775.521631","463542.463809","464309.995882","465076.796151","468963.000143","469730.605799","455903.924659","456671.026987","457438.00441","458188.452706","458955.821847","459723.397822","468972.699099","Mapping"
"Blocked","Female","tile","13","F_tile.wav","None","730.853443776","118","468212.768885","460490.634948","461257.870836","462025.12713","462775.521631","463542.463809","464309.995882","465076.796151","468963.000143","469730.605799","470497.466665","456671.026987","457438.00441","458188.452706","458955.821847","459723.397822","469739.423622","Mapping"
"Blocked","Female","tile","13","F_depth.wav","space","506.746077881","118","468212.768885","460490.634948","461257.870836","462025.12713","462775.521631","463542.463809","464309.995882","465076.796151","468963.000143","469730.605799","470497.466665","471264.615059","457438.00441","458188.452706","458955.821847","459723.397822","470506.843157","Mapping"
"Blocked","Female","tile","13","F_tile.wav","None","724.702826308","118","468212.768885","460490.634948","461257.870836","462025.12713","462775.521631","463542.463809","464309.995882","465076.796151","468963.000143","469730.605799","470497.466665","471264.615059","472032.265235","458188.452706","458955.821847","459723.397822","471273.8617","Mapping"
"Blocked","Female","tile","13","F_cling.wav","space","635.741474965","118","468212.768885","460490.634948","461257.870836","462025.12713","462775.521631","463542.463809","464309.995882","465076.796151","468963.000143","469730.605799","470497.466665","471264.615059","472032.265235","472782.383956","458955.821847","459723.397822","472041.802804","Mapping"
"Blocked","Female","tile","13","F_ball.wav","None","734.858115946","118","468212.768885","460490.634948","461257.870836","462025.12713","462775.521631","463542.463809","464309.995882","465076.796151","468963.000143","469730.605799","470497.466665","471264.615059","472032.265235","472782.383956","473550.20634","459723.397822","472791.591332","Mapping"
"Blocked","Female","tile","13","F_depth.wav","None","731.208988669","118","468212.768885","460490.634948","461257.870836","462025.12713","462775.521631","463542.463809","464309.995882","465076.796151","468963.000143","469730.605799","470497.466665","471264.615059","472032.265235","472782.383956","473550.20634","474317.514265","473560.210755","Mapping"
"Blocked","Female","tile","13","F_romp.wav","None","728.638862856","118","468212.768885","475084.666678","461257.870836","462025.12713","462775.521631","463542.463809","464309.995882","465076.796151","468963.000143","469730.605799","470497.466665","471264.615059","472032.265235","472782.383956","473550.20634","474317.514265","474327.343072","Mapping"
"Blocked","Female","tile","13","F_ball.wav","None","726.3374053","118","468212.768885","475084.666678","475851.414698","462025.12713","462775.521631","463542.463809","464309.995882","465076.796151","468963.000143","469730.605799","470497.466665","471264.615059","472032.265235","472782.383956","473550.20634","474317.514265","475094.354194","Mapping"
"Blocked","Female","tile","13","F_bluff.wav","None","724.899148918","118","468212.768885","475084.666678","475851.414698","476619.061164","462775.521631","463542.463809","464309.995882","465076.796151","468963.000143","469730.605799","470497.466665","471264.615059","472032.265235","472782.383956","473550.20634","474317.514265","475860.324962","Mapping"
"Blocked","Female","tile","13","F_greet.wav","None","721.159744149","118","468212.768885","475084.666678","475851.414698","476619.061164","477369.291495","463542.463809","464309.995882","465076.796151","468963.000143","469730.605799","470497.466665","471264.615059","472032.265235","472782.383956","473550.20634","474317.514265","476628.706324","Mapping"
"Blocked","Female","tile","13","F_jolt.wav","None","735.678342549","118","468212.768885","475084.666678","475851.414698","476619.061164","477369.291495","478136.340027","464309.995882","465076.796151","468963.000143","469730.605799","470497.466665","471264.615059","472032.265235","472782.383956","473550.20634","474317.514265","477379.211507","Mapping"
"Blocked","Female","tile","13","F_tile.wav","None","733.832909988","118","468212.768885","475084.666678","475851.414698","476619.061164","477369.291495","478136.340027","478904.00257","465076.796151","468963.000143","469730.605799","470497.466665","471264.615059","472032.265235","472782.383956","473550.20634","474317.514265","478145.68993","Mapping"
"Blocked","Female","tile","13","F_park.wav","space","683.347081067","118","468212.768885","475084.666678","475851.414698","476619.061164","477369.291495","478136.340027","478904.00257","479671.20074","468963.000143","469730.605799","470497.466665","471264.615059","472032.265235","472782.383956","473550.20634","474317.514265","478913.97885","Mapping"
"Blocked","Female","cave","10","F_priest.wav","None","726.250528678","118","482790.34136","475084.666678","475851.414698","476619.061164","477369.291495","478136.340027","478904.00257","479671.20074","468963.000143","469730.605799","470497.466665","471264.615059","472032.265235","472782.383956","473550.20634","474317.514265","479681.240709","Mapping"
"Blocked","Female","cave","10","F_jolt.wav","None","741.304299445","118","482790.34136","475084.666678","475851.414698","476619.061164","477369.291495","478136.340027","478904.00257","479671.20074","483556.678803","469730.605799","470497.466665","471264.615059","472032.265235","472782.383956","473550.20634","474317.514265","482794.482685","Mapping"
"Blocked","Female","cave","10","F_cave.wav","None","736.82350629","118","482790.34136","475084.666678","475851.414698","476619.061164","477369.291495","478136.340027","478904.00257","479671.20074","483556.678803","484324.844055","470497.466665","471264.615059","472032.265235","472782.383956","473550.20634","474317.514265","483565.760965","Mapping"
"Blocked","Female","cave","10","F_lash.wav","space","550.300018062","118","482790.34136","475084.666678","475851.414698","476619.061164","477369.291495","478136.340027","478904.00257","479671.20074","483556.678803","484324.844055","485091.90279","471264.615059","472032.265235","472782.383956","473550.20634","474317.514265","484334.872276","Mapping"
"Blocked","Female","cave","10","F_ball.wav","None","729.655412069","118","482790.34136","475084.666678","475851.414698","476619.061164","477369.291495","478136.340027","478904.00257","479671.20074","483556.678803","484324.844055","485091.90279","485859.14548","472032.265235","472782.383956","473550.20634","474317.514265","485101.576393","Mapping"
"Blocked","Female","cave","10","F_cave.wav","None","727.764222422","118","482790.34136","475084.666678","475851.414698","476619.061164","477369.291495","478136.340027","478904.00257","479671.20074","483556.678803","484324.844055","485091.90279","485859.14548","486625.973575","472782.383956","473550.20634","474317.514265","485868.771163","Mapping"
"Blocked","Female","cave","10","F_bluff.wav","space","521.800776143","118","482790.34136","475084.666678","475851.414698","476619.061164","477369.291495","478136.340027","478904.00257","479671.20074","483556.678803","484324.844055","485091.90279","485859.14548","486625.973575","487393.697024","473550.20634","474317.514265","486635.329043","Mapping"
"Blocked","Female","cave","10","F_done.wav","None","720.227907368","118","482790.34136","475084.666678","475851.414698","476619.061164","477369.291495","478136.340027","478904.00257","479671.20074","483556.678803","484324.844055","485091.90279","485859.14548","486625.973575","487393.697024","488144.064935","474317.514265","487404.095321","Mapping"
"Blocked","Female","cave","10","F_romp.wav","None","735.292499056","118","482790.34136","475084.666678","475851.414698","476619.061164","477369.291495","478136.340027","478904.00257","479671.20074","483556.678803","484324.844055","485091.90279","485859.14548","486625.973575","487393.697024","488144.064935","488911.329577","488153.78677","Mapping"
"Blocked","Female","cave","10","F_park.wav","None","733.49529691","118","482790.34136","489678.789923","475851.414698","476619.061164","477369.291495","478136.340027","478904.00257","479671.20074","483556.678803","484324.844055","485091.90279","485859.14548","486625.973575","487393.697024","488144.064935","488911.329577","488920.407411","Mapping"
"Blocked","Female","cave","10","F_tile.wav","None","729.882960804","118","482790.34136","489678.789923","490446.454939","476619.061164","477369.291495","478136.340027","478904.00257","479671.20074","483556.678803","484324.844055","485091.90279","485859.14548","486625.973575","487393.697024","488144.064935","488911.329577","489688.756928","Mapping"
"Blocked","Female","cave","10","F_cave.wav","None","727.442376985","118","482790.34136","489678.789923","490446.454939","491213.157511","477369.291495","478136.340027","478904.00257","479671.20074","483556.678803","484324.844055","485091.90279","485859.14548","486625.973575","487393.697024","488144.064935","488911.329577","490455.900067","Mapping"
"Blocked","Female","cave","10","F_cling.wav","space","590.502561157","118","482790.34136","489678.789923","490446.454939","491213.157511","491980.147301","478136.340027","478904.00257","479671.20074","483556.678803","484324.844055","485091.90279","485859.14548","486625.973575","487393.697024","488144.064935","488911.329577","491223.460583","Mapping"
"Blocked","Female","cave","10","F_bluff.wav","None","722.265643359","118","482790.34136","489678.789923","490446.454939","491213.157511","491980.147301","492730.957634","478904.00257","479671.20074","483556.678803","484324.844055","485091.90279","485859.14548","486625.973575","487393.697024","488144.064935","488911.329577","491989.317267","Mapping"
"Blocked","Female","cave","10","F_cave.wav","None","735.966488501","118","482790.34136","489678.789923","490446.454939","491213.157511","491980.147301","492730.957634","493498.1051","479671.20074","483556.678803","484324.844055","485091.90279","485859.14548","486625.973575","487393.697024","488144.064935","488911.329577","492740.604958","Mapping"
"Blocked","Female","cave","10","F_cling.wav","space","713.202340296","118","482790.34136","489678.789923","490446.454939","491213.157511","491980.147301","492730.957634","493498.1051","494265.398495","483556.678803","484324.844055","485091.90279","485859.14548","486625.973575","487393.697024","488144.064935","488911.329577","493507.688426","Mapping"
"Blocked","Female","cave","8","F_cad.wav","None","728.604854216","118","497384.094529","489678.789923","490446.454939","491213.157511","491980.147301","492730.957634","493498.1051","494265.398495","483556.678803","484324.844055","485091.90279","485859.14548","486625.973575","487393.697024","488144.064935","488911.329577","494275.779478","Mapping"
"Blocked","Female","cave","8","F_bluff.wav","None","736.219698301","118","497384.094529","489678.789923","490446.454939","491213.157511","491980.147301","492730.957634","493498.1051","494265.398495","498150.985694","484324.844055","485091.90279","485859.14548","486625.973575","487393.697024","488144.064935","488911.329577","497393.09538","Mapping"
"Blocked","Female","cave","8","F_cave.wav","None","733.872792844","118","497384.094529","489678.789923","490446.454939","491213.157511","491980.147301","492730.957634","493498.1051","494265.398495","498150.985694","498918.6099","485091.90279","485859.14548","486625.973575","487393.697024","488144.064935","488911.329577","498160.175447","Mapping"
"Blocked","Female","cave","8","F_greet.wav","space","653.660319207","118","497384.094529","489678.789923","490446.454939","491213.157511","491980.147301","492730.957634","493498.1051","494265.398495","498150.985694","498918.6099","499685.912569","485859.14548","486625.973575","487393.697024","488144.064935","488911.329577","498928.017927","Mapping"
"Blocked","Female","cave","8","F_cave.wav","None","726.585977565","118","497384.094529","489678.789923","490446.454939","491213.157511","491980.147301","492730.957634","493498.1051","494265.398495","498150.985694","498918.6099","499685.912569","500453.340452","486625.973575","487393.697024","488144.064935","488911.329577","499695.563294","Mapping"
"Blocked","Female","cave","8","F_jolt.wav","space","710.042937455","118","497384.094529","489678.789923","490446.454939","491213.157511","491980.147301","492730.957634","493498.1051","494265.398495","498150.985694","498918.6099","499685.912569","500453.340452","501220.333952","487393.697024","488144.064935","488911.329577","500463.583855","Mapping"
"Blocked","Female","cave","8","F_jolt.wav","None","720.272736944","118","497384.094529","489678.789923","490446.454939","491213.157511","491980.147301","492730.957634","493498.1051","494265.398495","498150.985694","498918.6099","499685.912569","500453.340452","501220.333952","501970.445563","488144.064935","488911.329577","501230.059806","Mapping"
"Blocked","Female","cave","8","F_park.wav","None","735.449557149","118","497384.094529","489678.789923","490446.454939","491213.157511","491980.147301","492730.957634","493498.1051","494265.398495","498150.985694","498918.6099","499685.912569","500453.340452","501220.333952","501970.445563","502738.21817","488911.329577","501979.571936","Mapping"
"Blocked","Female","cave","8","F_cave.wav","None","732.074972359","118","497384.094529","489678.789923","490446.454939","491213.157511","491980.147301","492730.957634","493498.1051","494265.398495","498150.985694","498918.6099","499685.912569","500453.340452","501220.333952","501970.445563","502738.21817","503505.325444","502747.91527","Mapping"
"Blocked","Female","cave","8","F_done.wav","None","729.67767228","118","497384.094529","504272.187547","490446.454939","491213.157511","491980.147301","492730.957634","493498.1051","494265.398495","498150.985694","498918.6099","499685.912569","500453.340452","501220.333952","501970.445563","502738.21817","503505.325444","503514.895476","Mapping"
"Blocked","Female","cave","8","F_cave.wav","space","44.0878758673","118","497384.094529","504272.187547","505039.621304","491213.157511","491980.147301","492730.957634","493498.1051","494265.398495","498150.985694","498918.6099","499685.912569","500453.340452","501220.333952","501970.445563","502738.21817","503505.325444","504281.491075","Mapping"
"Blocked","Female","cave","8","F_jolt.wav","None","724.013378378","118","497384.094529","504272.187547","505039.621304","505807.213047","491980.147301","492730.957634","493498.1051","494265.398495","498150.985694","498918.6099","499685.912569","500453.340452","501220.333952","501970.445563","502738.21817","503505.325444","505048.822806","Mapping"
"Blocked","Female","cave","8","F_bluff.wav","space","0.0686356215738","118","497384.094529","504272.187547","505039.621304","505807.213047","506557.968967","492730.957634","493498.1051","494265.398495","498150.985694","498918.6099","499685.912569","500453.340452","501220.333952","501970.445563","502738.21817","503505.325444","505816.647972","Mapping"
"Blocked","Female","cave","8","F_romp.wav","None","733.875266189","118","497384.094529","504272.187547","505039.621304","505807.213047","506557.968967","507324.936497","493498.1051","494265.398495","498150.985694","498918.6099","499685.912569","500453.340452","501220.333952","501970.445563","502738.21817","503505.325444","506567.61289","Mapping"
"Blocked","Female","cave","8","F_gnash.wav","None","731.410257999","118","497384.094529","504272.187547","505039.621304","505807.213047","506557.968967","507324.936497","508091.69781","494265.398495","498150.985694","498918.6099","499685.912569","500453.340452","501220.333952","501970.445563","502738.21817","503505.325444","507334.838576","Mapping"
"Blocked","Female","cave","8","F_tile.wav","None","730.8086142","118","497384.094529","504272.187547","505039.621304","505807.213047","506557.968967","507324.936497","508091.69781","508859.31305","498150.985694","498918.6099","499685.912569","500453.340452","501220.333952","501970.445563","502738.21817","503505.325444","508100.674546","Mapping"
"Blocked","Female","cave","11","F_cling.wav","None","727.053750961","118","511978.180365","504272.187547","505039.621304","505807.213047","506557.968967","507324.936497","508091.69781","508859.31305","498150.985694","498918.6099","499685.912569","500453.340452","501220.333952","501970.445563","502738.21817","503505.325444","508869.034575","Mapping"
"Blocked","Female","cave","11","F_cave.wav","None","736.16435696","118","511978.180365","504272.187547","505039.621304","505807.213047","506557.968967","507324.936497","508091.69781","508859.31305","512745.088225","498918.6099","499685.912569","500453.340452","501220.333952","501970.445563","502738.21817","503505.325444","511987.611888","Mapping"
"Blocked","Female","cave","11","F_cling.wav","space","634.049081273","118","511978.180365","504272.187547","505039.621304","505807.213047","506557.968967","507324.936497","508091.69781","508859.31305","512745.088225","513512.72758","499685.912569","500453.340452","501220.333952","501970.445563","502738.21817","503505.325444","512754.280142","Mapping"
"Blocked","Female","cave","11","F_cave.wav","None","734.800301259","118","511978.180365","504272.187547","505039.621304","505807.213047","506557.968967","507324.936497","508091.69781","508859.31305","512745.088225","513512.72758","514279.648734","500453.340452","501220.333952","501970.445563","502738.21817","503505.325444","513517.332041","Mapping"
"Blocked","Female","cave","11","F_cling.wav","space","587.401282188","118","511978.180365","504272.187547","505039.621304","505807.213047","506557.968967","507324.936497","508091.69781","508859.31305","512745.088225","513512.72758","514279.648734","515046.715816","501220.333952","501970.445563","502738.21817","503505.325444","514288.860748","Mapping"
"Blocked","Female","cave","11","F_cave.wav","None","724.405096102","118","511978.180365","504272.187547","505039.621304","505807.213047","506557.968967","507324.936497","508091.69781","508859.31305","512745.088225","513512.72758","514279.648734","515046.715816","515814.048475","501970.445563","502738.21817","503505.325444","515055.916082","Mapping"
"Blocked","Female","cave","11","F_ball.wav","space","493.006277378","118","511978.180365","504272.187547","505039.621304","505807.213047","506557.968967","507324.936497","508091.69781","508859.31305","512745.088225","513512.72758","514279.648734","515046.715816","515814.048475","516564.874576","502738.21817","503505.325444","515823.217205","Mapping"
"Blocked","Female","cave","11","F_ball.wav","None","733.928134185","118","511978.180365","504272.187547","505039.621304","505807.213047","506557.968967","507324.936497","508091.69781","508859.31305","512745.088225","513512.72758","514279.648734","515046.715816","515814.048475","516564.874576","517331.855091","503505.325444","516575.000804","Mapping"
"Blocked","Female","cave","11","F_depth.wav","None","732.454014127","118","511978.180365","504272.187547","505039.621304","505807.213047","506557.968967","507324.936497","508091.69781","508859.31305","512745.088225","513512.72758","514279.648734","515046.715816","515814.048475","516564.874576","517331.855091","518099.225159","517341.254461","Mapping"
"Blocked","Female","cave","11","F_ball.wav","None","729.858536419","118","511978.180365","518866.471869","505039.621304","505807.213047","506557.968967","507324.936497","508091.69781","508859.31305","512745.088225","513512.72758","514279.648734","515046.715816","515814.048475","516564.874576","517331.855091","518099.225159","518108.798283","Mapping"
"Blocked","Female","cave","11","F_greet.wav","None","727.738870526","118","511978.180365","518866.471869","519634.011363","505807.213047","506557.968967","507324.936497","508091.69781","508859.31305","512745.088225","513512.72758","514279.648734","515046.715816","515814.048475","516564.874576","517331.855091","518099.225159","518876.171134","Mapping"
"Blocked","Female","cave","11","F_reek.wav","None","725.00426654","118","511978.180365","518866.471869","519634.011363","520401.298883","506557.968967","507324.936497","508091.69781","508859.31305","512745.088225","513512.72758","514279.648734","515046.715816","515814.048475","516564.874576","517331.855091","518099.225159","519643.770915","Mapping"
"Blocked","Female","cave","11","F_cave.wav","None","722.450835863","118","511978.180365","518866.471869","519634.011363","520401.298883","521167.937456","507324.936497","508091.69781","508859.31305","512745.088225","513512.72758","514279.648734","515046.715816","515814.048475","516564.874576","517331.855091","518099.225159","520411.038649","Mapping"
"Blocked","Female","cave","11","F_jaw.wav","space","636.054972798","118","511978.180365","518866.471869","519634.011363","520401.298883","521167.937456","521918.860018","508091.69781","508859.31305","512745.088225","513512.72758","514279.648734","515046.715816","515814.048475","516564.874576","517331.855091","518099.225159","521176.975098","Mapping"
"Blocked","Female","cave","11","F_jaw.wav","None","733.789626247","118","511978.180365","518866.471869","519634.011363","520401.298883","521167.937456","521918.860018","522686.064062","508859.31305","512745.088225","513512.72758","514279.648734","515046.715816","515814.048475","516564.874576","517331.855091","518099.225159","521928.483536","Mapping"
"Blocked","Female","cave","11","F_park.wav","None","730.943721268","118","511978.180365","518866.471869","519634.011363","520401.298883","521167.937456","521918.860018","522686.064062","523452.945952","512745.088225","513512.72758","514279.648734","515046.715816","515814.048475","516564.874576","517331.855091","518099.225159","522696.147006","Mapping"
"Blocked","Female","done","24","F_ball.wav","None","729.387671308","118","526572.504879","518866.471869","519634.011363","520401.298883","521167.937456","521918.860018","522686.064062","523452.945952","512745.088225","513512.72758","514279.648734","515046.715816","515814.048475","516564.874576","517331.855091","518099.225159","523462.48383","Mapping"
"Blocked","Female","done","24","F_done.wav","None","735.726572995","118","526572.504879","518866.471869","519634.011363","520401.298883","521167.937456","521918.860018","522686.064062","523452.945952","527339.352451","513512.72758","514279.648734","515046.715816","515814.048475","516564.874576","517331.855091","518099.225159","526582.176627","Mapping"
"Blocked","Female","done","24","F_depth.wav","space","590.735674952","118","526572.504879","518866.471869","519634.011363","520401.298883","521167.937456","521918.860018","522686.064062","523452.945952","527339.352451","528106.901837","514279.648734","515046.715816","515814.048475","516564.874576","517331.855091","518099.225159","527349.129935","Mapping"
"Blocked","Female","done","24","F_done.wav","None","729.750017927","118","526572.504879","518866.471869","519634.011363","520401.298883","521167.937456","521918.860018","522686.064062","523452.945952","527339.352451","528106.901837","528873.933056","515046.715816","515814.048475","516564.874576","517331.855091","518099.225159","528116.710239","Mapping"
"Blocked","Female","done","24","F_jolt.wav","space","621.277599552","118","526572.504879","518866.471869","519634.011363","520401.298883","521167.937456","521918.860018","522686.064062","523452.945952","527339.352451","528106.901837","528873.933056","529641.232634","515814.048475","516564.874576","517331.855091","518099.225159","528878.558231","Mapping"
"Blocked","Female","done","24","F_cave.wav","None","724.848135957","118","526572.504879","518866.471869","519634.011363","520401.298883","521167.937456","521918.860018","522686.064062","523452.945952","527339.352451","528106.901837","528873.933056","529641.232634","530408.548598","516564.874576","517331.855091","518099.225159","529650.505863","Mapping"
"Blocked","Female","done","24","F_done.wav","None","721.941942917","118","526572.504879","518866.471869","519634.011363","520401.298883","521167.937456","521918.860018","522686.064062","523452.945952","527339.352451","528106.901837","528873.933056","529641.232634","530408.548598","531175.870436","517331.855091","518099.225159","530418.456552","Mapping"
"Blocked","Female","done","24","F_depth.wav","space","516.924246054","118","526572.504879","518866.471869","519634.011363","520401.298883","521167.937456","521918.860018","522686.064062","523452.945952","527339.352451","528106.901837","528873.933056","529641.232634","530408.548598","531175.870436","531926.089328","518099.225159","531238.844856","Mapping"
"Blocked","Female","done","24","F_ball.wav","None","729.050676586","118","526572.504879","518866.471869","519634.011363","520401.298883","521167.937456","521918.860018","522686.064062","523452.945952","527339.352451","528106.901837","528873.933056","529641.232634","530408.548598","531175.870436","531926.089328","532693.426624","531940.390889","Mapping"
"Blocked","Female","done","24","F_park.wav","None","731.033380405","118","526572.504879","533460.455679","519634.011363","520401.298883","521167.937456","521918.860018","522686.064062","523452.945952","527339.352451","528106.901837","528873.933056","529641.232634","530408.548598","531175.870436","531926.089328","532693.426624","532703.706509","Mapping"
"Blocked","Female","done","24","F_greet.wav","None","730.288900319","118","526572.504879","533460.455679","534227.883562","520401.298883","521167.937456","521918.860018","522686.064062","523452.945952","527339.352451","528106.901837","528873.933056","529641.232634","530408.548598","531175.870436","531926.089328","532693.426624","533469.920284","Mapping"
"Blocked","Female","done","24","F_romp.wav","None","728.013722182","118","526572.504879","533460.455679","534227.883562","534995.251775","521167.937456","521918.860018","522686.064062","523452.945952","527339.352451","528106.901837","528873.933056","529641.232634","530408.548598","531175.870436","531926.089328","532693.426624","534237.087537","Mapping"
"Blocked","Female","done","24","F_park.wav","None","725.345589643","118","526572.504879","533460.455679","534227.883562","534995.251775","535762.491683","521918.860018","522686.064062","523452.945952","527339.352451","528106.901837","528873.933056","529641.232634","530408.548598","531175.870436","531926.089328","532693.426624","535004.759046","Mapping"
"Blocked","Female","done","24","F_done.wav","None","722.273063424","118","526572.504879","533460.455679","534227.883562","534995.251775","535762.491683","536529.4419","522686.064062","523452.945952","527339.352451","528106.901837","528873.933056","529641.232634","530408.548598","531175.870436","531926.089328","532693.426624","535772.628423","Mapping"
"Blocked","Female","done","24","F_jolt.wav","space","617.125762728","118","526572.504879","533460.455679","534227.883562","534995.251775","535762.491683","536529.4419","537280.32767","523452.945952","527339.352451","528106.901837","528873.933056","529641.232634","530408.548598","531175.870436","531926.089328","532693.426624","536539.445387","Mapping"
"Blocked","Female","done","24","F_cling.wav","None","733.212406849","118","526572.504879","533460.455679","534227.883562","534995.251775","535762.491683","536529.4419","537280.32767","538047.281906","527339.352451","528106.901837","528873.933056","529641.232634","530408.548598","531175.870436","531926.089328","532693.426624","537289.974067","Mapping"
"Blocked","Female","cave","12","F_bluff.wav","None","731.396345363","118","541166.590405","533460.455679","534227.883562","534995.251775","535762.491683","536529.4419","537280.32767","538047.281906","527339.352451","528106.901837","528873.933056","529641.232634","530408.548598","531175.870436","531926.089328","532693.426624","538056.855338","Mapping"
"Blocked","Female","cave","12","F_cave.wav","None","735.891360324","118","541166.590405","533460.455679","534227.883562","534995.251775","535762.491683","536529.4419","537280.32767","538047.281906","541933.218157","528106.901837","528873.933056","529641.232634","530408.548598","531175.870436","531926.089328","532693.426624","541176.220106","Mapping"
"Blocked","Female","cave","12","F_knife.wav","space","684.80450596","118","541166.590405","533460.455679","534227.883562","534995.251775","535762.491683","536529.4419","537280.32767","538047.281906","541933.218157","542700.786713","528873.933056","529641.232634","530408.548598","531175.870436","531926.089328","532693.426624","541942.628658","Mapping"
"Blocked","Female","cave","12","F_cave.wav","None","731.455705914","118","541166.590405","533460.455679","534227.883562","534995.251775","535762.491683","536529.4419","537280.32767","538047.281906","541933.218157","542700.786713","543467.596257","529641.232634","530408.548598","531175.870436","531926.089328","532693.426624","542709.907212","Mapping"
"Blocked","Female","cave","12","F_lash.wav","space","574.460993943","118","541166.590405","533460.455679","534227.883562","534995.251775","535762.491683","536529.4419","537280.32767","538047.281906","541933.218157","542700.786713","543467.596257","544234.803084","530408.548598","531175.870436","531926.089328","532693.426624","543476.937194","Mapping"
"Blocked","Female","cave","12","F_romp.wav","None","725.43184791","118","541166.590405","533460.455679","534227.883562","534995.251775","535762.491683","536529.4419","537280.32767","538047.281906","541933.218157","542700.786713","543467.596257","544234.803084","545002.420179","531175.870436","531926.089328","532693.426624","544244.156697","Mapping"
"Blocked","Female","cave","12","F_done.wav","None","722.882436457","118","541166.590405","533460.455679","534227.883562","534995.251775","535762.491683","536529.4419","537280.32767","538047.281906","541933.218157","542700.786713","543467.596257","544234.803084","545002.420179","545769.671526","531926.089328","532693.426624","545011.885402","Mapping"
"Blocked","Female","cave","12","F_cave.wav","None","719.557009623","118","541166.590405","533460.455679","534227.883562","534995.251775","535762.491683","536529.4419","537280.32767","538047.281906","541933.218157","542700.786713","543467.596257","544234.803084","545002.420179","545769.671526","546520.11302","532693.426624","545780.139386","Mapping"
"Blocked","Female","cave","12","F_cling.wav","space","625.309478637","118","541166.590405","533460.455679","534227.883562","534995.251775","535762.491683","536529.4419","537280.32767","538047.281906","541933.218157","542700.786713","543467.596257","544234.803084","545002.420179","545769.671526","546520.11302","547287.163407","546530.001187","Mapping"
"Blocked","Female","cave","12","F_gnash.wav","None","731.789299767","118","541166.590405","548054.620661","534227.883562","534995.251775","535762.491683","536529.4419","537280.32767","538047.281906","541933.218157","542700.786713","543467.596257","544234.803084","545002.420179","545769.671526","546520.11302","547287.163407","547296.331828","Mapping"
"Blocked","Female","cave","12","F_ball.wav","None","728.582594005","118","541166.590405","548054.620661","548821.627456","534995.251775","535762.491683","536529.4419","537280.32767","538047.281906","541933.218157","542700.786713","543467.596257","544234.803084","545002.420179","545769.671526","546520.11302","547287.163407","548064.510374","Mapping"
"Blocked","Female","cave","12","F_tile.wav","None","727.647974694","118","541166.590405","548054.620661","548821.627456","549588.928579","535762.491683","536529.4419","537280.32767","538047.281906","541933.218157","542700.786713","543467.596257","544234.803084","545002.420179","545769.671526","546520.11302","547287.163407","548830.799277","Mapping"
"Blocked","Female","cave","12","F_jolt.wav","None","724.74951089","118","541166.590405","548054.620661","548821.627456","549588.928579","550356.403765","536529.4419","537280.32767","538047.281906","541933.218157","542700.786713","543467.596257","544234.803084","545002.420179","545769.671526","546520.11302","547287.163407","549598.745328","Mapping"
