"Condition","Talker","Target","Trial","current_stimulus","response_response","response_time_response","subject_nr","time_Audio1","time_Audio10","time_Audio11","time_Audio12","time_Audio13","time_Audio14","time_Audio15","time_Audio16","time_Audio2","time_Audio3","time_Audio4","time_Audio5","time_Audio6","time_Audio7","time_Audio8","time_Audio9","time_response","title"
"Mixed","both","tile","27","F_jolt.wav","NA","NA","343","117798.379809","NA","NA","NA","NA","NA","NA","NA","NA","NA","NA","NA","NA","NA","NA","NA","NA","Mapping"
"Mixed","both","tile","27","M_cling.wav","None","716.791783925","343","117798.379809","NA","NA","NA","NA","NA","NA","NA","118565.257033","NA","NA","NA","NA","NA","NA","NA","117813.919472","Mapping"
"Mixed","both","tile","27","F_cling.wav","None","720.96654959","343","117798.379809","NA","NA","NA","NA","NA","NA","NA","118565.257033","119331.005465","NA","NA","NA","NA","NA","NA","118575.956899","Mapping"
"Mixed","both","tile","27","F_tile.wav","None","722.682151478","343","117798.379809","NA","NA","NA","NA","NA","NA","NA","118565.257033","119331.005465","120098.340265","NA","NA","NA","NA","NA","119340.436794","Mapping"
"Mixed","both","tile","27","F_priest.wav","space","637.867904734","343","117798.379809","NA","NA","NA","NA","NA","NA","NA","118565.257033","119331.005465","120098.340265","120864.925012","NA","NA","NA","NA","120108.645936","Mapping"
"Mixed","both","tile","27","M_greet.wav","None","720.301208552","343","117798.379809","NA","NA","NA","NA","NA","NA","NA","118565.257033","119331.005465","120098.340265","120864.925012","121631.412059","NA","NA","NA","120875.202238","Mapping"
"Mixed","both","tile","27","M_tile.wav","None","720.27245583","343","117798.379809","NA","NA","NA","NA","NA","NA","NA","118565.257033","119331.005465","120098.340265","120864.925012","121631.412059","122398.100069","NA","NA","121641.476883","Mapping"
"Mixed","both","tile","27","M_jaw.wav","space","554.256650619","343","117798.379809","NA","NA","NA","NA","NA","NA","NA","118565.257033","119331.005465","120098.340265","120864.925012","121631.412059","122398.100069","123164.780968","NA","122408.189008","Mapping"
"Mixed","both","tile","27","M_tile.wav","None","719.417592045","343","117798.379809","NA","NA","NA","NA","NA","NA","NA","118565.257033","119331.005465","120098.340265","120864.925012","121631.412059","122398.100069","123164.780968","123914.479292","123174.747166","Mapping"
"Mixed","both","tile","27","M_cad.wav","space","550.08621281","343","117798.379809","124680.809589","NA","NA","NA","NA","NA","NA","118565.257033","119331.005465","120098.340265","120864.925012","121631.412059","122398.100069","123164.780968","123914.479292","123924.347791","Mapping"
"Mixed","both","tile","27","F_jaw.wav","None","736.641939729","343","117798.379809","124680.809589","125447.752357","NA","NA","NA","NA","NA","118565.257033","119331.005465","120098.340265","120864.925012","121631.412059","122398.100069","123164.780968","123914.479292","124690.050157","Mapping"
"Mixed","both","tile","27","M_bluff.wav","None","735.54715747","343","117798.379809","124680.809589","125447.752357","126230.82531","NA","NA","NA","NA","118565.257033","119331.005465","120098.340265","120864.925012","121631.412059","122398.100069","123164.780968","123914.479292","125457.351567","Mapping"
"Mixed","both","tile","27","F_tile.wav","None","724.952101242","343","117798.379809","124680.809589","125447.752357","126230.82531","126997.918337","NA","NA","NA","118565.257033","119331.005465","120098.340265","120864.925012","121631.412059","122398.100069","123164.780968","123914.479292","126240.161104","Mapping"
"Mixed","both","tile","27","F_greet.wav","space","635.361128021","343","117798.379809","124680.809589","125447.752357","126230.82531","126997.918337","127765.29704","NA","NA","118565.257033","119331.005465","120098.340265","120864.925012","121631.412059","122398.100069","123164.780968","123914.479292","127007.000918","Mapping"
"Mixed","both","tile","27","F_cling.wav","None","721.953121014","343","117798.379809","124680.809589","125447.752357","126230.82531","126997.918337","127765.29704","128531.577559","NA","118565.257033","119331.005465","120098.340265","120864.925012","121631.412059","122398.100069","123164.780968","123914.479292","127775.410095","Mapping"
"Mixed","both","tile","27","M_priest.wav","None","722.478097305","343","117798.379809","124680.809589","125447.752357","126230.82531","126997.918337","127765.29704","128531.577559","129298.613698","118565.257033","119331.005465","120098.340265","120864.925012","121631.412059","122398.100069","123164.780968","123914.479292","128541.25499","Mapping"
"Mixed","both","done","48","F_cad.wav","None","721.468028147","343","132448.539512","124680.809589","125447.752357","126230.82531","126997.918337","127765.29704","128531.577559","129298.613698","118565.257033","119331.005465","120098.340265","120864.925012","121631.412059","122398.100069","123164.780968","123914.479292","129308.579587","Mapping"
"Mixed","both","done","48","F_jaw.wav","None","722.359065432","343","132448.539512","124680.809589","125447.752357","126230.82531","126997.918337","127765.29704","128531.577559","129298.613698","133214.446551","119331.005465","120098.340265","120864.925012","121631.412059","122398.100069","123164.780968","123914.479292","132459.021102","Mapping"
"Mixed","both","done","48","F_done.wav","None","724.168037996","343","132448.539512","124680.809589","125447.752357","126230.82531","126997.918337","127765.29704","128531.577559","129298.613698","133214.446551","133981.746414","120098.340265","120864.925012","121631.412059","122398.100069","123164.780968","123914.479292","133223.826247","Mapping"
"Mixed","both","done","48","M_greet.wav","space","674.272739794","343","132448.539512","124680.809589","125447.752357","126230.82531","126997.918337","127765.29704","128531.577559","129298.613698","133214.446551","133981.746414","134749.005158","120864.925012","121631.412059","122398.100069","123164.780968","123914.479292","133991.969535","Mapping"
"Mixed","both","done","48","F_jolt.wav","None","720.743635669","343","132448.539512","124680.809589","125447.752357","126230.82531","126997.918337","127765.29704","128531.577559","129298.613698","133214.446551","133981.746414","134749.005158","135515.325252","121631.412059","122398.100069","123164.780968","123914.479292","134759.162425","Mapping"
"Mixed","both","done","48","F_dime.wav","None","720.643154345","343","132448.539512","124680.809589","125447.752357","126230.82531","126997.918337","127765.29704","128531.577559","129298.613698","133214.446551","133981.746414","134749.005158","135515.325252","136281.641326","122398.100069","123164.780968","123914.479292","135525.340918","Mapping"
"Mixed","both","done","48","F_knife.wav","None","720.39736202","343","132448.539512","124680.809589","125447.752357","126230.82531","126997.918337","127765.29704","128531.577559","129298.613698","133214.446551","133981.746414","134749.005158","135515.325252","136281.641326","137048.037168","123164.780968","123914.479292","136291.873722","Mapping"
"Mixed","both","done","48","M_dime.wav","None","721.364146098","343","132448.539512","124680.809589","125447.752357","126230.82531","126997.918337","127765.29704","128531.577559","129298.613698","133214.446551","133981.746414","134749.005158","135515.325252","136281.641326","137048.037168","137814.533799","123914.479292","137057.177255","Mapping"
"Mixed","both","done","48","M_done.wav","None","720.829586033","343","132448.539512","124680.809589","125447.752357","126230.82531","126997.918337","127765.29704","128531.577559","129298.613698","133214.446551","133981.746414","134749.005158","135515.325252","136281.641326","137048.037168","137814.533799","138581.340223","137823.911332","Mapping"
"Mixed","both","done","48","M_jolt.wav","None","719.327622559","343","132448.539512","139348.491992","125447.752357","126230.82531","126997.918337","127765.29704","128531.577559","129298.613698","133214.446551","133981.746414","134749.005158","135515.325252","136281.641326","137048.037168","137814.533799","138581.340223","138591.542938","Mapping"
"Mixed","both","done","48","F_done.wav","space","0.0389558263123","343","132448.539512","139348.491992","140098.477847","126230.82531","126997.918337","127765.29704","128531.577559","129298.613698","133214.446551","133981.746414","134749.005158","135515.325252","136281.641326","137048.037168","137814.533799","138581.340223","139358.563618","Mapping"
"Mixed","both","done","48","M_bluff.wav","None","735.231800936","343","132448.539512","139348.491992","140098.477847","140864.457542","126997.918337","127765.29704","128531.577559","129298.613698","133214.446551","133981.746414","134749.005158","135515.325252","136281.641326","137048.037168","137814.533799","138581.340223","140107.894027","Mapping"
"Mixed","both","done","48","M_done.wav","space","63.9156848192","343","132448.539512","139348.491992","140098.477847","140864.457542","141630.726004","127765.29704","128531.577559","129298.613698","133214.446551","133981.746414","134749.005158","135515.325252","136281.641326","137048.037168","137814.533799","138581.340223","140874.208246","Mapping"
"Mixed","both","done","48","M_greet.wav","space","642.21457066","343","132448.539512","139348.491992","140098.477847","140864.457542","141630.726004","142397.542939","128531.577559","129298.613698","133214.446551","133981.746414","134749.005158","135515.325252","136281.641326","137048.037168","137814.533799","138581.340223","141639.850941","Mapping"
"Mixed","both","done","48","F_romp.wav","None","736.195184756","343","132448.539512","139348.491992","140098.477847","140864.457542","141630.726004","142397.542939","143164.364821","129298.613698","133214.446551","133981.746414","134749.005158","135515.325252","136281.641326","137048.037168","137814.533799","138581.340223","142406.444344","Mapping"
"Mixed","both","done","48","M_reek.wav","None","733.777450398","343","132448.539512","139348.491992","140098.477847","140864.457542","141630.726004","142397.542939","143164.364821","143930.945238","133214.446551","133981.746414","134749.005158","135515.325252","136281.641326","137048.037168","137814.533799","138581.340223","143175.503094","Mapping"
"Mixed","both","tile","29","M_depth.wav","None","734.457631595","343","147064.995009","139348.491992","140098.477847","140864.457542","141630.726004","142397.542939","143164.364821","143930.945238","133214.446551","133981.746414","134749.005158","135515.325252","136281.641326","137048.037168","137814.533799","138581.340223","143941.191856","Mapping"
"Mixed","both","tile","29","M_depth.wav","None","722.076172475","343","147064.995009","139348.491992","140098.477847","140864.457542","141630.726004","142397.542939","143164.364821","143930.945238","147831.388995","133981.746414","134749.005158","135515.325252","136281.641326","137048.037168","137814.533799","138581.340223","147074.925961","Mapping"
"Mixed","both","tile","29","F_knife.wav","None","721.391353756","343","147064.995009","139348.491992","140098.477847","140864.457542","141630.726004","142397.542939","143164.364821","143930.945238","147831.388995","148598.284769","134749.005158","135515.325252","136281.641326","137048.037168","137814.533799","138581.340223","147841.967355","Mapping"
"Mixed","both","tile","29","F_depth.wav","None","721.117116977","343","147064.995009","139348.491992","140098.477847","140864.457542","141630.726004","142397.542939","143164.364821","143930.945238","147831.388995","148598.284769","149364.599607","135515.325252","136281.641326","137048.037168","137814.533799","138581.340223","148608.539426","Mapping"
"Mixed","both","tile","29","M_tile.wav","None","720.576372929","343","147064.995009","139348.491992","140098.477847","140864.457542","141630.726004","142397.542939","143164.364821","143930.945238","147831.388995","148598.284769","149364.599607","150131.238149","136281.641326","137048.037168","137814.533799","138581.340223","149375.523933","Mapping"
"Mixed","both","tile","29","F_jolt.wav","space","572.337098885","343","147064.995009","139348.491992","140098.477847","140864.457542","141630.726004","142397.542939","143164.364821","143930.945238","147831.388995","148598.284769","149364.599607","150131.238149","150897.979646","137048.037168","137814.533799","138581.340223","150141.624204","Mapping"
"Mixed","both","tile","29","M_knife.wav","None","720.27740255","343","147064.995009","139348.491992","140098.477847","140864.457542","141630.726004","142397.542939","143164.364821","143930.945238","147831.388995","148598.284769","149364.599607","150131.238149","150897.979646","151664.826262","137814.533799","138581.340223","150908.289026","Mapping"
"Mixed","both","tile","29","M_bluff.wav","None","719.77035841","343","147064.995009","139348.491992","140098.477847","140864.457542","141630.726004","142397.542939","143164.364821","143930.945238","147831.388995","148598.284769","149364.599607","150131.238149","150897.979646","151664.826262","152430.848622","138581.340223","151675.331967","Mapping"
"Mixed","both","tile","29","M_cad.wav","None","726.907622069","343","147064.995009","139348.491992","140098.477847","140864.457542","141630.726004","142397.542939","143164.364821","143930.945238","147831.388995","148598.284769","149364.599607","150131.238149","150897.979646","151664.826262","152430.848622","153197.43244","152434.614351","Mapping"
"Mixed","both","tile","29","F_tile.wav","None","721.638073679","343","147064.995009","153964.022133","140098.477847","140864.457542","141630.726004","142397.542939","143164.364821","143930.945238","147831.388995","148598.284769","149364.599607","150131.238149","150897.979646","151664.826262","152430.848622","153197.43244","153206.484413","Mapping"
"Mixed","both","tile","29","M_park.wav","space","572.40295317","343","147064.995009","153964.022133","154730.809697","140864.457542","141630.726004","142397.542939","143164.364821","143930.945238","147831.388995","148598.284769","149364.599607","150131.238149","150897.979646","151664.826262","152430.848622","153197.43244","153973.504784","Mapping"
"Mixed","both","tile","29","F_tile.wav","None","720.235664397","343","147064.995009","153964.022133","154730.809697","155498.108942","141630.726004","142397.542939","143164.364821","143930.945238","147831.388995","148598.284769","149364.599607","150131.238149","150897.979646","151664.826262","152430.848622","153197.43244","154740.319864","Mapping"
"Mixed","both","tile","29","F_knife.wav","None","718.482961413","343","147064.995009","153964.022133","154730.809697","155498.108942","156247.913003","142397.542939","143164.364821","143930.945238","147831.388995","148598.284769","149364.599607","150131.238149","150897.979646","151664.826262","152430.848622","153197.43244","155508.405028","Mapping"
"Mixed","both","tile","29","M_tile.wav","space","24.5100148022","343","147064.995009","153964.022133","154730.809697","155498.108942","156247.913003","157014.181775","143164.364821","143930.945238","147831.388995","148598.284769","149364.599607","150131.238149","150897.979646","151664.826262","152430.848622","153197.43244","156257.353607","Mapping"
"Mixed","both","tile","29","F_park.wav","space","632.696364541","343","147064.995009","153964.022133","154730.809697","155498.108942","156247.913003","157014.181775","157780.833611","143930.945238","147831.388995","148598.284769","149364.599607","150131.238149","150897.979646","151664.826262","152430.848622","153197.43244","157025.140728","Mapping"
"Mixed","both","tile","29","F_bluff.wav","None","734.674052801","343","147064.995009","153964.022133","154730.809697","155498.108942","156247.913003","157014.181775","157780.833611","158547.160198","147831.388995","148598.284769","149364.599607","150131.238149","150897.979646","151664.826262","152430.848622","153197.43244","157790.57906","Mapping"
"Mixed","both","cave","15","F_priest.wav","None","735.650112387","343","161681.159263","153964.022133","154730.809697","155498.108942","156247.913003","157014.181775","157780.833611","158547.160198","147831.388995","148598.284769","149364.599607","150131.238149","150897.979646","151664.826262","152430.848622","153197.43244","158555.983692","Mapping"
"Mixed","both","cave","15","F_cling.wav","None","722.614133731","343","161681.159263","153964.022133","154730.809697","155498.108942","156247.913003","157014.181775","157780.833611","158547.160198","162447.876336","148598.284769","149364.599607","150131.238149","150897.979646","151664.826262","152430.848622","153197.43244","161691.097327","Mapping"
"Mixed","both","cave","15","M_cave.wav","None","713.391497266","343","161681.159263","153964.022133","154730.809697","155498.108942","156247.913003","157014.181775","157780.833611","158547.160198","162447.876336","163214.699145","149364.599607","150131.238149","150897.979646","151664.826262","152430.848622","153197.43244","162466.577295","Mapping"
"Mixed","both","cave","15","F_romp.wav","space","528.346390463","343","161681.159263","153964.022133","154730.809697","155498.108942","156247.913003","157014.181775","157780.833611","158547.160198","162447.876336","163214.699145","163981.16084","150131.238149","150897.979646","151664.826262","152430.848622","153197.43244","163225.356654","Mapping"
"Mixed","both","cave","15","M_bluff.wav","None","721.101040021","343","161681.159263","153964.022133","154730.809697","155498.108942","156247.913003","157014.181775","157780.833611","158547.160198","162447.876336","163214.699145","163981.16084","164747.208862","150897.979646","151664.826262","152430.848622","153197.43244","163991.146207","Mapping"
"Mixed","both","cave","15","M_bluff.wav","None","722.204478923","343","161681.159263","153964.022133","154730.809697","155498.108942","156247.913003","157014.181775","157780.833611","158547.160198","162447.876336","163214.699145","163981.16084","164747.208862","165514.438234","151664.826262","152430.848622","153197.43244","164756.688421","Mapping"
"Mixed","both","cave","15","F_cave.wav","None","720.066237263","343","161681.159263","153964.022133","154730.809697","155498.108942","156247.913003","157014.181775","157780.833611","158547.160198","162447.876336","163214.699145","163981.16084","164747.208862","165514.438234","166281.207556","152430.848622","153197.43244","165524.84253","Mapping"
"Mixed","both","cave","15","M_lash.wav","space","558.483047877","343","161681.159263","153964.022133","154730.809697","155498.108942","156247.913003","157014.181775","157780.833611","158547.160198","162447.876336","163214.699145","163981.16084","164747.208862","165514.438234","166281.207556","167047.888146","153197.43244","166291.159223","Mapping"
"Mixed","both","cave","15","F_park.wav","None","718.738338444","343","161681.159263","153964.022133","154730.809697","155498.108942","156247.913003","157014.181775","157780.833611","158547.160198","162447.876336","163214.699145","163981.16084","164747.208862","165514.438234","166281.207556","167047.888146","167814.009442","167058.597596","Mapping"
"Mixed","both","cave","15","F_dime.wav","None","720.200727694","343","161681.159263","168581.140806","154730.809697","155498.108942","156247.913003","157014.181775","157780.833611","158547.160198","162447.876336","163214.699145","163981.16084","164747.208862","165514.438234","166281.207556","167047.888146","167814.009442","167823.648225","Mapping"
"Mixed","both","cave","15","F_cave.wav","None","718.894780148","343","161681.159263","168581.140806","169348.05142","155498.108942","156247.913003","157014.181775","157780.833611","158547.160198","162447.876336","163214.699145","163981.16084","164747.208862","165514.438234","166281.207556","167047.888146","167814.009442","168591.350323","Mapping"
"Mixed","both","cave","15","M_park.wav","space","603.576577269","343","161681.159263","168581.140806","169348.05142","170097.080076","156247.913003","157014.181775","157780.833611","158547.160198","162447.876336","163214.699145","163981.16084","164747.208862","165514.438234","166281.207556","167047.888146","167814.009442","169358.053792","Mapping"
"Mixed","both","cave","15","M_bluff.wav","None","735.367837362","343","161681.159263","168581.140806","169348.05142","170097.080076","170864.240811","157014.181775","157780.833611","158547.160198","162447.876336","163214.699145","163981.16084","164747.208862","165514.438234","166281.207556","167047.888146","167814.009442","170107.502922","Mapping"
"Mixed","both","cave","15","M_cave.wav","None","735.058355145","343","161681.159263","168581.140806","169348.05142","170097.080076","170864.240811","171630.919546","157780.833611","158547.160198","162447.876336","163214.699145","163981.16084","164747.208862","165514.438234","166281.207556","167047.888146","167814.009442","170874.325732","Mapping"
"Mixed","both","cave","15","M_dime.wav","space","617.264602333","343","161681.159263","168581.140806","169348.05142","170097.080076","170864.240811","171630.919546","172397.13112","158547.160198","162447.876336","163214.699145","163981.16084","164747.208862","165514.438234","166281.207556","167047.888146","167814.009442","171640.313465","Mapping"
"Mixed","both","cave","15","F_greet.wav","None","735.51624082","343","161681.159263","168581.140806","169348.05142","170097.080076","170864.240811","171630.919546","172397.13112","173163.515212","162447.876336","163214.699145","163981.16084","164747.208862","165514.438234","166281.207556","167047.888146","167814.009442","172406.637887","Mapping"
"Mixed","both","ball","7","M_cad.wav","None","736.526927445","343","176297.803046","168581.140806","169348.05142","170097.080076","170864.240811","171630.919546","172397.13112","173163.515212","162447.876336","163214.699145","163981.16084","164747.208862","165514.438234","166281.207556","167047.888146","167814.009442","173172.546471","Mapping"
"Mixed","both","ball","7","M_ball.wav","None","722.807676066","343","176297.803046","168581.140806","169348.05142","170097.080076","170864.240811","171630.919546","172397.13112","173163.515212","177064.450555","163214.699145","163981.16084","164747.208862","165514.438234","166281.207556","167047.888146","167814.009442","176307.571373","Mapping"
"Mixed","both","ball","7","F_cling.wav","space","493.670760654","343","176297.803046","168581.140806","169348.05142","170097.080076","170864.240811","171630.919546","172397.13112","173163.515212","177064.450555","177831.209365","163981.16084","164747.208862","165514.438234","166281.207556","167047.888146","167814.009442","177075.780206","Mapping"
"Mixed","both","ball","7","M_jolt.wav","None","721.420725342","343","176297.803046","168581.140806","169348.05142","170097.080076","170864.240811","171630.919546","172397.13112","173163.515212","177064.450555","177831.209365","178596.97944","164747.208862","165514.438234","166281.207556","167047.888146","167814.009442","177841.583672","Mapping"
"Mixed","both","ball","7","F_lash.wav","None","723.514755256","343","176297.803046","168581.140806","169348.05142","170097.080076","170864.240811","171630.919546","172397.13112","173163.515212","177064.450555","177831.209365","178596.97944","179363.668377","165514.438234","166281.207556","167047.888146","167814.009442","178606.007915","Mapping"
"Mixed","both","ball","7","F_depth.wav","None","723.135090433","343","176297.803046","168581.140806","169348.05142","170097.080076","170864.240811","171630.919546","172397.13112","173163.515212","177064.450555","177831.209365","178596.97944","179363.668377","180130.514374","166281.207556","167047.888146","167814.009442","179372.792387","Mapping"
"Mixed","both","ball","7","M_romp.wav","None","722.453363705","343","176297.803046","168581.140806","169348.05142","170097.080076","170864.240811","171630.919546","172397.13112","173163.515212","177064.450555","177831.209365","178596.97944","179363.668377","180130.514374","180897.627498","167047.888146","167814.009442","180140.238181","Mapping"
"Mixed","both","ball","7","F_ball.wav","None","721.689087804","343","176297.803046","168581.140806","169348.05142","170097.080076","170864.240811","171630.919546","172397.13112","173163.515212","177064.450555","177831.209365","178596.97944","179363.668377","180130.514374","180897.627498","181664.445979","167814.009442","180907.399535","Mapping"
"Mixed","both","ball","7","M_romp.wav","space","638.432763983","343","176297.803046","168581.140806","169348.05142","170097.080076","170864.240811","171630.919546","172397.13112","173163.515212","177064.450555","177831.209365","178596.97944","179363.668377","180130.514374","180897.627498","181664.445979","182430.863771","181674.954776","Mapping"
"Mixed","both","ball","7","F_lash.wav","None","720.856484026","343","176297.803046","183197.360712","169348.05142","170097.080076","170864.240811","171630.919546","172397.13112","173163.515212","177064.450555","177831.209365","178596.97944","179363.668377","180130.514374","180897.627498","181664.445979","182430.863771","182440.816984","Mapping"
"Mixed","both","ball","7","M_reek.wav","None","720.736525021","343","176297.803046","183197.360712","183964.267307","170097.080076","170864.240811","171630.919546","172397.13112","173163.515212","177064.450555","177831.209365","178596.97944","179363.668377","180130.514374","180897.627498","181664.445979","182430.863771","183207.500665","Mapping"
"Mixed","both","ball","7","F_ball.wav","None","720.458268654","343","176297.803046","183197.360712","183964.267307","184730.193824","170864.240811","171630.919546","172397.13112","173163.515212","177064.450555","177831.209365","178596.97944","179363.668377","180130.514374","180897.627498","181664.445979","182430.863771","183974.369542","Mapping"
"Mixed","both","ball","7","F_romp.wav","space","470.044672489","343","176297.803046","183197.360712","183964.267307","184730.193824","185497.472045","171630.919546","172397.13112","173163.515212","177064.450555","177831.209365","178596.97944","179363.668377","180130.514374","180897.627498","181664.445979","182430.863771","184739.269294","Mapping"
"Mixed","both","ball","7","M_park.wav","None","719.820444472","343","176297.803046","183197.360712","183964.267307","184730.193824","185497.472045","186264.138722","172397.13112","173163.515212","177064.450555","177831.209365","178596.97944","179363.668377","180130.514374","180897.627498","181664.445979","182430.863771","185507.71248","Mapping"
"Mixed","both","ball","7","M_ball.wav","None","719.51776417","343","176297.803046","183197.360712","183964.267307","184730.193824","185497.472045","186264.138722","187030.602273","173163.515212","177064.450555","177831.209365","178596.97944","179363.668377","180130.514374","180897.627498","181664.445979","182430.863771","186274.335254","Mapping"
"Mixed","both","ball","7","F_gnash.wav","space","616.001629736","343","176297.803046","183197.360712","183964.267307","184730.193824","185497.472045","186264.138722","187030.602273","187797.161048","177064.450555","177831.209365","178596.97944","179363.668377","180130.514374","180897.627498","181664.445979","182430.863771","187041.304921","Mapping"
"Mixed","both","tile","32","M_jolt.wav","None","720.542982221","343","190914.019242","183197.360712","183964.267307","184730.193824","185497.472045","186264.138722","187030.602273","187797.161048","177064.450555","177831.209365","178596.97944","179363.668377","180130.514374","180897.627498","181664.445979","182430.863771","187806.304845","Mapping"
"Mixed","both","tile","32","M_tile.wav","None","721.114952583","343","190914.019242","183197.360712","183964.267307","184730.193824","185497.472045","186264.138722","187030.602273","187797.161048","191680.620993","177831.209365","178596.97944","179363.668377","180130.514374","180897.627498","181664.445979","182430.863771","190924.148684","Mapping"
"Mixed","both","tile","32","F_cling.wav","space","502.046262845","343","190914.019242","183197.360712","183964.267307","184730.193824","185497.472045","186264.138722","187030.602273","187797.161048","191680.620993","192447.459879","178596.97944","179363.668377","180130.514374","180897.627498","181664.445979","182430.863771","191691.128553","Mapping"
"Mixed","both","tile","32","M_cad.wav","None","720.729104709","343","190914.019242","183197.360712","183964.267307","184730.193824","185497.472045","186264.138722","187030.602273","187797.161048","191680.620993","192447.459879","193213.627551","179363.668377","180130.514374","180897.627498","181664.445979","182430.863771","192457.172246","Mapping"
"Mixed","both","tile","32","M_tile.wav","None","721.69681685","343","190914.019242","183197.360712","183964.267307","184730.193824","185497.472045","186264.138722","187030.602273","187797.161048","191680.620993","192447.459879","193213.627551","193980.677912","180130.514374","180897.627498","181664.445979","182430.863771","193222.839675","Mapping"
"Mixed","both","tile","32","F_romp.wav","space","474.119884428","343","190914.019242","183197.360712","183964.267307","184730.193824","185497.472045","186264.138722","187030.602273","187797.161048","191680.620993","192447.459879","193213.627551","193980.677912","194747.287701","180897.627498","181664.445979","182430.863771","193991.053146","Mapping"
"Mixed","both","tile","32","F_lash.wav","None","719.598148949","343","190914.019242","183197.360712","183964.267307","184730.193824","185497.472045","186264.138722","187030.602273","187797.161048","191680.620993","192447.459879","193213.627551","193980.677912","194747.287701","195513.335722","181664.445979","182430.863771","194757.600173","Mapping"
"Mixed","both","tile","32","F_tile.wav","None","721.668681595","343","190914.019242","183197.360712","183964.267307","184730.193824","185497.472045","186264.138722","187030.602273","187797.161048","191680.620993","192447.459879","193213.627551","193980.677912","194747.287701","195513.335722","196280.487183","182430.863771","195522.430361","Mapping"
"Mixed","both","tile","32","F_jaw.wav","space","565.833331551","343","190914.019242","183197.360712","183964.267307","184730.193824","185497.472045","186264.138722","187030.602273","187797.161048","191680.620993","192447.459879","193213.627551","193980.677912","194747.287701","195513.335722","196280.487183","197047.46396","196291.278255","Mapping"
"Mixed","both","tile","32","M_cad.wav","None","718.582824338","343","190914.019242","197813.998002","183964.267307","184730.193824","185497.472045","186264.138722","187030.602273","187797.161048","191680.620993","192447.459879","193213.627551","193980.677912","194747.287701","195513.335722","196280.487183","197047.46396","197058.0281","Mapping"
"Mixed","both","tile","32","M_jaw.wav","None","719.664930366","343","190914.019242","197813.998002","198580.589859","184730.193824","185497.472045","186264.138722","187030.602273","187797.161048","191680.620993","192447.459879","193213.627551","193980.677912","194747.287701","195513.335722","196280.487183","197047.46396","197823.839913","Mapping"
"Mixed","both","tile","32","M_gnash.wav","None","719.554864801","343","190914.019242","197813.998002","198580.589859","199347.302603","185497.472045","186264.138722","187030.602273","187797.161048","191680.620993","192447.459879","193213.627551","193980.677912","194747.287701","195513.335722","196280.487183","197047.46396","198590.626858","Mapping"
"Mixed","both","tile","32","F_knife.wav","None","719.754281454","343","190914.019242","197813.998002","198580.589859","199347.302603","200114.014728","186264.138722","187030.602273","187797.161048","191680.620993","192447.459879","193213.627551","193980.677912","194747.287701","195513.335722","196280.487183","197047.46396","199357.174503","Mapping"
"Mixed","both","tile","32","F_tile.wav","None","718.799863476","343","190914.019242","197813.998002","198580.589859","199347.302603","200114.014728","200880.48137","187030.602273","187797.161048","191680.620993","192447.459879","193213.627551","193980.677912","194747.287701","195513.335722","196280.487183","197047.46396","200124.735618","Mapping"
"Mixed","both","tile","32","M_lash.wav","space","582.636276726","343","190914.019242","197813.998002","198580.589859","199347.302603","200114.014728","200880.48137","201647.481954","187797.161048","191680.620993","192447.459879","193213.627551","193980.677912","194747.287701","195513.335722","196280.487183","197047.46396","200890.406758","Mapping"
"Mixed","both","tile","32","F_bluff.wav","None","718.811612111","343","190914.019242","197813.998002","198580.589859","199347.302603","200114.014728","200880.48137","201647.481954","202413.850279","191680.620993","192447.459879","193213.627551","193980.677912","194747.287701","195513.335722","196280.487183","197047.46396","201657.509987","Mapping"
"Mixed","both","ball","3","M_jolt.wav","None","719.309381675","343","205530.407957","197813.998002","198580.589859","199347.302603","200114.014728","200880.48137","201647.481954","202413.850279","191680.620993","192447.459879","193213.627551","193980.677912","194747.287701","195513.335722","196280.487183","197047.46396","202423.8678","Mapping"
"Mixed","both","ball","3","F_ball.wav","None","722.554772627","343","205530.407957","197813.998002","198580.589859","199347.302603","200114.014728","200880.48137","201647.481954","202413.850279","206296.468036","192447.459879","193213.627551","193980.677912","194747.287701","195513.335722","196280.487183","197047.46396","205540.57419","Mapping"
"Mixed","both","ball","3","M_lash.wav","space","518.684727605","343","205530.407957","197813.998002","198580.589859","199347.302603","200114.014728","200880.48137","201647.481954","202413.850279","206296.468036","207064.006273","193213.627551","193980.677912","194747.287701","195513.335722","196280.487183","197047.46396","206306.260479","Mapping"
"Mixed","both","ball","3","M_dime.wav","None","721.434637904","343","205530.407957","197813.998002","198580.589859","199347.302603","200114.014728","200880.48137","201647.481954","202413.850279","206296.468036","207064.006273","207830.263913","193980.677912","194747.287701","195513.335722","196280.487183","197047.46396","207074.5599","Mapping"
"Mixed","both","ball","3","F_reek.wav","None","722.009699792","343","205530.407957","197813.998002","198580.589859","199347.302603","200114.014728","200880.48137","201647.481954","202413.850279","206296.468036","207064.006273","207830.263913","208596.490637","194747.287701","195513.335722","196280.487183","197047.46396","207840.591226","Mapping"
"Mixed","both","ball","3","M_dime.wav","None","723.363569472","343","205530.407957","197813.998002","198580.589859","199347.302603","200114.014728","200880.48137","201647.481954","202413.850279","206296.468036","207064.006273","207830.263913","208596.490637","209363.73825","195513.335722","196280.487183","197047.46396","208605.949791","Mapping"
"Mixed","both","ball","3","F_greet.wav","None","721.931170207","343","205530.407957","197813.998002","198580.589859","199347.302603","200114.014728","200880.48137","201647.481954","202413.850279","206296.468036","207064.006273","207830.263913","208596.490637","209363.73825","210130.320832","196280.487183","197047.46396","209373.869547","Mapping"
"Mixed","both","ball","3","M_ball.wav","None","720.857411623","343","205530.407957","197813.998002","198580.589859","199347.302603","200114.014728","200880.48137","201647.481954","202413.850279","206296.468036","207064.006273","207830.263913","208596.490637","209363.73825","210130.320832","210897.295755","197047.46396","210141.579374","Mapping"
"Mixed","both","ball","3","F_greet.wav","space","653.233812191","343","205530.407957","197813.998002","198580.589859","199347.302603","200114.014728","200880.48137","201647.481954","202413.850279","206296.468036","207064.006273","207830.263913","208596.490637","209363.73825","210130.320832","210897.295755","211663.08067","210907.632343","Mapping"
"Mixed","both","ball","3","M_ball.wav","None","723.199089523","343","205530.407957","212429.595233","198580.589859","199347.302603","200114.014728","200880.48137","201647.481954","202413.850279","206296.468036","207064.006273","207830.263913","208596.490637","209363.73825","210130.320832","210897.295755","211663.08067","211672.024123","Mapping"
"Mixed","both","ball","3","M_lash.wav","space","521.913732402","343","205530.407957","212429.595233","213196.966516","199347.302603","200114.014728","200880.48137","201647.481954","202413.850279","206296.468036","207064.006273","207830.263913","208596.490637","209363.73825","210130.320832","210897.295755","211663.08067","212438.926081","Mapping"
"Mixed","both","ball","3","F_ball.wav","None","720.644081943","343","205530.407957","212429.595233","213196.966516","213963.69781","200114.014728","200880.48137","201647.481954","202413.850279","206296.468036","207064.006273","207830.263913","208596.490637","209363.73825","210130.320832","210897.295755","211663.08067","213207.448106","Mapping"
"Mixed","both","ball","3","M_dime.wav","space","514.543661848","343","205530.407957","212429.595233","213196.966516","213963.69781","214730.197225","200880.48137","201647.481954","202413.850279","206296.468036","207064.006273","207830.263913","208596.490637","209363.73825","210130.320832","210897.295755","211663.08067","213974.266278","Mapping"
"Mixed","both","ball","3","F_romp.wav","None","720.850918908","343","205530.407957","212429.595233","213196.966516","213963.69781","214730.197225","215496.621201","201647.481954","202413.850279","206296.468036","207064.006273","207830.263913","208596.490637","209363.73825","210130.320832","210897.295755","211663.08067","214739.879911","Mapping"
"Mixed","both","ball","3","F_romp.wav","None","720.091280527","343","205530.407957","212429.595233","213196.966516","213963.69781","214730.197225","215496.621201","216263.704643","202413.850279","206296.468036","207064.006273","207830.263913","208596.490637","209363.73825","210130.320832","210897.295755","211663.08067","215507.319211","Mapping"
"Mixed","both","ball","3","F_park.wav","None","720.235664397","343","205530.407957","212429.595233","213196.966516","213963.69781","214730.197225","215496.621201","216263.704643","217030.337311","206296.468036","207064.006273","207830.263913","208596.490637","209363.73825","210130.320832","210897.295755","211663.08067","216273.811515","Mapping"
"Mixed","both","cave","18","F_dime.wav","None","720.15095083","343","220146.87211","212429.595233","213196.966516","213963.69781","214730.197225","215496.621201","216263.704643","217030.337311","206296.468036","207064.006273","207830.263913","208596.490637","209363.73825","210130.320832","210897.295755","211663.08067","217040.342156","Mapping"
"Mixed","both","cave","18","M_gnash.wav","None","721.774419304","343","220146.87211","212429.595233","213196.966516","213963.69781","214730.197225","215496.621201","216263.704643","217030.337311","220912.822742","207064.006273","207830.263913","208596.490637","209363.73825","210130.320832","210897.295755","211663.08067","220156.917457","Mapping"
"Mixed","both","cave","18","F_gnash.wav","None","723.191360012","343","220146.87211","212429.595233","213196.966516","213963.69781","214730.197225","215496.621201","216263.704643","217030.337311","220912.822742","221679.6236","207830.263913","208596.490637","209363.73825","210130.320832","210897.295755","211663.08067","220922.208622","Mapping"
"Mixed","both","cave","18","F_romp.wav","None","730.331405997","343","220146.87211","212429.595233","213196.966516","213963.69781","214730.197225","215496.621201","216263.704643","217030.337311","220912.822742","221679.6236","222446.39756","208596.490637","209363.73825","210130.320832","210897.295755","211663.08067","221688.790895","Mapping"
"Mixed","both","cave","18","F_romp.wav","None","729.154692497","343","220146.87211","212429.595233","213196.966516","213963.69781","214730.197225","215496.621201","216263.704643","217030.337311","220912.822742","221679.6236","222446.39756","223213.097319","209363.73825","210130.320832","210897.295755","211663.08067","222456.418173","Mapping"
"Mixed","both","cave","18","M_romp.wav","None","729.239715263","343","220146.87211","212429.595233","213196.966516","213963.69781","214730.197225","215496.621201","216263.704643","217030.337311","220912.822742","221679.6236","222446.39756","223213.097319","223979.599515","210130.320832","210897.295755","211663.08067","223223.108656","Mapping"
"Mixed","both","cave","18","F_cave.wav","None","729.120993055","343","220146.87211","212429.595233","213196.966516","213963.69781","214730.197225","215496.621201","216263.704643","217030.337311","220912.822742","221679.6236","222446.39756","223213.097319","223979.599515","224745.968459","210897.295755","211663.08067","223989.967639","Mapping"
"Mixed","both","cave","18","F_knife.wav","space","613.514331635","343","220146.87211","212429.595233","213196.966516","213963.69781","214730.197225","215496.621201","216263.704643","217030.337311","220912.822742","221679.6236","222446.39756","223213.097319","223979.599515","224745.968459","225513.073543","211663.08067","224755.083194","Mapping"
"Mixed","both","cave","18","M_cave.wav","None","728.279423434","343","220146.87211","212429.595233","213196.966516","213963.69781","214730.197225","215496.621201","216263.704643","217030.337311","220912.822742","221679.6236","222446.39756","223213.097319","223979.599515","224745.968459","225513.073543","226279.618097","225523.35077","Mapping"
"Mixed","both","cave","18","M_gnash.wav","space","591.083816253","343","220146.87211","227046.339807","213196.966516","213963.69781","214730.197225","215496.621201","216263.704643","217030.337311","220912.822742","221679.6236","222446.39756","223213.097319","223979.599515","224745.968459","225513.073543","226279.618097","226289.478248","Mapping"
"Mixed","both","cave","18","M_jaw.wav","None","728.281278163","343","220146.87211","227046.339807","227812.523864","213963.69781","214730.197225","215496.621201","216263.704643","217030.337311","220912.822742","221679.6236","222446.39756","223213.097319","223979.599515","224745.968459","225513.073543","226279.618097","227056.150182","Mapping"
"Mixed","both","cave","18","M_cling.wav","None","729.175407439","343","220146.87211","227046.339807","227812.523864","228579.574225","214730.197225","215496.621201","216263.704643","217030.337311","220912.822742","221679.6236","222446.39756","223213.097319","223979.599515","224745.968459","225513.073543","226279.618097","227822.014554","Mapping"
"Mixed","both","cave","18","F_cave.wav","None","728.298591916","343","220146.87211","227046.339807","227812.523864","228579.574225","229346.238738","215496.621201","216263.704643","217030.337311","220912.822742","221679.6236","222446.39756","223213.097319","223979.599515","224745.968459","225513.073543","226279.618097","228589.577524","Mapping"
"Mixed","both","cave","18","F_cad.wav","space","580.277285073","343","220146.87211","227046.339807","227812.523864","228579.574225","229346.238738","230112.455568","216263.704643","217030.337311","220912.822742","221679.6236","222446.39756","223213.097319","223979.599515","224745.968459","225513.073543","226279.618097","229356.258423","Mapping"
"Mixed","both","cave","18","M_cave.wav","None","729.0684334","343","220146.87211","227046.339807","227812.523864","228579.574225","229346.238738","230112.455568","230879.522315","217030.337311","220912.822742","221679.6236","222446.39756","223213.097319","223979.599515","224745.968459","225513.073543","226279.618097","230121.761681","Mapping"
"Mixed","both","cave","18","M_gnash.wav","None","728.511303198","343","220146.87211","227046.339807","227812.523864","228579.574225","229346.238738","230112.455568","230879.522315","231646.540831","220912.822742","221679.6236","222446.39756","223213.097319","223979.599515","224745.968459","225513.073543","226279.618097","230889.046086","Mapping"
"Mixed","both","done","40","M_bluff.wav","space","0.0346275046468","343","234779.999153","227046.339807","227812.523864","228579.574225","229346.238738","230112.455568","230879.522315","231646.540831","220912.822742","221679.6236","222446.39756","223213.097319","223979.599515","224745.968459","225513.073543","226279.618097","231656.593288","Mapping"
"Mixed","both","done","40","F_lash.wav","None","721.319007222","343","234779.999153","227046.339807","227812.523864","228579.574225","229346.238738","230112.455568","230879.522315","231646.540831","235546.810213","221679.6236","222446.39756","223213.097319","223979.599515","224745.968459","225513.073543","226279.618097","234791.037255","Mapping"
"Mixed","both","done","40","F_done.wav","None","722.067515831","343","234779.999153","227046.339807","227812.523864","228579.574225","229346.238738","230112.455568","230879.522315","231646.540831","235546.810213","236313.393105","222446.39756","223213.097319","223979.599515","224745.968459","225513.073543","226279.618097","235557.079092","Mapping"
"Mixed","both","done","40","M_knife.wav","space","683.993144892","343","234779.999153","227046.339807","227812.523864","228579.574225","229346.238738","230112.455568","230879.522315","231646.540831","235546.810213","236313.393105","237079.371871","223213.097319","223979.599515","224745.968459","225513.073543","226279.618097","236324.444192","Mapping"
"Mixed","both","done","40","F_done.wav","None","722.981122322","343","234779.999153","227046.339807","227812.523864","228579.574225","229346.238738","230112.455568","230879.522315","231646.540831","235546.810213","236313.393105","237079.371871","237846.758613","223979.599515","224745.968459","225513.073543","226279.618097","237089.006945","Mapping"
"Mixed","both","done","40","F_bluff.wav","space","535.522300284","343","234779.999153","227046.339807","227812.523864","228579.574225","229346.238738","230112.455568","230879.522315","231646.540831","235546.810213","236313.393105","237079.371871","237846.758613","238613.10715","224745.968459","225513.073543","226279.618097","237856.854045","Mapping"
"Mixed","both","done","40","M_cad.wav","None","721.625397447","343","234779.999153","227046.339807","227812.523864","228579.574225","229346.238738","230112.455568","230879.522315","231646.540831","235546.810213","236313.393105","237079.371871","237846.758613","238613.10715","239379.801034","225513.073543","226279.618097","238623.238756","Mapping"
"Mixed","both","done","40","M_done.wav","None","721.314987633","343","234779.999153","227046.339807","227812.523864","228579.574225","229346.238738","230112.455568","230879.522315","231646.540831","235546.810213","236313.393105","237079.371871","237846.758613","238613.10715","239379.801034","240146.637138","226279.618097","239390.435356","Mapping"
"Mixed","both","done","40","M_jolt.wav","None","721.789259464","343","234779.999153","227046.339807","227812.523864","228579.574225","229346.238738","230112.455568","230879.522315","231646.540831","235546.810213","236313.393105","237079.371871","237846.758613","238613.10715","239379.801034","240146.637138","240913.153558","240156.799352","Mapping"
"Mixed","both","done","40","M_reek.wav","space","0.0340091064572","343","234779.999153","241679.681416","227812.523864","228579.574225","229346.238738","230112.455568","230879.522315","231646.540831","235546.810213","236313.393105","237079.371871","237846.758613","238613.10715","239379.801034","240146.637138","240913.153558","240923.464793","Mapping"
"Mixed","both","done","40","M_jaw.wav","None","722.053602338","343","234779.999153","241679.681416","242445.799929","228579.574225","229346.238738","230112.455568","230879.522315","231646.540831","235546.810213","236313.393105","237079.371871","237846.758613","238613.10715","239379.801034","240146.637138","240913.153558","241689.938855","Mapping"
"Mixed","both","done","40","F_greet.wav","None","723.142819479","343","234779.999153","241679.681416","242445.799929","243213.163482","229346.238738","230112.455568","230879.522315","231646.540831","235546.810213","236313.393105","237079.371871","237846.758613","238613.10715","239379.801034","240146.637138","240913.153558","242455.778494","Mapping"
"Mixed","both","done","40","M_done.wav","None","722.411934286","343","234779.999153","241679.681416","242445.799929","243213.163482","243979.544483","230112.455568","230879.522315","231646.540831","235546.810213","236313.393105","237079.371871","237846.758613","238613.10715","239379.801034","240146.637138","240913.153558","243223.326314","Mapping"
"Mixed","both","done","40","F_greet.wav","space","546.137143392","343","234779.999153","241679.681416","242445.799929","243213.163482","243979.544483","244746.677702","230879.522315","231646.540831","235546.810213","236313.393105","237079.371871","237846.758613","238613.10715","239379.801034","240146.637138","240913.153558","243990.160563","Mapping"
"Mixed","both","done","40","F_jaw.wav","None","721.632199362","343","234779.999153","241679.681416","242445.799929","243213.163482","243979.544483","244746.677702","245513.065814","231646.540831","235546.810213","236313.393105","237079.371871","237846.758613","238613.10715","239379.801034","240146.637138","240913.153558","244756.988628","Mapping"
"Mixed","both","done","40","F_jaw.wav","None","722.139552701","343","234779.999153","241679.681416","242445.799929","243213.163482","243979.544483","244746.677702","245513.065814","246279.531528","235546.810213","236313.393105","237079.371871","237846.758613","238613.10715","239379.801034","240146.637138","240913.153558","245523.323562","Mapping"
"Mixed","both","done","38","M_greet.wav","None","722.67998755","343","249413.028497","241679.681416","242445.799929","243213.163482","243979.544483","244746.677702","245513.065814","246279.531528","235546.810213","236313.393105","237079.371871","237846.758613","238613.10715","239379.801034","240146.637138","240913.153558","246289.757741","Mapping"
"Mixed","both","done","38","M_done.wav","None","722.160885576","343","249413.028497","241679.681416","242445.799929","243213.163482","243979.544483","244746.677702","245513.065814","246279.531528","250179.534404","236313.393105","237079.371871","237846.758613","238613.10715","239379.801034","240146.637138","240913.153558","249423.101978","Mapping"
"Mixed","both","done","38","M_jaw.wav","space","578.54189584","343","249413.028497","241679.681416","242445.799929","243213.163482","243979.544483","244746.677702","245513.065814","246279.531528","250179.534404","250946.40328","237079.371871","237846.758613","238613.10715","239379.801034","240146.637138","240913.153558","250189.646841","Mapping"
"Mixed","both","done","38","M_done.wav","None","722.523236647","343","249413.028497","241679.681416","242445.799929","243213.163482","243979.544483","244746.677702","245513.065814","246279.531528","250179.534404","250946.40328","251712.305681","237846.758613","238613.10715","239379.801034","240146.637138","240913.153558","250956.154603","Mapping"
"Mixed","both","done","38","F_depth.wav","None","722.906920593","343","249413.028497","241679.681416","242445.799929","243213.163482","243979.544483","244746.677702","245513.065814","246279.531528","250179.534404","250946.40328","251712.305681","252479.062327","238613.10715","239379.801034","240146.637138","240913.153558","251722.655253","Mapping"
"Mixed","both","done","38","F_bluff.wav","None","724.450313486","343","249413.028497","241679.681416","242445.799929","243213.163482","243979.544483","244746.677702","245513.065814","246279.531528","250179.534404","250946.40328","251712.305681","252479.062327","253246.370848","239379.801034","240146.637138","240913.153558","252488.12172","Mapping"
"Mixed","both","done","38","F_done.wav","None","722.887442913","343","249413.028497","241679.681416","242445.799929","243213.163482","243979.544483","244746.677702","245513.065814","246279.531528","250179.534404","250946.40328","251712.305681","252479.062327","253246.370848","254012.191008","240146.637138","240913.153558","253256.469372","Mapping"
"Mixed","both","done","38","F_cling.wav","None","725.214898586","343","249413.028497","241679.681416","242445.799929","243213.163482","243979.544483","244746.677702","245513.065814","246279.531528","250179.534404","250946.40328","251712.305681","252479.062327","253246.370848","254012.191008","254778.7402","240913.153558","254021.020067","Mapping"
"Mixed","both","done","38","M_romp.wav","space","0.0284439884126","343","249413.028497","241679.681416","242445.799929","243213.163482","243979.544483","244746.677702","245513.065814","246279.531528","250179.534404","250946.40328","251712.305681","252479.062327","253246.370848","254012.191008","254778.7402","255546.203616","254787.9987","Mapping"
"Mixed","both","done","38","M_cling.wav","None","722.616297659","343","249413.028497","256313.055488","242445.799929","243213.163482","243979.544483","244746.677702","245513.065814","246279.531528","250179.534404","250946.40328","251712.305681","252479.062327","253246.370848","254012.191008","254778.7402","255546.203616","255556.544223","Mapping"
"Mixed","both","done","38","F_romp.wav","None","723.112520762","343","249413.028497","256313.055488","257079.122369","243213.163482","243979.544483","244746.677702","245513.065814","246279.531528","250179.534404","250946.40328","251712.305681","252479.062327","253246.370848","254012.191008","254778.7402","255546.203616","256323.139172","Mapping"
"Mixed","both","done","38","F_done.wav","None","724.058900028","343","249413.028497","256313.055488","257079.122369","257845.386811","243979.544483","244746.677702","245513.065814","246279.531528","250179.534404","250946.40328","251712.305681","252479.062327","253246.370848","254012.191008","254778.7402","255546.203616","257089.053321","Mapping"
"Mixed","both","done","38","F_park.wav","space","505.106768571","343","249413.028497","256313.055488","257079.122369","257845.386811","258611.940331","244746.677702","245513.065814","246279.531528","250179.534404","250946.40328","251712.305681","252479.062327","253246.370848","254012.191008","254778.7402","255546.203616","257854.927587","Mapping"
"Mixed","both","done","38","M_romp.wav","None","725.303631276","343","249413.028497","256313.055488","257079.122369","257845.386811","258611.940331","259378.950808","245513.065814","246279.531528","250179.534404","250946.40328","251712.305681","252479.062327","253246.370848","254012.191008","254778.7402","255546.203616","258620.938817","Mapping"
"Mixed","both","done","38","F_priest.wav","None","724.501945544","343","249413.028497","256313.055488","257079.122369","257845.386811","258611.940331","259378.950808","260145.708691","246279.531528","250179.534404","250946.40328","251712.305681","252479.062327","253246.370848","254012.191008","254778.7402","255546.203616","259388.785917","Mapping"
"Mixed","both","done","38","M_jaw.wav","None","724.714347161","343","249413.028497","256313.055488","257079.122369","257845.386811","258611.940331","259378.950808","260145.708691","260912.478941","250179.534404","250946.40328","251712.305681","252479.062327","253246.370848","254012.191008","254778.7402","255546.203616","260155.446101","Mapping"
"Mixed","both","ball","5","M_park.wav","None","724.692086689","343","264046.313527","256313.055488","257079.122369","257845.386811","258611.940331","259378.950808","260145.708691","260912.478941","250179.534404","250946.40328","251712.305681","252479.062327","253246.370848","254012.191008","254778.7402","255546.203616","260922.37774","Mapping"
"Mixed","both","ball","5","M_park.wav","None","723.139727954","343","264046.313527","256313.055488","257079.122369","257845.386811","258611.940331","259378.950808","260145.708691","260912.478941","264812.786662","250946.40328","251712.305681","252479.062327","253246.370848","254012.191008","254778.7402","255546.203616","264055.969934","Mapping"
"Mixed","both","ball","5","F_ball.wav","None","722.971538082","343","264046.313527","256313.055488","257079.122369","257845.386811","258611.940331","259378.950808","260145.708691","260912.478941","264812.786662","265578.962371","251712.305681","252479.062327","253246.370848","254012.191008","254778.7402","255546.203616","264822.970517","Mapping"
"Mixed","both","ball","5","F_cad.wav","space","523.300065193","343","264046.313527","256313.055488","257079.122369","257845.386811","258611.940331","259378.950808","260145.708691","260912.478941","264812.786662","265578.962371","266346.286042","252479.062327","253246.370848","254012.191008","254778.7402","255546.203616","265588.57302","Mapping"
"Mixed","both","ball","5","F_priest.wav","None","722.797473427","343","264046.313527","256313.055488","257079.122369","257845.386811","258611.940331","259378.950808","260145.708691","260912.478941","264812.786662","265578.962371","266346.286042","267112.307165","253246.370848","254012.191008","254778.7402","255546.203616","266356.447946","Mapping"
"Mixed","both","ball","5","M_park.wav","None","724.693941884","343","264046.313527","256313.055488","257079.122369","257845.386811","258611.940331","259378.950808","260145.708691","260912.478941","264812.786662","265578.962371","266346.286042","267112.307165","267878.838115","254012.191008","254778.7402","255546.203616","267121.920287","Mapping"
"Mixed","both","ball","5","F_depth.wav","None","725.192947313","343","264046.313527","256313.055488","257079.122369","257845.386811","258611.940331","259378.950808","260145.708691","260912.478941","264812.786662","265578.962371","266346.286042","267112.307165","267878.838115","268645.521178","254778.7402","255546.203616","267888.276554","Mapping"
"Mixed","both","ball","5","F_cling.wav","None","725.158319809","343","264046.313527","256313.055488","257079.122369","257845.386811","258611.940331","259378.950808","260145.708691","260912.478941","264812.786662","265578.962371","266346.286042","267112.307165","267878.838115","268645.521178","269412.229903","255546.203616","268655.239728","Mapping"
"Mixed","both","ball","5","M_ball.wav","None","725.223246031","343","264046.313527","256313.055488","257079.122369","257845.386811","258611.940331","259378.950808","260145.708691","260912.478941","264812.786662","265578.962371","266346.286042","267112.307165","267878.838115","268645.521178","269412.229903","270178.770128","269422.476521","Mapping"
"Mixed","both","ball","5","F_bluff.wav","space","571.55272644","343","264046.313527","270945.653226","257079.122369","257845.386811","258611.940331","259378.950808","260145.708691","260912.478941","264812.786662","265578.962371","266346.286042","267112.307165","267878.838115","268645.521178","269412.229903","270178.770128","270188.220625","Mapping"
"Mixed","both","ball","5","F_ball.wav","None","725.075461436","343","264046.313527","270945.653226","271712.210455","257845.386811","258611.940331","259378.950808","260145.708691","260912.478941","264812.786662","265578.962371","266346.286042","267112.307165","267878.838115","268645.521178","269412.229903","270178.770128","270955.481842","Mapping"
"Mixed","both","ball","5","F_reek.wav","space","725.892296992","343","264046.313527","270945.653226","271712.210455","272478.847761","258611.940331","259378.950808","260145.708691","260912.478941","264812.786662","265578.962371","266346.286042","267112.307165","267878.838115","268645.521178","269412.229903","270178.770128","271721.868099","Mapping"
"Mixed","both","ball","5","M_cad.wav","None","726.30318813","343","264046.313527","270945.653226","271712.210455","272478.847761","273245.07974","259378.950808","260145.708691","260912.478941","264812.786662","265578.962371","266346.286042","267112.307165","267878.838115","268645.521178","269412.229903","270178.770128","272488.634329","Mapping"
"Mixed","both","ball","5","M_ball.wav","None","728.1461698","343","264046.313527","270945.653226","271712.210455","272478.847761","273245.07974","274012.198429","260145.708691","260912.478941","264812.786662","265578.962371","266346.286042","267112.307165","267878.838115","268645.521178","269412.229903","270178.770128","273253.877882","Mapping"
"Mixed","both","ball","5","M_cad.wav","space","497.604062315","343","264046.313527","270945.653226","271712.210455","272478.847761","273245.07974","274012.198429","274778.801725","260912.478941","264812.786662","265578.962371","266346.286042","267112.307165","267878.838115","268645.521178","269412.229903","270178.770128","274022.110521","Mapping"
"Mixed","both","ball","5","M_knife.wav","None","726.471687667","343","264046.313527","270945.653226","271712.210455","272478.847761","273245.07974","274012.198429","274778.801725","275545.155828","264812.786662","265578.962371","266346.286042","267112.307165","267878.838115","268645.521178","269412.229903","270178.770128","274788.852328","Mapping"
"Mixed","both","tile","35","M_lash.wav","None","727.735278197","343","278679.156439","270945.653226","271712.210455","272478.847761","273245.07974","274012.198429","274778.801725","275545.155828","264812.786662","265578.962371","266346.286042","267112.307165","267878.838115","268645.521178","269412.229903","270178.770128","275554.63075","Mapping"
"Mixed","both","tile","35","M_reek.wav","None","722.565593664","343","278679.156439","270945.653226","271712.210455","272478.847761","273245.07974","274012.198429","274778.801725","275545.155828","279445.27588","265578.962371","266346.286042","267112.307165","267878.838115","268645.521178","269412.229903","270178.770128","278689.653179","Mapping"
"Mixed","both","tile","35","F_depth.wav","None","724.146087188","343","278679.156439","270945.653226","271712.210455","272478.847761","273245.07974","274012.198429","274778.801725","275545.155828","279445.27588","280212.130843","266346.286042","267112.307165","267878.838115","268645.521178","269412.229903","270178.770128","279455.202813","Mapping"
"Mixed","both","tile","35","F_jolt.wav","None","724.262335803","343","278679.156439","270945.653226","271712.210455","272478.847761","273245.07974","274012.198429","274778.801725","275545.155828","279445.27588","280212.130843","280978.579863","267112.307165","267878.838115","268645.521178","269412.229903","270178.770128","280222.292439","Mapping"
"Mixed","both","tile","35","M_cad.wav","None","725.574157666","343","278679.156439","270945.653226","271712.210455","272478.847761","273245.07974","274012.198429","274778.801725","275545.155828","279445.27588","280212.130843","280978.579863","281745.381957","267878.838115","268645.521178","269412.229903","270178.770128","280988.036852","Mapping"
"Mixed","both","tile","35","M_tile.wav","None","725.005897693","343","278679.156439","270945.653226","271712.210455","272478.847761","273245.07974","274012.198429","274778.801725","275545.155828","279445.27588","280212.130843","280978.579863","281745.381957","282511.542208","268645.521178","269412.229903","270178.770128","281755.734931","Mapping"
"Mixed","both","tile","35","M_park.wav","space","687.000163365","343","278679.156439","270945.653226","271712.210455","272478.847761","273245.07974","274012.198429","274778.801725","275545.155828","279445.27588","280212.130843","280978.579863","281745.381957","282511.542208","283278.573401","269412.229903","270178.770128","282520.567902","Mapping"
"Mixed","both","tile","35","F_park.wav","None","726.493948139","343","278679.156439","270945.653226","271712.210455","272478.847761","273245.07974","274012.198429","274778.801725","275545.155828","279445.27588","280212.130843","280978.579863","281745.381957","282511.542208","283278.573401","284045.322627","270178.770128","283287.66773","Mapping"
"Mixed","both","tile","35","F_jolt.wav","None","726.197760087","343","278679.156439","270945.653226","271712.210455","272478.847761","273245.07974","274012.198429","274778.801725","275545.155828","279445.27588","280212.130843","280978.579863","281745.381957","282511.542208","283278.573401","284045.322627","284811.481332","284055.286042","Mapping"
"Mixed","both","tile","35","M_lash.wav","None","727.790002245","343","278679.156439","285578.163159","271712.210455","272478.847761","273245.07974","274012.198429","274778.801725","275545.155828","279445.27588","280212.130843","280978.579863","281745.381957","282511.542208","283278.573401","284045.322627","284811.481332","284821.030146","Mapping"
"Mixed","both","tile","35","F_tile.wav","None","733.025850262","343","278679.156439","285578.163159","286345.264224","272478.847761","273245.07974","274012.198429","274778.801725","275545.155828","279445.27588","280212.130843","280978.579863","281745.381957","282511.542208","283278.573401","284045.322627","284811.481332","285587.336637","Mapping"
"Mixed","both","tile","35","M_cling.wav","space","588.891159743","343","278679.156439","285578.163159","286345.264224","287111.97604","273245.07974","274012.198429","274778.801725","275545.155828","279445.27588","280212.130843","280978.579863","281745.381957","282511.542208","283278.573401","284045.322627","284811.481332","286354.660616","Mapping"
"Mixed","both","tile","35","M_tile.wav","None","731.932304334","343","278679.156439","285578.163159","286345.264224","287111.97604","287878.236773","274012.198429","274778.801725","275545.155828","279445.27588","280212.130843","280978.579863","281745.381957","282511.542208","283278.573401","284045.322627","284811.481332","287121.621626","Mapping"
"Mixed","both","tile","35","F_priest.wav","None","732.950721402","343","278679.156439","285578.163159","286345.264224","287111.97604","287878.236773","288645.164083","274778.801725","275545.155828","279445.27588","280212.130843","280978.579863","281745.381957","282511.542208","283278.573401","284045.322627","284811.481332","287887.798572","Mapping"
"Mixed","both","tile","35","F_tile.wav","space","0.0336999073625","343","278679.156439","285578.163159","286345.264224","287111.97604","287878.236773","288645.164083","289411.190462","275545.155828","279445.27588","280212.130843","280978.579863","281745.381957","282511.542208","283278.573401","284045.322627","284811.481332","288654.95467","Mapping"
"Mixed","both","tile","35","F_cad.wav","space","554.770496208","343","278679.156439","285578.163159","286345.264224","287111.97604","287878.236773","288645.164083","289411.190462","290178.450133","279445.27588","280212.130843","280978.579863","281745.381957","282511.542208","283278.573401","284045.322627","284811.481332","289420.718253","Mapping"
"Mixed","both","cave","14","M_knife.wav","None","730.991490185","343","293312.213918","285578.163159","286345.264224","287111.97604","287878.236773","288645.164083","289411.190462","290178.450133","279445.27588","280212.130843","280978.579863","281745.381957","282511.542208","283278.573401","284045.322627","284811.481332","290189.123102","Mapping"
"Mixed","both","cave","14","M_knife.wav","None","722.023303621","343","293312.213918","285578.163159","286345.264224","287111.97604","287878.236773","288645.164083","289411.190462","290178.450133","294079.006738","280212.130843","280978.579863","281745.381957","282511.542208","283278.573401","284045.322627","284811.481332","293322.439204","Mapping"
"Mixed","both","cave","14","F_cave.wav","None","722.492319066","343","293312.213918","285578.163159","286345.264224","287111.97604","287878.236773","288645.164083","289411.190462","290178.450133","294079.006738","294844.844521","280978.579863","281745.381957","282511.542208","283278.573401","284045.322627","284811.481332","294089.13587","Mapping"
"Mixed","both","cave","14","F_greet.wav","space","545.119345188","343","293312.213918","285578.163159","286345.264224","287111.97604","287878.236773","288645.164083","289411.190462","290178.450133","294079.006738","294844.844521","295611.972485","281745.381957","282511.542208","283278.573401","284045.322627","284811.481332","294854.258846","Mapping"
"Mixed","both","cave","14","F_cave.wav","None","723.504552152","343","293312.213918","285578.163159","286345.264224","287111.97604","287878.236773","288645.164083","289411.190462","290178.450133","294079.006738","294844.844521","295611.972485","296378.253314","282511.542208","283278.573401","284045.322627","284811.481332","295621.592718","Mapping"
"Mixed","both","cave","14","M_knife.wav","space","691.432779655","343","293312.213918","285578.163159","286345.264224","287111.97604","287878.236773","288645.164083","289411.190462","290178.450133","294079.006738","294844.844521","295611.972485","296378.253314","297144.885363","283278.573401","284045.322627","284811.481332","296387.886223","Mapping"
"Mixed","both","cave","14","F_priest.wav","None","724.175767507","343","293312.213918","285578.163159","286345.264224","287111.97604","287878.236773","288645.164083","289411.190462","290178.450133","294079.006738","294844.844521","295611.972485","296378.253314","297144.885363","297912.157092","284045.322627","284811.481332","297154.283919","Mapping"
"Mixed","both","cave","14","M_gnash.wav","None","723.121177405","343","293312.213918","285578.163159","286345.264224","287111.97604","287878.236773","288645.164083","289411.190462","290178.450133","294079.006738","294844.844521","295611.972485","296378.253314","297144.885363","297912.157092","298678.314252","284811.481332","297922.493062","Mapping"
"Mixed","both","cave","14","M_cling.wav","None","724.646947347","343","293312.213918","285578.163159","286345.264224","287111.97604","287878.236773","288645.164083","289411.190462","290178.450133","294079.006738","294844.844521","295611.972485","296378.253314","297144.885363","297912.157092","298678.314252","299445.044309","298688.708345","Mapping"
"Mixed","both","cave","14","F_dime.wav","None","725.522835273","343","293312.213918","300211.637094","286345.264224","287111.97604","287878.236773","288645.164083","289411.190462","290178.450133","294079.006738","294844.844521","295611.972485","296378.253314","297144.885363","297912.157092","298678.314252","299445.044309","299455.015763","Mapping"
"Mixed","both","cave","14","M_cave.wav","None","726.896491833","343","293312.213918","300211.637094","300978.182884","287111.97604","287878.236773","288645.164083","289411.190462","290178.450133","294079.006738","294844.844521","295611.972485","296378.253314","297144.885363","297912.157092","298678.314252","299445.044309","300220.775635","Mapping"
"Mixed","both","cave","14","M_priest.wav","space","467.105053365","343","293312.213918","300211.637094","300978.182884","301744.964574","287878.236773","288645.164083","289411.190462","290178.450133","294079.006738","294844.844521","295611.972485","296378.253314","297144.885363","297912.157092","298678.314252","299445.044309","300988.125585","Mapping"
"Mixed","both","cave","14","F_reek.wav","None","725.484188646","343","293312.213918","300211.637094","300978.182884","301744.964574","302511.13379","288645.164083","289411.190462","290178.450133","294079.006738","294844.844521","295611.972485","296378.253314","297144.885363","297912.157092","298678.314252","299445.044309","301755.180583","Mapping"
"Mixed","both","cave","14","M_cave.wav","None","727.495978586","343","293312.213918","300211.637094","300978.182884","301744.964574","302511.13379","303277.918572","289411.190462","290178.450133","294079.006738","294844.844521","295611.972485","296378.253314","297144.885363","297912.157092","298678.314252","299445.044309","302520.180198","Mapping"
"Mixed","both","cave","14","F_depth.wav","space","679.782206193","343","293312.213918","300211.637094","300978.182884","301744.964574","302511.13379","303277.918572","304044.657286","290178.450133","294079.006738","294844.844521","295611.972485","296378.253314","297144.885363","297912.157092","298678.314252","299445.044309","303287.410498","Mapping"
"Mixed","both","cave","14","F_knife.wav","None","726.717170794","343","293312.213918","300211.637094","300978.182884","301744.964574","302511.13379","303277.918572","304044.657286","304811.634682","294079.006738","294844.844521","295611.972485","296378.253314","297144.885363","297912.157092","298678.314252","299445.044309","304054.215376","Mapping"
"Mixed","both","ball","9","F_priest.wav","None","726.588864345","343","307945.447626","300211.637094","300978.182884","301744.964574","302511.13379","303277.918572","304044.657286","304811.634682","294079.006738","294844.844521","295611.972485","296378.253314","297144.885363","297912.157092","298678.314252","299445.044309","304821.57491","Mapping"
"Mixed","both","ball","9","F_cling.wav","None","722.861472052","343","307945.447626","300211.637094","300978.182884","301744.964574","302511.13379","303277.918572","304044.657286","304811.634682","308711.022612","294844.844521","295611.972485","296378.253314","297144.885363","297912.157092","298678.314252","299445.044309","307955.354462","Mapping"
"Mixed","both","ball","9","F_ball.wav","None","725.55684438","343","307945.447626","300211.637094","300978.182884","301744.964574","302511.13379","303277.918572","304044.657286","304811.634682","308711.022612","309477.836146","295611.972485","296378.253314","297144.885363","297912.157092","298678.314252","299445.044309","308719.919998","Mapping"
"Mixed","both","ball","9","M_depth.wav","space","559.952548239","343","307945.447626","300211.637094","300978.182884","301744.964574","302511.13379","303277.918572","304044.657286","304811.634682","308711.022612","309477.836146","310245.324606","296378.253314","297144.885363","297912.157092","298678.314252","299445.044309","309487.133912","Mapping"
"Mixed","both","ball","9","F_ball.wav","None","723.119631875","343","307945.447626","300211.637094","300978.182884","301744.964574","302511.13379","303277.918572","304044.657286","304811.634682","308711.022612","309477.836146","310245.324606","311011.546691","297144.885363","297912.157092","298678.314252","299445.044309","310255.527012","Mapping"
"Mixed","both","ball","9","M_cad.wav","space","553.81638743","343","307945.447626","300211.637094","300978.182884","301744.964574","302511.13379","303277.918572","304044.657286","304811.634682","308711.022612","309477.836146","310245.324606","311011.546691","311777.643562","297912.157092","298678.314252","299445.044309","311021.260913","Mapping"
"Mixed","both","ball","9","F_gnash.wav","None","725.136368535","343","307945.447626","300211.637094","300978.182884","301744.964574","302511.13379","303277.918572","304044.657286","304811.634682","308711.022612","309477.836146","310245.324606","311011.546691","311777.643562","312544.744009","298678.314252","299445.044309","311786.820132","Mapping"
"Mixed","both","ball","9","M_bluff.wav","space","612.184577622","343","307945.447626","300211.637094","300978.182884","301744.964574","302511.13379","303277.918572","304044.657286","304811.634682","308711.022612","309477.836146","310245.324606","311011.546691","311777.643562","312544.744009","313311.938445","299445.044309","312554.850881","Mapping"
"Mixed","both","ball","9","M_reek.wav","None","723.002145533","343","307945.447626","300211.637094","300978.182884","301744.964574","302511.13379","303277.918572","304044.657286","304811.634682","308711.022612","309477.836146","310245.324606","311011.546691","311777.643562","312544.744009","313311.938445","314078.047373","313321.934633","Mapping"
"Mixed","both","ball","9","M_romp.wav","None","724.289852194","343","307945.447626","314844.640158","300978.182884","301744.964574","302511.13379","303277.918572","304044.657286","304811.634682","308711.022612","309477.836146","310245.324606","311011.546691","311777.643562","312544.744009","313311.938445","314078.047373","314087.949882","Mapping"
"Mixed","both","ball","9","F_park.wav","None","725.514178164","343","307945.447626","314844.640158","315611.492648","301744.964574","302511.13379","303277.918572","304044.657286","304811.634682","308711.022612","309477.836146","310245.324606","311011.546691","311777.643562","312544.744009","313311.938445","314078.047373","314854.016144","Mapping"
"Mixed","both","ball","9","M_ball.wav","None","725.57632206","343","307945.447626","314844.640158","315611.492648","316377.950015","302511.13379","303277.918572","304044.657286","304811.634682","308711.022612","309477.836146","310245.324606","311011.546691","311777.643562","312544.744009","313311.938445","314078.047373","315621.379388","Mapping"
"Mixed","both","ball","9","F_jaw.wav","space","531.345370226","343","307945.447626","314844.640158","315611.492648","316377.950015","317144.181994","303277.918572","304044.657286","304811.634682","308711.022612","309477.836146","310245.324606","311011.546691","311777.643562","312544.744009","313311.938445","314078.047373","316387.606112","Mapping"
"Mixed","both","ball","9","M_priest.wav","None","729.707494378","343","307945.447626","314844.640158","315611.492648","316377.950015","317144.181994","317910.906487","304044.657286","304811.634682","308711.022612","309477.836146","310245.324606","311011.546691","311777.643562","312544.744009","313311.938445","314078.047373","317153.431838","Mapping"
"Mixed","both","ball","9","M_ball.wav","None","730.728384107","343","307945.447626","314844.640158","315611.492648","316377.950015","317144.181994","317910.906487","318677.519677","304811.634682","308711.022612","309477.836146","310245.324606","311011.546691","311777.643562","312544.744009","313311.938445","314078.047373","317919.713594","Mapping"
"Mixed","both","ball","9","F_depth.wav","None","731.521413196","343","307945.447626","314844.640158","315611.492648","316377.950015","317144.181994","317910.906487","318677.519677","319444.678248","308711.022612","309477.836146","310245.324606","311011.546691","311777.643562","312544.744009","313311.938445","314078.047373","318686.775704","Mapping"
"Mixed","both","done","43","F_jaw.wav","space","16.4733664133","343","322578.206443","314844.640158","315611.492648","316377.950015","317144.181994","317910.906487","318677.519677","319444.678248","308711.022612","309477.836146","310245.324606","311011.546691","311777.643562","312544.744009","313311.938445","314078.047373","319454.430189","Mapping"
"Mixed","both","done","43","F_priest.wav","None","722.538077272","343","322578.206443","314844.640158","315611.492648","316377.950015","317144.181994","317910.906487","318677.519677","319444.678248","323345.019049","309477.836146","310245.324606","311011.546691","311777.643562","312544.744009","313311.938445","314078.047373","322588.460481","Mapping"
"Mixed","both","done","43","F_done.wav","None","722.914959304","343","322578.206443","314844.640158","315611.492648","316377.950015","317144.181994","317910.906487","318677.519677","319444.678248","323345.019049","324111.246392","310245.324606","311011.546691","311777.643562","312544.744009","313311.938445","314078.047373","323355.276798","Mapping"
"Mixed","both","done","43","M_bluff.wav","space","605.571671855","343","322578.206443","314844.640158","315611.492648","316377.950015","317144.181994","317910.906487","318677.519677","319444.678248","323345.019049","324111.246392","324878.295516","311011.546691","311777.643562","312544.744009","313311.938445","314078.047373","324121.254947","Mapping"
"Mixed","both","done","43","F_done.wav","None","723.15085819","343","322578.206443","314844.640158","315611.492648","316377.950015","317144.181994","317910.906487","318677.519677","319444.678248","323345.019049","324111.246392","324878.295516","325644.52193","311777.643562","312544.744009","313311.938445","314078.047373","324888.361577","Mapping"
"Mixed","both","done","43","M_reek.wav","space","616.422105581","343","322578.206443","314844.640158","315611.492648","316377.950015","317144.181994","317910.906487","318677.519677","319444.678248","323345.019049","324111.246392","324878.295516","325644.52193","326411.520041","312544.744009","313311.938445","314078.047373","325654.366314","Mapping"
"Mixed","both","done","43","F_reek.wav","None","722.094413359","343","322578.206443","314844.640158","315611.492648","316377.950015","317144.181994","317910.906487","318677.519677","319444.678248","323345.019049","324111.246392","324878.295516","325644.52193","326411.520041","327177.733779","313311.938445","314078.047373","326422.392426","Mapping"
"Mixed","both","done","43","M_done.wav","None","725.286935922","343","322578.206443","314844.640158","315611.492648","316377.950015","317144.181994","317910.906487","318677.519677","319444.678248","323345.019049","324111.246392","324878.295516","325644.52193","326411.520041","327177.733779","327944.739928","314078.047373","327187.095853","Mapping"
"Mixed","both","done","43","M_reek.wav","space","563.850294333","343","322578.206443","314844.640158","315611.492648","316377.950015","317144.181994","317910.906487","318677.519677","319444.678248","323345.019049","324111.246392","324878.295516","325644.52193","326411.520041","327177.733779","327944.739928","328710.800935","327954.923784","Mapping"
"Mixed","both","done","43","F_greet.wav","None","726.031424943","343","322578.206443","329477.706912","315611.492648","316377.950015","317144.181994","317910.906487","318677.519677","319444.678248","323345.019049","324111.246392","324878.295516","325644.52193","326411.520041","327177.733779","327944.739928","328710.800935","328719.843633","Mapping"
"Mixed","both","done","43","M_jolt.wav","None","725.430082995","343","322578.206443","329477.706912","330244.485819","316377.950015","317144.181994","317910.906487","318677.519677","319444.678248","323345.019049","324111.246392","324878.295516","325644.52193","326411.520041","327177.733779","327944.739928","328710.800935","329487.74793","Mapping"
"Mixed","both","done","43","F_knife.wav","None","726.80714028","343","322578.206443","329477.706912","330244.485819","331011.081077","317144.181994","317910.906487","318677.519677","319444.678248","323345.019049","324111.246392","324878.295516","325644.52193","326411.520041","327177.733779","327944.739928","328710.800935","330253.79255","Mapping"
"Mixed","both","done","43","M_dime.wav","None","727.027581073","343","322578.206443","329477.706912","330244.485819","331011.081077","331777.724256","317910.906487","318677.519677","319444.678248","323345.019049","324111.246392","324878.295516","325644.52193","326411.520041","327177.733779","327944.739928","328710.800935","331020.787878","Mapping"
"Mixed","both","done","43","M_done.wav","None","727.705597878","343","322578.206443","329477.706912","330244.485819","331011.081077","331777.724256","332544.046824","318677.519677","319444.678248","323345.019049","324111.246392","324878.295516","325644.52193","326411.520041","327177.733779","327944.739928","328710.800935","331787.42642","Mapping"
"Mixed","both","done","43","F_cad.wav","space","653.693243861","343","322578.206443","329477.706912","330244.485819","331011.081077","331777.724256","332544.046824","333310.58272","319444.678248","323345.019049","324111.246392","324878.295516","325644.52193","326411.520041","327177.733779","327944.739928","328710.800935","332553.014392","Mapping"
"Mixed","both","done","43","M_depth.wav","None","728.602818679","343","322578.206443","329477.706912","330244.485819","331011.081077","331777.724256","332544.046824","333310.58272","334077.698626","323345.019049","324111.246392","324878.295516","325644.52193","326411.520041","327177.733779","327944.739928","328710.800935","333319.839984","Mapping"
"Mixed","both","done","41","M_park.wav","None","728.090209421","343","337211.44788","329477.706912","330244.485819","331011.081077","331777.724256","332544.046824","333310.58272","334077.698626","323345.019049","324111.246392","324878.295516","325644.52193","326411.520041","327177.733779","327944.739928","328710.800935","334087.660805","Mapping"
"Mixed","both","done","41","F_jaw.wav","None","721.666517667","343","337211.44788","329477.706912","330244.485819","331011.081077","331777.724256","332544.046824","333310.58272","334077.698626","337977.445506","324111.246392","324878.295516","325644.52193","326411.520041","327177.733779","327944.739928","328710.800935","337221.810747","Mapping"
"Mixed","both","done","41","F_done.wav","None","724.2635726","343","337211.44788","329477.706912","330244.485819","331011.081077","331777.724256","332544.046824","333310.58272","334077.698626","337977.445506","338743.869482","324878.295516","325644.52193","326411.520041","327177.733779","327944.739928","328710.800935","337986.699678","Mapping"
"Mixed","both","done","41","M_park.wav","space","573.876781389","343","337211.44788","329477.706912","330244.485819","331011.081077","331777.724256","332544.046824","333310.58272","334077.698626","337977.445506","338743.869482","339510.475252","325644.52193","326411.520041","327177.733779","327944.739928","328710.800935","338752.684628","Mapping"
"Mixed","both","done","41","M_bluff.wav","None","725.052273832","343","337211.44788","329477.706912","330244.485819","331011.081077","331777.724256","332544.046824","333310.58272","334077.698626","337977.445506","338743.869482","339510.475252","340277.969894","326411.520041","327177.733779","327944.739928","328710.800935","339519.551031","Mapping"
"Mixed","both","done","41","M_done.wav","None","724.562543444","343","337211.44788","329477.706912","330244.485819","331011.081077","331777.724256","332544.046824","333310.58272","334077.698626","337977.445506","338743.869482","339510.475252","340277.969894","341044.206512","327177.733779","327944.739928","328710.800935","340287.55921","Mapping"
"Mixed","both","done","41","F_greet.wav","None","725.563955028","343","337211.44788","329477.706912","330244.485819","331011.081077","331777.724256","332544.046824","333310.58272","334077.698626","337977.445506","338743.869482","339510.475252","340277.969894","341044.206512","341810.927294","327944.739928","328710.800935","341054.104383","Mapping"
"Mixed","both","done","41","M_dime.wav","space","34.3911899254","343","337211.44788","329477.706912","330244.485819","331011.081077","331777.724256","332544.046824","333310.58272","334077.698626","337977.445506","338743.869482","339510.475252","340277.969894","341044.206512","341810.927294","342577.16793","328710.800935","341820.130143","Mapping"
"Mixed","both","done","41","F_greet.wav","None","727.214631159","343","337211.44788","329477.706912","330244.485819","331011.081077","331777.724256","332544.046824","333310.58272","334077.698626","337977.445506","338743.869482","339510.475252","340277.969894","341044.206512","341810.927294","342577.16793","343344.243025","342586.307399","Mapping"
"Mixed","both","done","41","F_done.wav","None","727.144448087","343","337211.44788","344110.838901","330244.485819","331011.081077","331777.724256","332544.046824","333310.58272","334077.698626","337977.445506","338743.869482","339510.475252","340277.969894","341044.206512","341810.927294","342577.16793","343344.243025","343353.841926","Mapping"
"Mixed","both","done","41","M_greet.wav","None","727.941187564","343","337211.44788","344110.838901","344877.413754","331011.081077","331777.724256","332544.046824","333310.58272","334077.698626","337977.445506","338743.869482","339510.475252","340277.969894","341044.206512","341810.927294","342577.16793","343344.243025","344120.493144","Mapping"
"Mixed","both","done","41","M_jolt.wav","None","728.88292931","343","337211.44788","344110.838901","344877.413754","345643.86401","331777.724256","332544.046824","333310.58272","334077.698626","337977.445506","338743.869482","339510.475252","340277.969894","341044.206512","341810.927294","342577.16793","343344.243025","344886.966897","Mapping"
"Mixed","both","done","41","M_done.wav","None","730.440853164","343","337211.44788","344110.838901","344877.413754","345643.86401","346410.820691","332544.046824","333310.58272","334077.698626","337977.445506","338743.869482","339510.475252","340277.969894","341044.206512","341810.927294","342577.16793","343344.243025","345652.906707","Mapping"
"Mixed","both","done","41","F_priest.wav","space","474.016311113","343","337211.44788","344110.838901","344877.413754","345643.86401","346410.820691","347177.052052","333310.58272","334077.698626","337977.445506","338743.869482","339510.475252","340277.969894","341044.206512","341810.927294","342577.16793","343344.243025","346420.440924","Mapping"
"Mixed","both","done","41","F_cad.wav","None","730.623883661","343","337211.44788","344110.838901","344877.413754","345643.86401","346410.820691","347177.052052","347943.694613","334077.698626","337977.445506","338743.869482","339510.475252","340277.969894","341044.206512","341810.927294","342577.16793","343344.243025","347186.134015","Mapping"
"Mixed","both","done","41","F_cling.wav","None","731.39217915","343","337211.44788","344110.838901","344877.413754","345643.86401","346410.820691","347177.052052","347943.694613","348710.829688","337977.445506","338743.869482","339510.475252","340277.969894","341044.206512","341810.927294","342577.16793","343344.243025","347952.823261","Mapping"
"Mixed","both","done","39","F_knife.wav","None","731.213786174","343","351844.729509","344110.838901","344877.413754","345643.86401","346410.820691","347177.052052","347943.694613","348710.829688","337977.445506","338743.869482","339510.475252","340277.969894","341044.206512","341810.927294","342577.16793","343344.243025","348720.389014","Mapping"
"Mixed","both","done","39","F_reek.wav","None","722.299086396","343","351844.729509","344110.838901","344877.413754","345643.86401","346410.820691","347177.052052","347943.694613","348710.829688","352611.42092","338743.869482","339510.475252","340277.969894","341044.206512","341810.927294","342577.16793","343344.243025","351854.915529","Mapping"
"Mixed","both","done","39","F_park.wav","None","723.39201346","343","351844.729509","344110.838901","344877.413754","345643.86401","346410.820691","347177.052052","347943.694613","348710.829688","352611.42092","353377.325794","339510.475252","340277.969894","341044.206512","341810.927294","342577.16793","343344.243025","352621.385881","Mapping"
"Mixed","both","done","39","M_done.wav","None","725.683295634","343","351844.729509","344110.838901","344877.413754","345643.86401","346410.820691","347177.052052","347943.694613","348710.829688","352611.42092","353377.325794","354143.971447","340277.969894","341044.206512","341810.927294","342577.16793","343344.243025","353386.843691","Mapping"
"Mixed","both","done","39","F_romp.wav","space","564.69186442","343","351844.729509","344110.838901","344877.413754","345643.86401","346410.820691","347177.052052","347943.694613","348710.829688","352611.42092","353377.325794","354143.971447","354910.728712","341044.206512","341810.927294","342577.16793","343344.243025","354153.630945","Mapping"
"Mixed","both","done","39","M_romp.wav","None","725.096794311","343","351844.729509","344110.838901","344877.413754","345643.86401","346410.820691","347177.052052","347943.694613","348710.829688","352611.42092","353377.325794","354143.971447","354910.728712","355677.324588","341810.927294","342577.16793","343344.243025","354920.679142","Mapping"
"Mixed","both","done","39","M_greet.wav","None","726.31308157","343","351844.729509","344110.838901","344877.413754","345643.86401","346410.820691","347177.052052","347943.694613","348710.829688","352611.42092","353377.325794","354143.971447","354910.728712","355677.324588","356443.616547","342577.16793","343344.243025","355686.954097","Mapping"
"Mixed","both","done","39","F_done.wav","None","727.891101502","343","351844.729509","344110.838901","344877.413754","345643.86401","346410.820691","347177.052052","347943.694613","348710.829688","352611.42092","353377.325794","354143.971447","354910.728712","355677.324588","356443.616547","357210.615586","343344.243025","356452.853715","Mapping"
"Mixed","both","done","39","M_lash.wav","space","450.029726606","343","351844.729509","344110.838901","344877.413754","345643.86401","346410.820691","347177.052052","347943.694613","348710.829688","352611.42092","353377.325794","354143.971447","354910.728712","355677.324588","356443.616547","357210.615586","357977.301122","357220.207684","Mapping"
"Mixed","both","done","39","F_done.wav","None","726.995736361","343","351844.729509","358743.938118","344877.413754","345643.86401","346410.820691","347177.052052","347943.694613","348710.829688","352611.42092","353377.325794","354143.971447","354910.728712","355677.324588","356443.616547","357210.615586","357977.301122","357987.237639","Mapping"
"Mixed","both","done","39","F_cad.wav","space","572.470970917","343","351844.729509","358743.938118","359510.626438","345643.86401","346410.820691","347177.052052","347943.694613","348710.829688","352611.42092","353377.325794","354143.971447","354910.728712","355677.324588","356443.616547","357210.615586","357977.301122","358753.742619","Mapping"
"Mixed","both","done","39","M_done.wav","None","727.435998619","343","351844.729509","358743.938118","359510.626438","360277.174083","346410.820691","347177.052052","347943.694613","348710.829688","352611.42092","353377.325794","354143.971447","354910.728712","355677.324588","356443.616547","357210.615586","357977.301122","359520.172469","Mapping"
"Mixed","both","done","39","F_reek.wav","None","728.284988087","343","351844.729509","358743.938118","359510.626438","360277.174083","361043.8893","347177.052052","347943.694613","348710.829688","352611.42092","353377.325794","354143.971447","354910.728712","355677.324588","356443.616547","357210.615586","357977.301122","360286.763399","Mapping"
"Mixed","both","done","39","M_greet.wav","space","152.555022854","343","351844.729509","358743.938118","359510.626438","360277.174083","361043.8893","361810.593696","347943.694613","348710.829688","352611.42092","353377.325794","354143.971447","354910.728712","355677.324588","356443.616547","357210.615586","357977.301122","361053.591464","Mapping"
"Mixed","both","done","39","M_depth.wav","None","728.472347371","343","351844.729509","358743.938118","359510.626438","360277.174083","361043.8893","361810.593696","362577.143815","348710.829688","352611.42092","353377.325794","354143.971447","354910.728712","355677.324588","356443.616547","357210.615586","357977.301122","361820.22104","Mapping"
"Mixed","both","done","39","M_gnash.wav","None","729.862390086","343","351844.729509","358743.938118","359510.626438","360277.174083","361043.8893","361810.593696","362577.143815","363343.644466","352611.42092","353377.325794","354143.971447","354910.728712","355677.324588","356443.616547","357210.615586","357977.301122","362586.623374","Mapping"
"Mixed","both","cave","23","M_greet.wav","None","730.868439656","343","366477.363111","358743.938118","359510.626438","360277.174083","361043.8893","361810.593696","362577.143815","363343.644466","352611.42092","353377.325794","354143.971447","354910.728712","355677.324588","356443.616547","357210.615586","357977.301122","363353.066519","Mapping"
"Mixed","both","cave","23","M_cave.wav","None","722.399567254","343","366477.363111","358743.938118","359510.626438","360277.174083","361043.8893","361810.593696","362577.143815","363343.644466","367244.265687","353377.325794","354143.971447","354910.728712","355677.324588","356443.616547","357210.615586","357977.301122","366487.553151","Mapping"
"Mixed","both","cave","23","F_lash.wav","space","623.534016777","343","366477.363111","358743.938118","359510.626438","360277.174083","361043.8893","361810.593696","362577.143815","363343.644466","367244.265687","368011.167027","354143.971447","354910.728712","355677.324588","356443.616547","357210.615586","357977.301122","367254.512305","Mapping"
"Mixed","both","cave","23","F_depth.wav","None","722.451508511","343","366477.363111","358743.938118","359510.626438","360277.174083","361043.8893","361810.593696","362577.143815","363343.644466","367244.265687","368011.167027","368777.271318","354910.728712","355677.324588","356443.616547","357210.615586","357977.301122","368021.083757","Mapping"
"Mixed","both","cave","23","F_cave.wav","None","723.238044884","343","366477.363111","358743.938118","359510.626438","360277.174083","361043.8893","361810.593696","362577.143815","363343.644466","367244.265687","368011.167027","368777.271318","369543.758674","355677.324588","356443.616547","357210.615586","357977.301122","368787.58379","Mapping"
"Mixed","both","cave","23","F_greet.wav","space","588.533446193","343","366477.363111","358743.938118","359510.626438","360277.174083","361043.8893","361810.593696","362577.143815","363343.644466","367244.265687","368011.167027","368777.271318","369543.758674","370310.803779","356443.616547","357210.615586","357977.301122","369553.490519","Mapping"
"Mixed","both","cave","23","M_gnash.wav","None","722.548279446","343","366477.363111","358743.938118","359510.626438","360277.174083","361043.8893","361810.593696","362577.143815","363343.644466","367244.265687","368011.167027","368777.271318","369543.758674","370310.803779","371076.918582","357210.615586","357977.301122","370321.711101","Mapping"
"Mixed","both","cave","23","M_greet.wav","None","725.491917692","343","366477.363111","358743.938118","359510.626438","360277.174083","361043.8893","361810.593696","362577.143815","363343.644466","367244.265687","368011.167027","368777.271318","369543.758674","370310.803779","371076.918582","371843.730879","357977.301122","371086.3091","Mapping"
"Mixed","both","cave","23","F_cave.wav","None","726.752107963","343","366477.363111","358743.938118","359510.626438","360277.174083","361043.8893","361810.593696","362577.143815","363343.644466","367244.265687","368011.167027","368777.271318","369543.758674","370310.803779","371076.918582","371843.730879","372610.45599","371853.131909","Mapping"
"Mixed","both","cave","23","M_jolt.wav","space","601.871796418","343","366477.363111","373376.838537","359510.626438","360277.174083","361043.8893","361810.593696","362577.143815","363343.644466","367244.265687","368011.167027","368777.271318","369543.758674","370310.803779","371076.918582","371843.730879","372610.45599","372620.086736","Mapping"
"Mixed","both","cave","23","M_bluff.wav","None","727.201336063","343","366477.363111","373376.838537","374143.704322","360277.174083","361043.8893","361810.593696","362577.143815","363343.644466","367244.265687","368011.167027","368777.271318","369543.758674","370310.803779","371076.918582","371843.730879","372610.45599","373386.110642","Mapping"
"Mixed","both","cave","23","F_greet.wav","None","727.636652533","343","366477.363111","373376.838537","374143.704322","374910.366361","361043.8893","361810.593696","362577.143815","363343.644466","367244.265687","368011.167027","368777.271318","369543.758674","370310.803779","371076.918582","371843.730879","372610.45599","374153.335067","Mapping"
"Mixed","both","cave","23","M_cave.wav","None","728.489661124","343","366477.363111","373376.838537","374143.704322","374910.366361","375676.507753","361810.593696","362577.143815","363343.644466","367244.265687","368011.167027","368777.271318","369543.758674","370310.803779","371076.918582","371843.730879","372610.45599","374919.974227","Mapping"
"Mixed","both","cave","23","F_jaw.wav","space","624.58489649","343","366477.363111","373376.838537","374143.704322","374910.366361","375676.507753","376443.639735","362577.143815","363343.644466","367244.265687","368011.167027","368777.271318","369543.758674","370310.803779","371076.918582","371843.730879","372610.45599","375685.322281","Mapping"
"Mixed","both","cave","23","M_park.wav","None","729.206324555","343","366477.363111","373376.838537","374143.704322","374910.366361","375676.507753","376443.639735","377210.326199","363343.644466","367244.265687","368011.167027","368777.271318","369543.758674","370310.803779","371076.918582","371843.730879","372610.45599","376453.431251","Mapping"
"Mixed","both","cave","23","F_priest.wav","None","730.461877305","343","366477.363111","373376.838537","374143.704322","374910.366361","375676.507753","376443.639735","377210.326199","377976.624342","367244.265687","368011.167027","368777.271318","369543.758674","370310.803779","371076.918582","371843.730879","372610.45599","377219.813488","Mapping"
