"Condition","Talker","Target","Trial","current_stimulus","response_response","response_time_response","subject_nr","time_Audio1","time_Audio10","time_Audio11","time_Audio12","time_Audio13","time_Audio14","time_Audio15","time_Audio16","time_Audio2","time_Audio3","time_Audio4","time_Audio5","time_Audio6","time_Audio7","time_Audio8","time_Audio9","time_response","title"
"Blocked","Male","tile","15","M_gnash.wav","NA","NA","313","184370.518728","NA","NA","NA","NA","NA","NA","NA","NA","NA","NA","NA","NA","NA","NA","NA","NA","Mapping"
"Blocked","Male","tile","15","M_tile.wav","None","715.47563374","313","184370.518728","NA","NA","NA","NA","NA","NA","NA","185120.055663","NA","NA","NA","NA","NA","NA","NA","184386.127646","Mapping"
"Blocked","Male","tile","15","M_greet.wav","None","737.047884613","313","184370.518728","NA","NA","NA","NA","NA","NA","NA","185120.055663","185887.061194","NA","NA","NA","NA","NA","NA","185129.038072","Mapping"
"Blocked","Male","tile","15","M_romp.wav","space","14.6000860259","313","184370.518728","NA","NA","NA","NA","NA","NA","NA","185120.055663","185887.061194","186653.466929","NA","NA","NA","NA","NA","185897.194964","Mapping"
"Blocked","Male","tile","15","M_priest.wav","None","732.589607127","313","184370.518728","NA","NA","NA","NA","NA","NA","NA","185120.055663","185887.061194","186653.466929","187420.22203","NA","NA","NA","NA","186662.754801","Mapping"
"Blocked","Male","tile","15","M_priest.wav","None","730.357685592","313","184370.518728","NA","NA","NA","NA","NA","NA","NA","185120.055663","185887.061194","186653.466929","187420.22203","188186.919006","NA","NA","NA","187429.791868","Mapping"
"Blocked","Male","tile","15","M_cad.wav","None","728.455343284","313","184370.518728","NA","NA","NA","NA","NA","NA","NA","185120.055663","185887.061194","186653.466929","187420.22203","188186.919006","188953.427386","NA","NA","188196.444941","Mapping"
"Blocked","Male","tile","15","M_tile.wav","None","726.676669437","313","184370.518728","NA","NA","NA","NA","NA","NA","NA","185120.055663","185887.061194","186653.466929","187420.22203","188186.919006","188953.427386","189720.105502","NA","188963.085647","Mapping"
"Blocked","Male","tile","15","M_knife.wav","space","478.000935633","313","184370.518728","NA","NA","NA","NA","NA","NA","NA","185120.055663","185887.061194","186653.466929","187420.22203","188186.919006","188953.427386","189720.105502","190487.432573","189729.700383","Mapping"
"Blocked","Male","tile","15","M_park.wav","None","721.7394826","313","184370.518728","191253.913128","NA","NA","NA","NA","NA","NA","185120.055663","185887.061194","186653.466929","187420.22203","188186.919006","188953.427386","189720.105502","190487.432573","190497.333845","Mapping"
"Blocked","Male","tile","15","M_tile.wav","None","720.003474969","313","184370.518728","191253.913128","192003.485309","NA","NA","NA","NA","NA","185120.055663","185887.061194","186653.466929","187420.22203","188186.919006","188953.427386","189720.105502","190487.432573","191264.27043","Mapping"
"Blocked","Male","tile","15","M_depth.wav","space","530.592842959","313","184370.518728","191253.913128","192003.485309","192770.524231","NA","NA","NA","NA","185120.055663","185887.061194","186653.466929","187420.22203","188186.919006","188953.427386","189720.105502","190487.432573","192013.095031","Mapping"
"Blocked","Male","tile","15","M_park.wav","None","734.017059673","313","184370.518728","191253.913128","192003.485309","192770.524231","193537.249342","NA","NA","NA","185120.055663","185887.061194","186653.466929","187420.22203","188186.919006","188953.427386","189720.105502","190487.432573","192779.649787","Mapping"
"Blocked","Male","tile","15","M_tile.wav","None","731.762259267","313","184370.518728","191253.913128","192003.485309","192770.524231","193537.249342","194303.563561","NA","NA","185120.055663","185887.061194","186653.466929","187420.22203","188186.919006","188953.427386","189720.105502","190487.432573","193546.65841","Mapping"
"Blocked","Male","tile","15","M_depth.wav","space","471.064635087","313","184370.518728","191253.913128","192003.485309","192770.524231","193537.249342","194303.563561","195070.589188","NA","185120.055663","185887.061194","186653.466929","187420.22203","188186.919006","188953.427386","189720.105502","190487.432573","194312.577815","Mapping"
"Blocked","Male","tile","15","M_knife.wav","None","727.880899329","313","184370.518728","191253.913128","192003.485309","192770.524231","193537.249342","194303.563561","195070.589188","195837.222784","185120.055663","185887.061194","186653.466929","187420.22203","188186.919006","188953.427386","189720.105502","190487.432573","195079.702996","Mapping"
"Blocked","Male","done","24","M_depth.wav","None","725.373504683","313","198987.388825","191253.913128","192003.485309","192770.524231","193537.249342","194303.563561","195070.589188","195837.222784","185120.055663","185887.061194","186653.466929","187420.22203","188186.919006","188953.427386","189720.105502","190487.432573","195846.947826","Mapping"
"Blocked","Male","done","24","M_done.wav","None","720.861121546","313","198987.388825","191253.913128","192003.485309","192770.524231","193537.249342","194303.563561","195070.589188","195837.222784","199754.051483","185887.061194","186653.466929","187420.22203","188186.919006","188953.427386","189720.105502","190487.432573","198997.545165","Mapping"
"Blocked","Male","done","24","M_knife.wav","space","529.069237411","313","198987.388825","191253.913128","192003.485309","192770.524231","193537.249342","194303.563561","195070.589188","195837.222784","199754.051483","200503.51669","186653.466929","187420.22203","188186.919006","188953.427386","189720.105502","190487.432573","199758.504195","Mapping"
"Blocked","Male","done","24","M_jaw.wav","None","734.897893853","313","198987.388825","191253.913128","192003.485309","192770.524231","193537.249342","194303.563561","195070.589188","195837.222784","199754.051483","200503.51669","201270.75843","187420.22203","188186.919006","188953.427386","189720.105502","190487.432573","200512.709028","Mapping"
"Blocked","Male","done","24","M_reek.wav","None","731.723303441","313","198987.388825","191253.913128","192003.485309","192770.524231","193537.249342","194303.563561","195070.589188","195837.222784","199754.051483","200503.51669","201270.75843","202037.792095","188186.919006","188953.427386","189720.105502","190487.432573","201280.706387","Mapping"
"Blocked","Male","done","24","M_jolt.wav","None","729.800555389","313","198987.388825","191253.913128","192003.485309","192770.524231","193537.249342","194303.563561","195070.589188","195837.222784","199754.051483","200503.51669","201270.75843","202037.792095","202803.559387","188953.427386","189720.105502","190487.432573","202047.403672","Mapping"
"Blocked","Male","done","24","M_greet.wav","None","729.078945238","313","198987.388825","191253.913128","192003.485309","192770.524231","193537.249342","194303.563561","195070.589188","195837.222784","199754.051483","200503.51669","201270.75843","202037.792095","202803.559387","203570.418988","189720.105502","190487.432573","202812.920534","Mapping"
"Blocked","Male","done","24","M_park.wav","None","727.095290087","313","198987.388825","191253.913128","192003.485309","192770.524231","193537.249342","194303.563561","195070.589188","195837.222784","199754.051483","200503.51669","201270.75843","202037.792095","202803.559387","203570.418988","204337.053511","190487.432573","203579.652755","Mapping"
"Blocked","Male","done","24","M_done.wav","None","724.880991504","313","198987.388825","191253.913128","192003.485309","192770.524231","193537.249342","194303.563561","195070.589188","195837.222784","199754.051483","200503.51669","201270.75843","202037.792095","202803.559387","203570.418988","204337.053511","205104.0374","204346.658595","Mapping"
"Blocked","Male","done","24","M_romp.wav","space","501.107303891","313","198987.388825","205870.698203","192003.485309","192770.524231","193537.249342","194303.563561","195070.589188","195837.222784","199754.051483","200503.51669","201270.75843","202037.792095","202803.559387","203570.418988","204337.053511","205104.0374","205114.327611","Mapping"
"Blocked","Male","done","24","M_done.wav","None","720.138583798","313","198987.388825","205870.698203","206620.675092","192770.524231","193537.249342","194303.563561","195070.589188","195837.222784","199754.051483","200503.51669","201270.75843","202037.792095","202803.559387","203570.418988","204337.053511","205104.0374","205880.547224","Mapping"
"Blocked","Male","done","24","M_cad.wav","None","735.308785457","313","198987.388825","205870.698203","206620.675092","207386.935206","193537.249342","194303.563561","195070.589188","195837.222784","199754.051483","200503.51669","201270.75843","202037.792095","202803.559387","203570.418988","204337.053511","205104.0374","206630.10642","Mapping"
"Blocked","Male","done","24","M_knife.wav","space","34.9823292345","313","198987.388825","205870.698203","206620.675092","207386.935206","208153.488726","194303.563561","195070.589188","195837.222784","199754.051483","200503.51669","201270.75843","202037.792095","202803.559387","203570.418988","204337.053511","205104.0374","207396.419403","Mapping"
"Blocked","Male","done","24","M_done.wav","None","731.492969673","313","198987.388825","205870.698203","206620.675092","207386.935206","208153.488726","208920.324829","195070.589188","195837.222784","199754.051483","200503.51669","201270.75843","202037.792095","202803.559387","203570.418988","204337.053511","205104.0374","208163.330945","Mapping"
"Blocked","Male","done","24","M_dime.wav","space","493.557912763","313","198987.388825","205870.698203","206620.675092","207386.935206","208153.488726","208920.324829","209686.951932","195837.222784","199754.051483","200503.51669","201270.75843","202037.792095","202803.559387","203570.418988","204337.053511","205104.0374","208929.83407","Mapping"
"Blocked","Male","done","24","M_gnash.wav","None","727.636034135","313","198987.388825","205870.698203","206620.675092","207386.935206","208153.488726","208920.324829","209686.951932","210453.548736","199754.051483","200503.51669","201270.75843","202037.792095","202803.559387","203570.418988","204337.053511","205104.0374","209696.500747","Mapping"
"Blocked","Male","done","20","M_cling.wav","None","726.024623029","313","213587.246976","205870.698203","206620.675092","207386.935206","208153.488726","208920.324829","209686.951932","210453.548736","199754.051483","200503.51669","201270.75843","202037.792095","202803.559387","203570.418988","204337.053511","205104.0374","210462.955949","Mapping"
"Blocked","Male","done","20","M_done.wav","None","720.091280062","313","213587.246976","205870.698203","206620.675092","207386.935206","208153.488726","208920.324829","209686.951932","210453.548736","214353.916436","200503.51669","201270.75843","202037.792095","202803.559387","203570.418988","204337.053511","205104.0374","213597.618192","Mapping"
"Blocked","Male","done","20","M_priest.wav","space","507.445972878","313","213587.246976","205870.698203","206620.675092","207386.935206","208153.488726","208920.324829","209686.951932","210453.548736","214353.916436","215103.244062","201270.75843","202037.792095","202803.559387","203570.418988","204337.053511","205104.0374","214363.800703","Mapping"
"Blocked","Male","done","20","M_done.wav","None","733.863400761","313","213587.246976","205870.698203","206620.675092","207386.935206","208153.488726","208920.324829","209686.951932","210453.548736","214353.916436","215103.244062","215870.171062","202037.792095","202803.559387","203570.418988","204337.053511","205104.0374","215113.276732","Mapping"
"Blocked","Male","done","20","M_priest.wav","space","543.625729624","313","213587.246976","205870.698203","206620.675092","207386.935206","208153.488726","208920.324829","209686.951932","210453.548736","214353.916436","215103.244062","215870.171062","216636.846705","202803.559387","203570.418988","204337.053511","205104.0374","215879.66268","Mapping"
"Blocked","Male","done","20","M_romp.wav","None","729.832709301","313","213587.246976","205870.698203","206620.675092","207386.935206","208153.488726","208920.324829","209686.951932","210453.548736","214353.916436","215103.244062","215870.171062","216636.846705","217403.489267","203570.418988","204337.053511","205104.0374","216646.570202","Mapping"
"Blocked","Male","done","20","M_gnash.wav","None","728.066402953","313","213587.246976","205870.698203","206620.675092","207386.935206","208153.488726","208920.324829","209686.951932","210453.548736","214353.916436","215103.244062","215870.171062","216636.846705","217403.489267","218170.154707","204337.053511","205104.0374","217413.174117","Mapping"
"Blocked","Male","done","20","M_done.wav","None","726.431186311","313","213587.246976","205870.698203","206620.675092","207386.935206","208153.488726","208920.324829","209686.951932","210453.548736","214353.916436","215103.244062","215870.171062","216636.846705","217403.489267","218170.154707","218936.781501","205104.0374","218179.671367","Mapping"
"Blocked","Male","done","20","M_park.wav","space","580.402809195","313","213587.246976","205870.698203","206620.675092","207386.935206","208153.488726","208920.324829","209686.951932","210453.548736","214353.916436","215103.244062","215870.171062","216636.846705","217403.489267","218170.154707","218936.781501","219703.816712","218946.770268","Mapping"
"Blocked","Male","done","20","M_romp.wav","None","721.863461193","313","213587.246976","220470.526055","206620.675092","207386.935206","208153.488726","208920.324829","209686.951932","210453.548736","214353.916436","215103.244062","215870.171062","216636.846705","217403.489267","218170.154707","218936.781501","219703.816712","219713.703143","Mapping"
"Blocked","Male","done","20","M_priest.wav","None","719.480972271","313","213587.246976","220470.526055","221220.191607","207386.935206","208153.488726","208920.324829","209686.951932","210453.548736","214353.916436","215103.244062","215870.171062","216636.846705","217403.489267","218170.154707","218936.781501","219703.816712","220480.962815","Mapping"
"Blocked","Male","done","20","M_bluff.wav","None","736.058839131","313","213587.246976","220470.526055","221220.191607","221986.689166","208153.488726","208920.324829","209686.951932","210453.548736","214353.916436","215103.244062","215870.171062","216636.846705","217403.489267","218170.154707","218936.781501","219703.816712","221229.229976","Mapping"
"Blocked","Male","done","20","M_priest.wav","None","733.963881619","313","213587.246976","220470.526055","221220.191607","221986.689166","222753.084389","208920.324829","209686.951932","210453.548736","214353.916436","215103.244062","215870.171062","216636.846705","217403.489267","218170.154707","218936.781501","219703.816712","221996.178928","Mapping"
"Blocked","Male","done","20","M_dime.wav","None","732.987512369","313","213587.246976","220470.526055","221220.191607","221986.689166","222753.084389","223519.830833","209686.951932","210453.548736","214353.916436","215103.244062","215870.171062","216636.846705","217403.489267","218170.154707","218936.781501","219703.816712","222762.060615","Mapping"
"Blocked","Male","done","20","M_done.wav","space","445.384090301","313","213587.246976","220470.526055","221220.191607","221986.689166","222753.084389","223519.830833","224286.687342","210453.548736","214353.916436","215103.244062","215870.171062","216636.846705","217403.489267","218170.154707","218936.781501","219703.816712","223529.699332","Mapping"
"Blocked","Male","done","20","M_lash.wav","space","718.879011925","313","213587.246976","220470.526055","221220.191607","221986.689166","222753.084389","223519.830833","224286.687342","225053.321556","214353.916436","215103.244062","215870.171062","216636.846705","217403.489267","218170.154707","218936.781501","219703.816712","224296.21977","Mapping"
"Blocked","Male","tile","16","M_jaw.wav","None","726.198378485","313","228187.23158","220470.526055","221220.191607","221986.689166","222753.084389","223519.830833","224286.687342","225053.321556","214353.916436","215103.244062","215870.171062","216636.846705","217403.489267","218170.154707","218936.781501","219703.816712","225063.101322","Mapping"
"Blocked","Male","tile","16","M_depth.wav","None","720.492278226","313","228187.23158","220470.526055","221220.191607","221986.689166","222753.084389","223519.830833","224286.687342","225053.321556","228953.558784","215103.244062","215870.171062","216636.846705","217403.489267","218170.154707","218936.781501","219703.816712","228197.156967","Mapping"
"Blocked","Male","tile","16","M_greet.wav","None","718.948576134","313","228187.23158","220470.526055","221220.191607","221986.689166","222753.084389","223519.830833","224286.687342","225053.321556","228953.558784","229703.082117","215870.171062","216636.846705","217403.489267","218170.154707","218936.781501","219703.816712","228963.611551","Mapping"
"Blocked","Male","tile","16","M_lash.wav","None","735.069175716","313","228187.23158","220470.526055","221220.191607","221986.689166","222753.084389","223519.830833","224286.687342","225053.321556","228953.558784","229703.082117","230469.732717","216636.846705","217403.489267","218170.154707","218936.781501","219703.816712","229712.443881","Mapping"
"Blocked","Male","tile","16","M_tile.wav","None","733.527947683","313","228187.23158","220470.526055","221220.191607","221986.689166","222753.084389","223519.830833","224286.687342","225053.321556","228953.558784","229703.082117","230469.732717","231236.352399","217403.489267","218170.154707","218936.781501","219703.816712","230478.932783","Mapping"
"Blocked","Male","tile","16","M_jolt.wav","space","529.42880569","313","228187.23158","220470.526055","221220.191607","221986.689166","222753.084389","223519.830833","224286.687342","225053.321556","228953.558784","229703.082117","230469.732717","231236.352399","232003.074109","218170.154707","218936.781501","219703.816712","231245.515984","Mapping"
"Blocked","Male","tile","16","M_tile.wav","None","729.180044495","313","228187.23158","220470.526055","221220.191607","221986.689166","222753.084389","223519.830833","224286.687342","225053.321556","228953.558784","229703.082117","230469.732717","231236.352399","232003.074109","232769.853016","218936.781501","219703.816712","232012.855113","Mapping"
"Blocked","Male","tile","16","M_jaw.wav","space","556.000078097","313","228187.23158","220470.526055","221220.191607","221986.689166","222753.084389","223519.830833","224286.687342","225053.321556","228953.558784","229703.082117","230469.732717","231236.352399","232003.074109","232769.853016","233536.508563","219703.816712","232778.960022","Mapping"
"Blocked","Male","tile","16","M_gnash.wav","None","725.601056125","313","228187.23158","220470.526055","221220.191607","221986.689166","222753.084389","223519.830833","224286.687342","225053.321556","228953.558784","229703.082117","230469.732717","231236.352399","232003.074109","232769.853016","233536.508563","234303.60499","233545.975446","Mapping"
"Blocked","Male","tile","16","M_dime.wav","None","723.081603181","313","228187.23158","235069.377538","221220.191607","221986.689166","222753.084389","223519.830833","224286.687342","225053.321556","228953.558784","229703.082117","230469.732717","231236.352399","232003.074109","232769.853016","233536.508563","234303.60499","234313.514919","Mapping"
"Blocked","Male","tile","16","M_tile.wav","None","728.550568223","313","228187.23158","235069.377538","235836.465309","221986.689166","222753.084389","223519.830833","224286.687342","225053.321556","228953.558784","229703.082117","230469.732717","231236.352399","232003.074109","232769.853016","233536.508563","234303.60499","235078.619653","Mapping"
"Blocked","Male","tile","16","M_priest.wav","space","448.899080511","313","228187.23158","235069.377538","235836.465309","236603.383653","222753.084389","223519.830833","224286.687342","225053.321556","228953.558784","229703.082117","230469.732717","231236.352399","232003.074109","232769.853016","233536.508563","234303.60499","235845.995573","Mapping"
"Blocked","Male","tile","16","M_romp.wav","None","723.750963341","313","228187.23158","235069.377538","235836.465309","236603.383653","237370.082793","223519.830833","224286.687342","225053.321556","228953.558784","229703.082117","230469.732717","231236.352399","232003.074109","232769.853016","233536.508563","234303.60499","236612.867541","Mapping"
"Blocked","Male","tile","16","M_lash.wav","None","721.436801832","313","228187.23158","235069.377538","235836.465309","236603.383653","237370.082793","238136.68609","224286.687342","225053.321556","228953.558784","229703.082117","230469.732717","231236.352399","232003.074109","232769.853016","233536.508563","234303.60499","237380.259229","Mapping"
"Blocked","Male","tile","16","M_tile.wav","None","719.91474228","313","228187.23158","235069.377538","235836.465309","236603.383653","237370.082793","238136.68609","238886.60269","225053.321556","228953.558784","229703.082117","230469.732717","231236.352399","232003.074109","232769.853016","233536.508563","234303.60499","238146.839029","Mapping"
"Blocked","Male","tile","16","M_park.wav","space","430.577476509","313","228187.23158","235069.377538","235836.465309","236603.383653","237370.082793","238136.68609","238886.60269","239652.870843","228953.558784","229703.082117","230469.732717","231236.352399","232003.074109","232769.853016","233536.508563","234303.60499","238896.210557","Mapping"
"Blocked","Male","done","23","M_knife.wav","None","734.824310988","313","242786.879802","235069.377538","235836.465309","236603.383653","237370.082793","238136.68609","238886.60269","239652.870843","228953.558784","229703.082117","230469.732717","231236.352399","232003.074109","232769.853016","233536.508563","234303.60499","239662.196743","Mapping"
"Blocked","Male","done","23","M_done.wav","None","720.295643434","313","242786.879802","235069.377538","235836.465309","236603.383653","237370.082793","238136.68609","238886.60269","239652.870843","243553.361285","229703.082117","230469.732717","231236.352399","232003.074109","232769.853016","233536.508563","234303.60499","242796.897942","Mapping"
"Blocked","Male","done","23","M_knife.wav","space","524.041153491","313","242786.879802","235069.377538","235836.465309","236603.383653","237370.082793","238136.68609","238886.60269","239652.870843","243553.361285","244302.74858","230469.732717","231236.352399","232003.074109","232769.853016","233536.508563","234303.60499","243562.706663","Mapping"
"Blocked","Male","done","23","M_reek.wav","None","734.97456871","313","242786.879802","235069.377538","235836.465309","236603.383653","237370.082793","238136.68609","238886.60269","239652.870843","243553.361285","244302.74858","245069.673108","231236.352399","232003.074109","232769.853016","233536.508563","234303.60499","244311.791278","Mapping"
"Blocked","Male","done","23","M_done.wav","None","733.13004151","313","242786.879802","235069.377538","235836.465309","236603.383653","237370.082793","238136.68609","238886.60269","239652.870843","243553.361285","244302.74858","245069.673108","245836.287226","232003.074109","232769.853016","233536.508563","234303.60499","245078.74425","Mapping"
"Blocked","Male","done","23","M_park.wav","space","587.422586977","313","242786.879802","235069.377538","235836.465309","236603.383653","237370.082793","238136.68609","238886.60269","239652.870843","243553.361285","244302.74858","245069.673108","245836.287226","246602.844146","232769.853016","233536.508563","234303.60499","245843.308858","Mapping"
"Blocked","Male","done","23","M_priest.wav","None","729.057921562","313","242786.879802","235069.377538","235836.465309","236603.383653","237370.082793","238136.68609","238886.60269","239652.870843","243553.361285","244302.74858","245069.673108","245836.287226","246602.844146","247369.738374","233536.508563","234303.60499","246612.23992","Mapping"
"Blocked","Male","done","23","M_depth.wav","None","727.027271874","313","242786.879802","235069.377538","235836.465309","236603.383653","237370.082793","238136.68609","238886.60269","239652.870843","243553.361285","244302.74858","245069.673108","245836.287226","246602.844146","247369.738374","248136.030334","234303.60499","247379.21175","Mapping"
"Blocked","Male","done","23","M_done.wav","None","726.569386199","313","242786.879802","235069.377538","235836.465309","236603.383653","237370.082793","238136.68609","238886.60269","239652.870843","243553.361285","244302.74858","245069.673108","245836.287226","246602.844146","247369.738374","248136.030334","248903.257541","248144.810234","Mapping"
"Blocked","Male","done","23","M_depth.wav","space","517.38218125","313","242786.879802","249669.942769","235836.465309","236603.383653","237370.082793","238136.68609","238886.60269","239652.870843","243553.361285","244302.74858","245069.673108","245836.287226","246602.844146","247369.738374","248136.030334","248903.257541","248913.293922","Mapping"
"Blocked","Male","done","23","M_cad.wav","None","721.428145189","313","242786.879802","249669.942769","250436.648401","236603.383653","237370.082793","238136.68609","238886.60269","239652.870843","243553.361285","244302.74858","245069.673108","245836.287226","246602.844146","247369.738374","248136.030334","248903.257541","249679.92288","Mapping"
"Blocked","Male","done","23","M_gnash.wav","None","720.060672145","313","242786.879802","249669.942769","250436.648401","251186.356929","237370.082793","238136.68609","238886.60269","239652.870843","243553.361285","244302.74858","245069.673108","245836.287226","246602.844146","247369.738374","248136.030334","248903.257541","250446.458467","Mapping"
"Blocked","Male","done","23","M_cling.wav","None","735.517477151","313","242786.879802","249669.942769","250436.648401","251186.356929","251952.571594","238136.68609","238886.60269","239652.870843","243553.361285","244302.74858","245069.673108","245836.287226","246602.844146","247369.738374","248136.030334","248903.257541","251196.04889","Mapping"
"Blocked","Male","done","23","M_done.wav","None","734.608508181","313","242786.879802","249669.942769","250436.648401","251186.356929","251952.571594","252719.565686","238886.60269","239652.870843","243553.361285","244302.74858","245069.673108","245836.287226","246602.844146","247369.738374","248136.030334","248903.257541","251961.901823","Mapping"
"Blocked","Male","done","23","M_jolt.wav","space","565.929793753","313","242786.879802","249669.942769","250436.648401","251186.356929","251952.571594","252719.565686","253486.189697","239652.870843","243553.361285","244302.74858","245069.673108","245836.287226","246602.844146","247369.738374","248136.030334","248903.257541","252728.604673","Mapping"
"Blocked","Male","done","23","M_park.wav","None","730.312546715","313","242786.879802","249669.942769","250436.648401","251186.356929","251952.571594","252719.565686","253486.189697","254252.722811","243553.361285","244302.74858","245069.673108","245836.287226","246602.844146","247369.738374","248136.030334","248903.257541","253495.648541","Mapping"
"Blocked","Male","cave","9","M_jaw.wav","None","728.734526318","313","257386.50391","249669.942769","250436.648401","251186.356929","251952.571594","252719.565686","253486.189697","254252.722811","243553.361285","244302.74858","245069.673108","245836.287226","246602.844146","247369.738374","248136.030334","248903.257541","254262.309963","Mapping"
"Blocked","Male","cave","9","M_knife.wav","None","720.531234052","313","257386.50391","249669.942769","250436.648401","251186.356929","251952.571594","252719.565686","253486.189697","254252.722811","258153.037024","244302.74858","245069.673108","245836.287226","246602.844146","247369.738374","248136.030334","248903.257541","257396.503189","Mapping"
"Blocked","Male","cave","9","M_knife.wav","None","719.245691784","313","257386.50391","249669.942769","250436.648401","251186.356929","251952.571594","252719.565686","253486.189697","254252.722811","258153.037024","258902.586326","245069.673108","245836.287226","246602.844146","247369.738374","248136.030334","248903.257541","258162.881717","Mapping"
"Blocked","Male","cave","9","M_knife.wav","None","735.004249495","313","257386.50391","249669.942769","250436.648401","251186.356929","251952.571594","252719.565686","253486.189697","254252.722811","258153.037024","258902.586326","259669.35905","245836.287226","246602.844146","247369.738374","248136.030334","248903.257541","258912.153073","Mapping"
"Blocked","Male","cave","9","M_bluff.wav","None","733.902665786","313","257386.50391","249669.942769","250436.648401","251186.356929","251952.571594","252719.565686","253486.189697","254252.722811","258153.037024","258902.586326","259669.35905","260436.054171","246602.844146","247369.738374","248136.030334","248903.257541","259678.860561","Mapping"
"Blocked","Male","cave","9","M_cave.wav","None","732.230347581","313","257386.50391","249669.942769","250436.648401","251186.356929","251952.571594","252719.565686","253486.189697","254252.722811","258153.037024","258902.586326","259669.35905","260436.054171","261202.433935","247369.738374","248136.030334","248903.257541","260445.57485","Mapping"
"Blocked","Male","cave","9","M_jaw.wav","space","522.497142199","313","257386.50391","249669.942769","250436.648401","251186.356929","251952.571594","252719.565686","253486.189697","254252.722811","258153.037024","258902.586326","259669.35905","260436.054171","261202.433935","261969.374539","248136.030334","248903.257541","261211.943484","Mapping"
"Blocked","Male","cave","9","M_cave.wav","None","728.055272717","313","257386.50391","249669.942769","250436.648401","251186.356929","251952.571594","252719.565686","253486.189697","254252.722811","258153.037024","258902.586326","259669.35905","260436.054171","261202.433935","261969.374539","262735.929296","248903.257541","261979.250459","Mapping"
"Blocked","Male","cave","9","M_bluff.wav","space","564.965482336","313","257386.50391","249669.942769","250436.648401","251186.356929","251952.571594","252719.565686","253486.189697","254252.722811","258153.037024","258902.586326","259669.35905","260436.054171","261202.433935","261969.374539","262735.929296","263502.716859","262745.453686","Mapping"
"Blocked","Male","cave","9","M_jolt.wav","None","724.625614472","313","257386.50391","264269.680343","250436.648401","251186.356929","251952.571594","252719.565686","253486.189697","254252.722811","258153.037024","258902.586326","259669.35905","260436.054171","261202.433935","261969.374539","262735.929296","263502.716859","263512.079551","Mapping"
"Blocked","Male","cave","9","M_cave.wav","None","722.338350955","313","257386.50391","264269.680343","265036.675671","251186.356929","251952.571594","252719.565686","253486.189697","254252.722811","258153.037024","258902.586326","259669.35905","260436.054171","261202.433935","261969.374539","262735.929296","263502.716859","264279.445888","Mapping"
"Blocked","Male","cave","9","M_depth.wav","space","456.069116015","313","257386.50391","264269.680343","265036.675671","265802.881679","251952.571594","252719.565686","253486.189697","254252.722811","258153.037024","258902.586326","259669.35905","260436.054171","261202.433935","261969.374539","262735.929296","263502.716859","265046.319711","Mapping"
"Blocked","Male","cave","9","M_park.wav","None","718.444623519","313","257386.50391","264269.680343","265036.675671","265802.881679","266569.144267","252719.565686","253486.189697","254252.722811","258153.037024","258902.586326","259669.35905","260436.054171","261202.433935","261969.374539","262735.929296","263502.716859","265812.992571","Mapping"
"Blocked","Male","cave","9","M_jaw.wav","None","721.654151101","313","257386.50391","264269.680343","265036.675671","265802.881679","266569.144267","267336.315824","253486.189697","254252.722811","258153.037024","258902.586326","259669.35905","260436.054171","261202.433935","261969.374539","262735.929296","263502.716859","266578.032997","Mapping"
"Blocked","Male","cave","9","M_cave.wav","None","718.563655391","313","257386.50391","264269.680343","265036.675671","265802.881679","266569.144267","267336.315824","268085.749805","254252.722811","258153.037024","258902.586326","259669.35905","260436.054171","261202.433935","261969.374539","262735.929296","263502.716859","267346.233482","Mapping"
"Blocked","Male","cave","9","M_knife.wav","space","503.067461774","313","257386.50391","264269.680343","265036.675671","265802.881679","266569.144267","267336.315824","268085.749805","268852.399787","258153.037024","258902.586326","259669.35905","260436.054171","261202.433935","261969.374539","262735.929296","263502.716859","268095.238949","Mapping"
"Blocked","Male","ball","1","M_depth.wav","None","732.488198206","313","271986.234372","264269.680343","265036.675671","265802.881679","266569.144267","267336.315824","268085.749805","268852.399787","258153.037024","258902.586326","259669.35905","260436.054171","261202.433935","261969.374539","262735.929296","263502.716859","268861.942108","Mapping"
"Blocked","Male","ball","1","M_cad.wav","None","720.377265476","313","271986.234372","264269.680343","265036.675671","265802.881679","266569.144267","267336.315824","268085.749805","268852.399787","272752.789747","258902.586326","259669.35905","260436.054171","261202.433935","261969.374539","262735.929296","263502.716859","271996.336298","Mapping"
"Blocked","Male","ball","1","M_ball.wav","None","719.420992769","313","271986.234372","264269.680343","265036.675671","265802.881679","266569.144267","267336.315824","268085.749805","268852.399787","272752.789747","273502.263612","259669.35905","260436.054171","261202.433935","261969.374539","262735.929296","263502.716859","272762.748525","Mapping"
"Blocked","Male","ball","1","M_cad.wav","space","518.515610136","313","271986.234372","264269.680343","265036.675671","265802.881679","266569.144267","267336.315824","268085.749805","268852.399787","272752.789747","273502.263612","274269.175154","260436.054171","261202.433935","261969.374539","262735.929296","263502.716859","273511.711944","Mapping"
"Blocked","Male","ball","1","M_bluff.wav","None","738.465443254","313","271986.234372","264269.680343","265036.675671","265802.881679","266569.144267","267336.315824","268085.749805","268852.399787","272752.789747","273502.263612","274269.175154","275036.369898","261202.433935","261969.374539","262735.929296","263502.716859","274273.224704","Mapping"
"Blocked","Male","ball","1","M_dime.wav","None","731.028900482","313","271986.234372","264269.680343","265036.675671","265802.881679","266569.144267","267336.315824","268085.749805","268852.399787","272752.789747","273502.263612","274269.175154","275036.369898","275802.299816","261969.374539","262735.929296","263502.716859","275045.757015","Mapping"
"Blocked","Male","ball","1","M_ball.wav","None","729.961635079","313","271986.234372","264269.680343","265036.675671","265802.881679","266569.144267","267336.315824","268085.749805","268852.399787","272752.789747","273502.263612","274269.175154","275036.369898","275802.299816","276568.93001","262735.929296","263502.716859","275812.07649","Mapping"
"Blocked","Male","ball","1","M_greet.wav","space","433.013761882","313","271986.234372","264269.680343","265036.675671","265802.881679","266569.144267","267336.315824","268085.749805","268852.399787","272752.789747","273502.263612","274269.175154","275036.369898","275802.299816","276568.93001","277335.511355","263502.716859","276573.173721","Mapping"
"Blocked","Male","ball","1","M_dime.wav","None","726.989861578","313","271986.234372","264269.680343","265036.675671","265802.881679","266569.144267","267336.315824","268085.749805","268852.399787","272752.789747","273502.263612","274269.175154","275036.369898","275802.299816","276568.93001","277335.511355","278102.08528","277344.678341","Mapping"
"Blocked","Male","ball","1","M_jolt.wav","None","725.729672238","313","271986.234372","278869.526745","265036.675671","265802.881679","266569.144267","267336.315824","268085.749805","268852.399787","272752.789747","273502.263612","274269.175154","275036.369898","275802.299816","276568.93001","277335.511355","278102.08528","278111.109737","Mapping"
"Blocked","Male","ball","1","M_ball.wav","None","722.339587752","313","271986.234372","278869.526745","279636.088922","265802.881679","266569.144267","267336.315824","268085.749805","268852.399787","272752.789747","273502.263612","274269.175154","275036.369898","275802.299816","276568.93001","277335.511355","278102.08528","278879.659588","Mapping"
"Blocked","Male","ball","1","M_knife.wav","space","448.018864729","313","271986.234372","278869.526745","279636.088922","280402.799502","266569.144267","267336.315824","268085.749805","268852.399787","272752.789747","273502.263612","274269.175154","275036.369898","275802.299816","276568.93001","277335.511355","278102.08528","279646.067796","Mapping"
"Blocked","Male","ball","1","M_ball.wav","None","719.060496893","313","271986.234372","278869.526745","279636.088922","280402.799502","281152.051998","267336.315824","268085.749805","268852.399787","272752.789747","273502.263612","274269.175154","275036.369898","275802.299816","276568.93001","277335.511355","278102.08528","280412.680677","Mapping"
"Blocked","Male","ball","1","M_cad.wav","space","524.579733144","313","271986.234372","278869.526745","279636.088922","280402.799502","281152.051998","281918.734134","268085.749805","268852.399787","272752.789747","273502.263612","274269.175154","275036.369898","275802.299816","276568.93001","277335.511355","278102.08528","281161.524446","Mapping"
"Blocked","Male","ball","1","M_lash.wav","None","733.644505963","313","271986.234372","278869.526745","279636.088922","280402.799502","281152.051998","281918.734134","282685.406066","268852.399787","272752.789747","273502.263612","274269.175154","275036.369898","275802.299816","276568.93001","277335.511355","278102.08528","281928.034373","Mapping"
"Blocked","Male","ball","1","M_gnash.wav","None","732.335466426","313","271986.234372","278869.526745","279636.088922","280402.799502","281152.051998","281918.734134","282685.406066","283452.150037","272752.789747","273502.263612","274269.175154","275036.369898","275802.299816","276568.93001","277335.511355","278102.08528","282694.645398","Mapping"
"Blocked","Male","tile","14","M_gnash.wav","None","730.435906444","313","286586.067481","278869.526745","279636.088922","280402.799502","281152.051998","281918.734134","282685.406066","283452.150037","272752.789747","273502.263612","274269.175154","275036.369898","275802.299816","276568.93001","277335.511355","278102.08528","283461.658658","Mapping"
"Blocked","Male","tile","14","M_bluff.wav","None","720.674071927","313","286586.067481","278869.526745","279636.088922","280402.799502","281152.051998","281918.734134","282685.406066","283452.150037","287352.242881","273502.263612","274269.175154","275036.369898","275802.299816","276568.93001","277335.511355","278102.08528","286595.974317","Mapping"
"Blocked","Male","tile","14","M_tile.wav","None","719.370597508","313","286586.067481","278869.526745","279636.088922","280402.799502","281152.051998","281918.734134","282685.406066","283452.150037","287352.242881","288102.336329","274269.175154","275036.369898","275802.299816","276568.93001","277335.511355","278102.08528","287362.516707","Mapping"
"Blocked","Male","tile","14","M_reek.wav","space","445.995634887","313","286586.067481","278869.526745","279636.088922","280402.799502","281152.051998","281918.734134","282685.406066","283452.150037","287352.242881","288102.336329","288868.667862","275036.369898","275802.299816","276568.93001","277335.511355","278102.08528","288111.961509","Mapping"
"Blocked","Male","tile","14","M_romp.wav","None","733.35326463","313","286586.067481","278869.526745","279636.088922","280402.799502","281152.051998","281918.734134","282685.406066","283452.150037","287352.242881","288102.336329","288868.667862","289635.529937","275802.299816","276568.93001","277335.511355","278102.08528","288878.516574","Mapping"
"Blocked","Male","tile","14","M_depth.wav","None","731.742472388","313","286586.067481","278869.526745","279636.088922","280402.799502","281152.051998","281918.734134","282685.406066","283452.150037","287352.242881","288102.336329","288868.667862","289635.529937","290402.077273","276568.93001","277335.511355","278102.08528","289645.430281","Mapping"
"Blocked","Male","tile","14","M_tile.wav","None","730.8279383","313","286586.067481","278869.526745","279636.088922","280402.799502","281152.051998","281918.734134","282685.406066","283452.150037","287352.242881","288102.336329","288868.667862","289635.529937","290402.077273","291168.884933","277335.511355","278102.08528","290411.596097","Mapping"
"Blocked","Male","tile","14","M_lash.wav","space","507.667031605","313","286586.067481","278869.526745","279636.088922","280402.799502","281152.051998","281918.734134","282685.406066","283452.150037","287352.242881","288102.336329","288868.667862","289635.529937","290402.077273","291168.884933","291935.44309","278102.08528","291178.229074","Mapping"
"Blocked","Male","tile","14","M_tile.wav","None","727.562760003","313","286586.067481","278869.526745","279636.088922","280402.799502","281152.051998","281918.734134","282685.406066","283452.150037","287352.242881","288102.336329","288868.667862","289635.529937","290402.077273","291168.884933","291935.44309","292702.216431","291944.845974","Mapping"
"Blocked","Male","tile","14","M_park.wav","space","590.078075416","313","286586.067481","293468.834259","279636.088922","280402.799502","281152.051998","281918.734134","282685.406066","283452.150037","287352.242881","288102.336329","288868.667862","289635.529937","290402.077273","291168.884933","291935.44309","292702.216431","292711.802037","Mapping"
"Blocked","Male","tile","14","M_tile.wav","None","724.356015678","313","286586.067481","293468.834259","294235.286988","280402.799502","281152.051998","281918.734134","282685.406066","283452.150037","287352.242881","288102.336329","288868.667862","289635.529937","290402.077273","291168.884933","291935.44309","292702.216431","293478.014848","Mapping"
"Blocked","Male","tile","14","M_cling.wav","space","489.333988167","313","286586.067481","293468.834259","294235.286988","295002.288809","281152.051998","281918.734134","282685.406066","283452.150037","287352.242881","288102.336329","288868.667862","289635.529937","290402.077273","291168.884933","291935.44309","292702.216431","294244.486128","Mapping"
"Blocked","Male","tile","14","M_dime.wav","None","720.092826057","313","286586.067481","293468.834259","294235.286988","295002.288809","295769.112546","281918.734134","282685.406066","283452.150037","287352.242881","288102.336329","288868.667862","289635.529937","290402.077273","291168.884933","291935.44309","292702.216431","295012.371256","Mapping"
"Blocked","Male","tile","14","M_gnash.wav","None","719.179219566","313","286586.067481","293468.834259","294235.286988","295002.288809","295769.112546","296518.392868","282685.406066","283452.150037","287352.242881","288102.336329","288868.667862","289635.529937","290402.077273","291168.884933","291935.44309","292702.216431","295778.823985","Mapping"
"Blocked","Male","tile","14","M_reek.wav","None","735.478521325","313","286586.067481","293468.834259","294235.286988","295002.288809","295769.112546","296518.392868","297285.262981","283452.150037","287352.242881","288102.336329","288868.667862","289635.529937","290402.077273","291168.884933","291935.44309","292702.216431","296527.959615","Mapping"
"Blocked","Male","tile","14","M_greet.wav","None","734.256978147","313","286586.067481","293468.834259","294235.286988","295002.288809","295769.112546","296518.392868","297285.262981","298051.896576","287352.242881","288102.336329","288868.667862","289635.529937","290402.077273","291168.884933","291935.44309","292702.216431","297294.921552","Mapping"
"Blocked","Male","cave","8","M_depth.wav","None","733.494865708","313","301185.675511","293468.834259","294235.286988","295002.288809","295769.112546","296518.392868","297285.262981","298051.896576","287352.242881","288102.336329","288868.667862","289635.529937","290402.077273","291168.884933","291935.44309","292702.216431","298061.596577","Mapping"
"Blocked","Male","cave","8","M_dime.wav","None","720.614091959","313","301185.675511","293468.834259","294235.286988","295002.288809","295769.112546","296518.392868","297285.262981","298051.896576","301952.147718","288102.336329","288868.667862","289635.529937","290402.077273","291168.884933","291935.44309","292702.216431","301195.631816","Mapping"
"Blocked","Male","cave","8","M_lash.wav","None","719.621337019","313","301185.675511","293468.834259","294235.286988","295002.288809","295769.112546","296518.392868","297285.262981","298051.896576","301952.147718","302701.866757","288868.667862","289635.529937","290402.077273","291168.884933","291935.44309","292702.216431","301962.070632","Mapping"
"Blocked","Male","cave","8","M_cave.wav","None","735.751212109","313","301185.675511","293468.834259","294235.286988","295002.288809","295769.112546","296518.392868","297285.262981","298051.896576","301952.147718","302701.866757","303468.225497","289635.529937","290402.077273","291168.884933","291935.44309","292702.216431","302711.279844","Mapping"
"Blocked","Male","cave","8","M_cad.wav","space","416.195667349","313","301185.675511","293468.834259","294235.286988","295002.288809","295769.112546","296518.392868","297285.262981","298051.896576","301952.147718","302701.866757","303468.225497","304235.130237","290402.077273","291168.884933","291935.44309","292702.216431","303477.469776","Mapping"
"Blocked","Male","cave","8","M_cave.wav","None","732.170986477","313","301185.675511","293468.834259","294235.286988","295002.288809","295769.112546","296518.392868","297285.262981","298051.896576","301952.147718","302701.866757","303468.225497","304235.130237","305001.679738","291168.884933","291935.44309","292702.216431","304244.604232","Mapping"
"Blocked","Male","cave","8","M_priest.wav","space","602.437583264","313","301185.675511","293468.834259","294235.286988","295002.288809","295769.112546","296518.392868","297285.262981","298051.896576","301952.147718","302701.866757","303468.225497","304235.130237","305001.679738","305768.590043","291935.44309","292702.216431","305011.196398","Mapping"
"Blocked","Male","cave","8","M_dime.wav","None","728.158536367","313","301185.675511","293468.834259","294235.286988","295002.288809","295769.112546","296518.392868","297285.262981","298051.896576","301952.147718","302701.866757","303468.225497","304235.130237","305001.679738","305768.590043","306535.243117","292702.216431","305778.238721","Mapping"
"Blocked","Male","cave","8","M_gnash.wav","None","727.251731791","313","301185.675511","293468.834259","294235.286988","295002.288809","295769.112546","296518.392868","297285.262981","298051.896576","301952.147718","302701.866757","303468.225497","304235.130237","305001.679738","305768.590043","306535.243117","307301.69059","306544.638272","Mapping"
"Blocked","Male","cave","8","M_depth.wav","None","726.376771461","313","301185.675511","308068.978087","294235.286988","295002.288809","295769.112546","296518.392868","297285.262981","298051.896576","301952.147718","302701.866757","303468.225497","304235.130237","305001.679738","305768.590043","306535.243117","307301.69059","307310.742872","Mapping"
"Blocked","Male","cave","8","M_reek.wav","None","723.776934203","313","301185.675511","308068.978087","308835.555412","295002.288809","295769.112546","296518.392868","297285.262981","298051.896576","301952.147718","302701.866757","303468.225497","304235.130237","305001.679738","305768.590043","306535.243117","307301.69059","308078.623363","Mapping"
"Blocked","Male","cave","8","M_cling.wav","None","721.930242609","313","301185.675511","308068.978087","308835.555412","309601.957746","295769.112546","296518.392868","297285.262981","298051.896576","301952.147718","302701.866757","303468.225497","304235.130237","305001.679738","305768.590043","306535.243117","307301.69059","308845.932193","Mapping"
"Blocked","Male","cave","8","M_cave.wav","None","721.912619658","313","301185.675511","308068.978087","308835.555412","309601.957746","310368.869907","296518.392868","297285.262981","298051.896576","301952.147718","302701.866757","303468.225497","304235.130237","305001.679738","305768.590043","306535.243117","307301.69059","309611.24871","Mapping"
"Blocked","Male","cave","8","M_dime.wav","space","490.985282231","313","301185.675511","308068.978087","308835.555412","309601.957746","310368.869907","311118.208972","297285.262981","298051.896576","301952.147718","302701.866757","303468.225497","304235.130237","305001.679738","305768.590043","306535.243117","307301.69059","310378.552593","Mapping"
"Blocked","Male","cave","8","M_cave.wav","None","735.459971242","313","301185.675511","308068.978087","308835.555412","309601.957746","310368.869907","311118.208972","311885.008903","298051.896576","301952.147718","302701.866757","303468.225497","304235.130237","305001.679738","305768.590043","306535.243117","307301.69059","311127.576611","Mapping"
"Blocked","Male","cave","8","M_lash.wav","space","462.588651571","313","301185.675511","308068.978087","308835.555412","309601.957746","310368.869907","311118.208972","311885.008903","312651.852427","301952.147718","302701.866757","303468.225497","304235.130237","305001.679738","305768.590043","306535.243117","307301.69059","311894.958096","Mapping"
"Blocked","Male","done","19","M_gnash.wav","None","731.80894414","313","315785.397008","308068.978087","308835.555412","309601.957746","310368.869907","311118.208972","311885.008903","312651.852427","301952.147718","302701.866757","303468.225497","304235.130237","305001.679738","305768.590043","306535.243117","307301.69059","312661.184511","Mapping"
"Blocked","Male","done","19","M_lash.wav","None","720.605744515","313","315785.397008","308068.978087","308835.555412","309601.957746","310368.869907","311118.208972","311885.008903","312651.852427","316551.745546","302701.866757","303468.225497","304235.130237","305001.679738","305768.590043","306535.243117","307301.69059","315795.368771","Mapping"
"Blocked","Male","done","19","M_gnash.wav","None","720.17908562","313","315785.397008","308068.978087","308835.555412","309601.957746","310368.869907","311118.208972","311885.008903","312651.852427","316551.745546","317301.939474","303468.225497","304235.130237","305001.679738","305768.590043","306535.243117","307301.69059","316561.306417","Mapping"
"Blocked","Male","done","19","M_knife.wav","None","735.513458028","313","315785.397008","308068.978087","308835.555412","309601.957746","310368.869907","311118.208972","311885.008903","312651.852427","316551.745546","317301.939474","318068.037272","304235.130237","305001.679738","305768.590043","306535.243117","307301.69059","317311.465719","Mapping"
"Blocked","Male","done","19","M_park.wav","None","735.170893837","313","315785.397008","308068.978087","308835.555412","309601.957746","310368.869907","311118.208972","311885.008903","312651.852427","316551.745546","317301.939474","318068.037272","318835.000137","305001.679738","305768.590043","306535.243117","307301.69059","318077.263619","Mapping"
"Blocked","Male","done","19","M_done.wav","None","733.341516461","313","315785.397008","308068.978087","308835.555412","309601.957746","310368.869907","311118.208972","311885.008903","312651.852427","316551.745546","317301.939474","318068.037272","318835.000137","319601.479146","305768.590043","306535.243117","307301.69059","318844.490518","Mapping"
"Blocked","Male","done","19","M_gnash.wav","space","538.482942618","313","315785.397008","308068.978087","308835.555412","309601.957746","310368.869907","311118.208972","311885.008903","312651.852427","316551.745546","317301.939474","318068.037272","318835.000137","319601.479146","320368.04998","306535.243117","307301.69059","319610.888524","Mapping"
"Blocked","Male","done","19","M_cling.wav","None","730.896265246","313","315785.397008","308068.978087","308835.555412","309601.957746","310368.869907","311118.208972","311885.008903","312651.852427","316551.745546","317301.939474","318068.037272","318835.000137","319601.479146","320368.04998","321134.929059","307301.69059","320377.022186","Mapping"
"Blocked","Male","done","19","M_done.wav","None","729.260120541","313","315785.397008","308068.978087","308835.555412","309601.957746","310368.869907","311118.208972","311885.008903","312651.852427","316551.745546","317301.939474","318068.037272","318835.000137","319601.479146","320368.04998","321134.929059","321901.448569","321144.098208","Mapping"
"Blocked","Male","done","19","M_park.wav","space","566.444876138","313","315785.397008","322668.302296","308835.555412","309601.957746","310368.869907","311118.208972","311885.008903","312651.852427","316551.745546","317301.939474","318068.037272","318835.000137","319601.479146","320368.04998","321134.929059","321901.448569","321910.843106","Mapping"
"Blocked","Male","done","19","M_done.wav","None","725.59456341","313","315785.397008","322668.302296","323434.872511","309601.957746","310368.869907","311118.208972","311885.008903","312651.852427","316551.745546","317301.939474","318068.037272","318835.000137","319601.479146","320368.04998","321134.929059","321901.448569","322677.692813","Mapping"
"Blocked","Male","done","19","M_lash.wav","space","559.380887076","313","315785.397008","322668.302296","323434.872511","324201.865057","310368.869907","311118.208972","311885.008903","312651.852427","316551.745546","317301.939474","318068.037272","318835.000137","319601.479146","320368.04998","321134.929059","321901.448569","323445.934419","Mapping"
"Blocked","Male","done","19","M_dime.wav","None","722.110799514","313","315785.397008","322668.302296","323434.872511","324201.865057","324968.519057","311118.208972","311885.008903","312651.852427","316551.745546","317301.939474","318068.037272","318835.000137","319601.479146","320368.04998","321134.929059","321901.448569","324211.313698","Mapping"
"Blocked","Male","done","19","M_reek.wav","None","720.349749085","313","315785.397008","322668.302296","323434.872511","324201.865057","324968.519057","325735.13101","311885.008903","312651.852427","316551.745546","317301.939474","318068.037272","318835.000137","319601.479146","320368.04998","321134.929059","321901.448569","324978.440425","Mapping"
"Blocked","Male","done","19","M_done.wav","None","719.087394886","313","315785.397008","322668.302296","323434.872511","324201.865057","324968.519057","325735.13101","326484.736583","312651.852427","316551.745546","317301.939474","318068.037272","318835.000137","319601.479146","320368.04998","321134.929059","321901.448569","325745.191816","Mapping"
"Blocked","Male","done","19","M_reek.wav","space","455.05997492","313","315785.397008","322668.302296","323434.872511","324201.865057","324968.519057","325735.13101","326484.736583","327251.315764","316551.745546","317301.939474","318068.037272","318835.000137","319601.479146","320368.04998","321134.929059","321901.448569","326494.23593","Mapping"
"Blocked","Male","ball","6","M_jaw.wav","None","733.84361295","313","330384.212318","322668.302296","323434.872511","324201.865057","324968.519057","325735.13101","326484.736583","327251.315764","316551.745546","317301.939474","318068.037272","318835.000137","319601.479146","320368.04998","321134.929059","321901.448569","327260.631771","Mapping"
"Blocked","Male","ball","6","M_ball.wav","None","725.680822972","313","330384.212318","322668.302296","323434.872511","324201.865057","324968.519057","325735.13101","326484.736583","327251.315764","331151.662749","317301.939474","318068.037272","318835.000137","319601.479146","320368.04998","321134.929059","321901.448569","330392.95419","Mapping"
"Blocked","Male","ball","6","M_romp.wav","space","427.272106055","313","330384.212318","322668.302296","323434.872511","324201.865057","324968.519057","325735.13101","326484.736583","327251.315764","331151.662749","331918.631797","318068.037272","318835.000137","319601.479146","320368.04998","321134.929059","321901.448569","331161.942448","Mapping"
"Blocked","Male","ball","6","M_romp.wav","None","720.073348377","313","330384.212318","322668.302296","323434.872511","324201.865057","324968.519057","325735.13101","326484.736583","327251.315764","331151.662749","331918.631797","332685.155018","318835.000137","319601.479146","320368.04998","321134.929059","321901.448569","331928.520083","Mapping"
"Blocked","Male","ball","6","M_park.wav","None","718.801409937","313","330384.212318","322668.302296","323434.872511","324201.865057","324968.519057","325735.13101","326484.736583","327251.315764","331151.662749","331918.631797","332685.155018","333434.63723","319601.479146","320368.04998","321134.929059","321901.448569","332695.366081","Mapping"
"Blocked","Male","ball","6","M_dime.wav","None","735.162237193","313","330384.212318","322668.302296","323434.872511","324201.865057","324968.519057","325735.13101","326484.736583","327251.315764","331151.662749","331918.631797","332685.155018","333434.63723","334201.123041","320368.04998","321134.929059","321901.448569","333444.597245","Mapping"
"Blocked","Male","ball","6","M_romp.wav","None","734.772988129","313","330384.212318","322668.302296","323434.872511","324201.865057","324968.519057","325735.13101","326484.736583","327251.315764","331151.662749","331918.631797","332685.155018","333434.63723","334201.123041","334967.888962","321134.929059","321901.448569","334210.597035","Mapping"
"Blocked","Male","ball","6","M_lash.wav","None","733.331004158","313","330384.212318","322668.302296","323434.872511","324201.865057","324968.519057","325735.13101","326484.736583","327251.315764","331151.662749","331918.631797","332685.155018","333434.63723","334201.123041","334967.888962","335734.351585","321901.448569","334977.486626","Mapping"
"Blocked","Male","ball","6","M_priest.wav","None","732.960614841","313","330384.212318","322668.302296","323434.872511","324201.865057","324968.519057","325735.13101","326484.736583","327251.315764","331151.662749","331918.631797","332685.155018","333434.63723","334201.123041","334967.888962","335734.351585","336501.360207","335743.387172","Mapping"
"Blocked","Male","ball","6","M_ball.wav","None","730.042946991","313","330384.212318","337268.02472","323434.872511","324201.865057","324968.519057","325735.13101","326484.736583","327251.315764","331151.662749","331918.631797","332685.155018","333434.63723","334201.123041","334967.888962","335734.351585","336501.360207","336511.78089","Mapping"
"Blocked","Male","ball","6","M_cad.wav","space","495.51838031","313","330384.212318","337268.02472","338035.166597","324201.865057","324968.519057","325735.13101","326484.736583","327251.315764","331151.662749","331918.631797","332685.155018","333434.63723","334201.123041","334967.888962","335734.351585","336501.360207","337277.539216","Mapping"
"Blocked","Male","ball","6","M_priest.wav","None","730.648617726","313","330384.212318","337268.02472","338035.166597","338801.136706","324968.519057","325735.13101","326484.736583","327251.315764","331151.662749","331918.631797","332685.155018","333434.63723","334201.123041","334967.888962","335734.351585","336501.360207","338041.322544","Mapping"
"Blocked","Male","ball","6","M_ball.wav","None","726.887216326","313","330384.212318","337268.02472","338035.166597","338801.136706","339567.905719","325735.13101","326484.736583","327251.315764","331151.662749","331918.631797","332685.155018","333434.63723","334201.123041","334967.888962","335734.351585","336501.360207","338810.62956","Mapping"
"Blocked","Male","ball","6","M_greet.wav","space","547.445255332","313","330384.212318","337268.02472","338035.166597","338801.136706","339567.905719","340334.962573","326484.736583","327251.315764","331151.662749","331918.631797","332685.155018","333434.63723","334201.123041","334967.888962","335734.351585","336501.360207","339577.558416","Mapping"
"Blocked","Male","ball","6","M_ball.wav","None","722.671330906","313","330384.212318","337268.02472","338035.166597","338801.136706","339567.905719","340334.962573","341101.488576","327251.315764","331151.662749","331918.631797","332685.155018","333434.63723","334201.123041","334967.888962","335734.351585","336501.360207","340345.029561","Mapping"
"Blocked","Male","ball","6","M_bluff.wav","space","701.587264426","313","330384.212318","337268.02472","338035.166597","338801.136706","339567.905719","340334.962573","341101.488576","341868.324062","331151.662749","331918.631797","332685.155018","333434.63723","334201.123041","334967.888962","335734.351585","336501.360207","341111.413963","Mapping"
"Blocked","Male","cave","7","M_jaw.wav","None","719.484682195","313","344984.794862","337268.02472","338035.166597","338801.136706","339567.905719","340334.962573","341101.488576","341868.324062","331151.662749","331918.631797","332685.155018","333434.63723","334201.123041","334967.888962","335734.351585","336501.360207","341878.330452","Mapping"
"Blocked","Male","cave","7","M_knife.wav","None","720.468780492","313","344984.794862","337268.02472","338035.166597","338801.136706","339567.905719","340334.962573","341101.488576","341868.324062","345751.379608","331918.631797","332685.155018","333434.63723","334201.123041","334967.888962","335734.351585","336501.360207","344994.917811","Mapping"
"Blocked","Male","cave","7","M_cave.wav","None","719.556410331","313","344984.794862","337268.02472","338035.166597","338801.136706","339567.905719","340334.962573","341101.488576","341868.324062","345751.379608","346501.106067","332685.155018","333434.63723","334201.123041","334967.888962","335734.351585","336501.360207","345761.448452","Mapping"
"Blocked","Male","cave","7","M_cad.wav","space","518.526739907","313","344984.794862","337268.02472","338035.166597","338801.136706","339567.905719","340334.962573","341101.488576","341868.324062","345751.379608","346501.106067","347267.844472","333434.63723","334201.123041","334967.888962","335734.351585","336501.360207","346510.347254","Mapping"
"Blocked","Male","cave","7","M_cave.wav","None","733.028942253","313","344984.794862","337268.02472","338035.166597","338801.136706","339567.905719","340334.962573","341101.488576","341868.324062","345751.379608","346501.106067","347267.844472","348035.033343","334201.123041","334967.888962","335734.351585","336501.360207","347277.858592","Mapping"
"Blocked","Male","cave","7","M_dime.wav","space","608.301671222","313","344984.794862","337268.02472","338035.166597","338801.136706","339567.905719","340334.962573","341101.488576","341868.324062","345751.379608","346501.106067","347267.844472","348035.033343","348800.931415","334967.888962","335734.351585","336501.360207","348044.556496","Mapping"
"Blocked","Male","cave","7","M_knife.wav","None","730.721582659","313","344984.794862","337268.02472","338035.166597","338801.136706","339567.905719","340334.962573","341101.488576","341868.324062","345751.379608","346501.106067","347267.844472","348035.033343","348800.931415","349567.474114","335734.351585","336501.360207","348810.177549","Mapping"
"Blocked","Male","cave","7","M_cave.wav","None","729.713368695","313","344984.794862","337268.02472","338035.166597","338801.136706","339567.905719","340334.962573","341101.488576","341868.324062","345751.379608","346501.106067","347267.844472","348035.033343","348800.931415","349567.474114","350334.423684","336501.360207","349576.755184","Mapping"
"Blocked","Male","cave","7","M_park.wav","space","580.605317838","313","344984.794862","337268.02472","338035.166597","338801.136706","339567.905719","340334.962573","341101.488576","341868.324062","345751.379608","346501.106067","347267.844472","348035.033343","348800.931415","349567.474114","350334.423684","351101.060062","350344.255083","Mapping"
"Blocked","Male","cave","7","M_gnash.wav","None","726.078419015","313","344984.794862","351867.740034","338035.166597","338801.136706","339567.905719","340334.962573","341101.488576","341868.324062","345751.379608","346501.106067","347267.844472","348035.033343","348800.931415","349567.474114","350334.423684","351101.060062","351110.511178","Mapping"
"Blocked","Male","cave","7","M_gnash.wav","None","724.749593064","313","344984.794862","351867.740034","352634.771226","338801.136706","339567.905719","340334.962573","341101.488576","341868.324062","345751.379608","346501.106067","347267.844472","348035.033343","348800.931415","349567.474114","350334.423684","351101.060062","351877.276171","Mapping"
"Blocked","Male","cave","7","M_cling.wav","None","722.961644176","313","344984.794862","351867.740034","352634.771226","353401.217462","339567.905719","340334.962573","341101.488576","341868.324062","345751.379608","346501.106067","347267.844472","348035.033343","348800.931415","349567.474114","350334.423684","351101.060062","352644.816263","Mapping"
"Blocked","Male","cave","7","M_jaw.wav","None","722.504376899","313","344984.794862","351867.740034","352634.771226","353401.217462","354168.073353","340334.962573","341101.488576","341868.324062","345751.379608","346501.106067","347267.844472","348035.033343","348800.931415","349567.474114","350334.423684","351101.060062","353410.938177","Mapping"
"Blocked","Male","cave","7","M_reek.wav","None","721.084653866","313","344984.794862","351867.740034","352634.771226","353401.217462","354168.073353","354934.297912","341101.488576","341868.324062","345751.379608","346501.106067","347267.844472","348035.033343","348800.931415","349567.474114","350334.423684","351101.060062","354178.104477","Mapping"
"Blocked","Male","cave","7","M_cave.wav","None","720.669743605","313","344984.794862","351867.740034","352634.771226","353401.217462","354168.073353","354934.297912","355700.834737","341868.324062","345751.379608","346501.106067","347267.844472","348035.033343","348800.931415","349567.474114","350334.423684","351101.060062","354944.232265","Mapping"
"Blocked","Male","cave","7","M_dime.wav","space","518.422548659","313","344984.794862","351867.740034","352634.771226","353401.217462","354168.073353","354934.297912","355700.834737","356450.66044","345751.379608","346501.106067","347267.844472","348035.033343","348800.931415","349567.474114","350334.423684","351101.060062","355710.315224","Mapping"
"Blocked","Male","done","21","M_bluff.wav","None","735.240457579","313","359584.806054","351867.740034","352634.771226","353401.217462","354168.073353","354934.297912","355700.834737","356450.66044","345751.379608","346501.106067","347267.844472","348035.033343","348800.931415","349567.474114","350334.423684","351101.060062","356459.758789","Mapping"
"Blocked","Male","done","21","M_done.wav","None","720.413129777","313","359584.806054","351867.740034","352634.771226","353401.217462","354168.073353","354934.297912","355700.834737","356450.66044","360351.552498","346501.106067","347267.844472","348035.033343","348800.931415","349567.474114","350334.423684","351101.060062","359594.691558","Mapping"
"Blocked","Male","done","21","M_priest.wav","None","719.561357517","313","359584.806054","351867.740034","352634.771226","353401.217462","354168.073353","354934.297912","355700.834737","356450.66044","360351.552498","361117.967817","347267.844472","348035.033343","348800.931415","349567.474114","350334.423684","351101.060062","360361.217561","Mapping"
"Blocked","Male","done","21","M_reek.wav","space","116.541600786","313","359584.806054","351867.740034","352634.771226","353401.217462","354168.073353","354934.297912","355700.834737","356450.66044","360351.552498","361117.967817","361867.500424","348035.033343","348800.931415","349567.474114","350334.423684","351101.060062","361128.142707","Mapping"
"Blocked","Male","done","21","M_lash.wav","None","734.829257242","313","359584.806054","351867.740034","352634.771226","353401.217462","354168.073353","354934.297912","355700.834737","356450.66044","360351.552498","361117.967817","361867.500424","362634.194308","348800.931415","349567.474114","350334.423684","351101.060062","361876.235804","Mapping"
"Blocked","Male","done","21","M_done.wav","None","733.204243239","313","359584.806054","351867.740034","352634.771226","353401.217462","354168.073353","354934.297912","355700.834737","356450.66044","360351.552498","361117.967817","361867.500424","362634.194308","363400.715365","349567.474114","350334.423684","351101.060062","362643.557","Mapping"
"Blocked","Male","done","21","M_priest.wav","space","466.351289302","313","359584.806054","351867.740034","352634.771226","353401.217462","354168.073353","354934.297912","355700.834737","356450.66044","360351.552498","361117.967817","361867.500424","362634.194308","363400.715365","364167.297638","350334.423684","351101.060062","363410.235117","Mapping"
"Blocked","Male","done","21","M_lash.wav","None","730.389530305","313","359584.806054","351867.740034","352634.771226","353401.217462","354168.073353","354934.297912","355700.834737","356450.66044","360351.552498","361117.967817","361867.500424","362634.194308","363400.715365","364167.297638","364934.127558","351101.060062","364176.470188","Mapping"
"Blocked","Male","done","21","M_dime.wav","None","728.737927042","313","359584.806054","351867.740034","352634.771226","353401.217462","354168.073353","354934.297912","355700.834737","356450.66044","360351.552498","361117.967817","361867.500424","362634.194308","363400.715365","364167.297638","364934.127558","365700.522781","364943.790457","Mapping"
"Blocked","Male","done","21","M_romp.wav","None","728.693715297","313","359584.806054","366467.455656","352634.771226","353401.217462","354168.073353","354934.297912","355700.834737","356450.66044","360351.552498","361117.967817","361867.500424","362634.194308","363400.715365","364167.297638","364934.127558","365700.522781","365709.623603","Mapping"
"Blocked","Male","done","21","M_park.wav","None","726.884742733","313","359584.806054","366467.455656","367234.051223","353401.217462","354168.073353","354934.297912","355700.834737","356450.66044","360351.552498","361117.967817","361867.500424","362634.194308","363400.715365","364167.297638","364934.127558","365700.522781","366477.150091","Mapping"
"Blocked","Male","done","21","M_done.wav","None","726.270106621","313","359584.806054","366467.455656","367234.051223","368000.569806","354168.073353","354934.297912","355700.834737","356450.66044","360351.552498","361117.967817","361867.500424","362634.194308","363400.715365","364167.297638","364934.127558","365700.522781","367243.55428","Mapping"
"Blocked","Male","done","21","M_romp.wav","space","434.73400129","313","359584.806054","366467.455656","367234.051223","368000.569806","368767.786502","354934.297912","355700.834737","356450.66044","360351.552498","361117.967817","361867.500424","362634.194308","363400.715365","364167.297638","364934.127558","365700.522781","368017.786116","Mapping"
"Blocked","Male","done","21","M_done.wav","None","722.085447516","313","359584.806054","366467.455656","367234.051223","368000.569806","368767.786502","369534.448851","355700.834737","356450.66044","360351.552498","361117.967817","361867.500424","362634.194308","363400.715365","364167.297638","364934.127558","365700.522781","368778.326526","Mapping"
"Blocked","Male","done","21","M_romp.wav","space","627.616649028","313","359584.806054","366467.455656","367234.051223","368000.569806","368767.786502","369534.448851","370300.992786","356450.66044","360351.552498","361117.967817","361867.500424","362634.194308","363400.715365","364167.297638","364934.127558","365700.522781","369544.909726","Mapping"
"Blocked","Male","done","21","M_cling.wav","None","719.191276934","313","359584.806054","366467.455656","367234.051223","368000.569806","368767.786502","369534.448851","370300.992786","371067.762727","360351.552498","361117.967817","361867.500424","362634.194308","363400.715365","364167.297638","364934.127558","365700.522781","370311.331229","Mapping"
"Blocked","Male","done","22","M_priest.wav","None","719.457165804","313","374184.375437","366467.455656","367234.051223","368000.569806","368767.786502","369534.448851","370300.992786","371067.762727","360351.552498","361117.967817","361867.500424","362634.194308","363400.715365","364167.297638","364934.127558","365700.522781","371077.552387","Mapping"
"Blocked","Male","done","22","M_cling.wav","None","719.711306505","313","374184.375437","366467.455656","367234.051223","368000.569806","368767.786502","369534.448851","370300.992786","371067.762727","374950.876707","361117.967817","361867.500424","362634.194308","363400.715365","364167.297638","364934.127558","365700.522781","374196.331165","Mapping"
"Blocked","Male","done","22","M_cling.wav","None","720.263489522","313","374184.375437","366467.455656","367234.051223","368000.569806","368767.786502","369534.448851","370300.992786","371067.762727","374950.876707","375717.57121","361867.500424","362634.194308","363400.715365","364167.297638","364934.127558","365700.522781","374961.365099","Mapping"
"Blocked","Male","done","22","M_gnash.wav","None","719.599694945","313","374184.375437","366467.455656","367234.051223","368000.569806","368767.786502","369534.448851","370300.992786","371067.762727","374950.876707","375717.57121","376484.297248","362634.194308","363400.715365","364167.297638","364934.127558","365700.522781","375727.818755","Mapping"
"Blocked","Male","done","22","M_done.wav","None","718.820578419","313","374184.375437","366467.455656","367234.051223","368000.569806","368767.786502","369534.448851","370300.992786","371067.762727","374950.876707","375717.57121","376484.297248","377233.870048","363400.715365","364167.297638","364934.127558","365700.522781","376494.256953","Mapping"
"Blocked","Male","done","22","M_reek.wav","space","415.993467439","313","374184.375437","366467.455656","367234.051223","368000.569806","368767.786502","369534.448851","370300.992786","371067.762727","374950.876707","375717.57121","376484.297248","377233.870048","378000.394814","364167.297638","364934.127558","365700.522781","377244.368642","Mapping"
"Blocked","Male","done","22","M_priest.wav","None","733.173016924","313","374184.375437","366467.455656","367234.051223","368000.569806","368767.786502","369534.448851","370300.992786","371067.762727","374950.876707","375717.57121","376484.297248","377233.870048","378000.394814","378767.22628","364934.127558","365700.522781","378010.244763","Mapping"
"Blocked","Male","done","22","M_done.wav","None","732.672155835","313","374184.375437","366467.455656","367234.051223","368000.569806","368767.786502","369534.448851","370300.992786","371067.762727","374950.876707","375717.57121","376484.297248","377233.870048","378000.394814","378767.22628","379533.837925","365700.522781","378776.426657","Mapping"
"Blocked","Male","done","22","M_romp.wav","space","572.567123454","313","374184.375437","366467.455656","367234.051223","368000.569806","368767.786502","369534.448851","370300.992786","371067.762727","374950.876707","375717.57121","376484.297248","377233.870048","378000.394814","378767.22628","379533.837925","380300.363928","379543.73425","Mapping"
"Blocked","Male","done","22","M_done.wav","None","729.252082296","313","374184.375437","381067.146854","367234.051223","368000.569806","368767.786502","369534.448851","370300.992786","371067.762727","374950.876707","375717.57121","376484.297248","377233.870048","378000.394814","378767.22628","379533.837925","380300.363928","380310.241702","Mapping"
"Blocked","Male","done","22","M_depth.wav","space","543.624184094","313","374184.375437","381067.146854","381833.785087","368000.569806","368767.786502","369534.448851","370300.992786","371067.762727","374950.876707","375717.57121","376484.297248","377233.870048","378000.394814","378767.22628","379533.837925","380300.363928","381076.632597","Mapping"
"Blocked","Male","done","22","M_jolt.wav","None","726.696147118","313","374184.375437","381067.146854","381833.785087","382600.272443","368767.786502","369534.448851","370300.992786","371067.762727","374950.876707","375717.57121","376484.297248","377233.870048","378000.394814","378767.22628","379533.837925","380300.363928","381843.683267","Mapping"
"Blocked","Male","done","22","M_cling.wav","None","726.336270105","313","374184.375437","381067.146854","381833.785087","382600.272443","383367.185222","369534.448851","370300.992786","371067.762727","374950.876707","375717.57121","376484.297248","377233.870048","378000.394814","378767.22628","379533.837925","380300.363928","382609.912773","Mapping"
"Blocked","Male","done","22","M_gnash.wav","None","724.162164144","313","374184.375437","381067.146854","381833.785087","382600.272443","383367.185222","384133.794084","370300.992786","371067.762727","374950.876707","375717.57121","376484.297248","377233.870048","378000.394814","378767.22628","379533.837925","380300.363928","383377.86561","Mapping"
"Blocked","Male","done","22","M_done.wav","None","723.741997499","313","374184.375437","381067.146854","381833.785087","382600.272443","383367.185222","384133.794084","384900.672853","371067.762727","374950.876707","375717.57121","376484.297248","377233.870048","378000.394814","378767.22628","379533.837925","380300.363928","384144.133145","Mapping"
"Blocked","Male","done","22","M_knife.wav","space","485.173135065","313","374184.375437","381067.146854","381833.785087","382600.272443","383367.185222","384133.794084","384900.672853","385667.378177","374950.876707","375717.57121","376484.297248","377233.870048","378000.394814","378767.22628","379533.837925","380300.363928","384910.989654","Mapping"
"Blocked","Male","ball","2","M_knife.wav","None","720.320377499","313","388784.126306","381067.146854","381833.785087","382600.272443","383367.185222","384133.794084","384900.672853","385667.378177","374950.876707","375717.57121","376484.297248","377233.870048","378000.394814","378767.22628","379533.837925","380300.363928","385677.861004","Mapping"
"Blocked","Male","ball","2","M_bluff.wav","None","720.156824682","313","388784.126306","381067.146854","381833.785087","382600.272443","383367.185222","384133.794084","384900.672853","385667.378177","389550.717236","375717.57121","376484.297248","377233.870048","378000.394814","378767.22628","379533.837925","380300.363928","388794.546061","Mapping"
"Blocked","Male","ball","2","M_park.wav","None","719.51436298","313","388784.126306","381067.146854","381833.785087","382600.272443","383367.185222","384133.794084","384900.672853","385667.378177","389550.717236","390317.491504","376484.297248","377233.870048","378000.394814","378767.22628","379533.837925","380300.363928","389561.288485","Mapping"
"Blocked","Male","ball","2","M_cad.wav","None","719.546517357","313","388784.126306","381067.146854","381833.785087","382600.272443","383367.185222","384133.794084","384900.672853","385667.378177","389550.717236","390317.491504","391084.112733","377233.870048","378000.394814","378767.22628","379533.837925","380300.363928","390327.216238","Mapping"
"Blocked","Male","ball","2","M_ball.wav","None","717.807108536","313","388784.126306","381067.146854","381833.785087","382600.272443","383367.185222","384133.794084","384900.672853","385667.378177","389550.717236","390317.491504","391084.112733","391850.566699","378000.394814","378767.22628","379533.837925","380300.363928","391094.803324","Mapping"
"Blocked","Male","ball","2","M_lash.wav","space","447.436073329","313","388784.126306","381067.146854","381833.785087","382600.272443","383367.185222","384133.794084","384900.672853","385667.378177","389550.717236","390317.491504","391084.112733","391850.566699","392600.078282","378767.22628","379533.837925","380300.363928","391860.658421","Mapping"
"Blocked","Male","ball","2","M_park.wav","None","735.250660684","313","388784.126306","381067.146854","381833.785087","382600.272443","383367.185222","384133.794084","384900.672853","385667.378177","389550.717236","390317.491504","391084.112733","391850.566699","392600.078282","393366.807722","379533.837925","380300.363928","392609.492297","Mapping"
"Blocked","Male","ball","2","M_ball.wav","None","734.018605202","313","388784.126306","381067.146854","381833.785087","382600.272443","383367.185222","384133.794084","384900.672853","385667.378177","389550.717236","390317.491504","391084.112733","391850.566699","392600.078282","393366.807722","394133.237572","380300.363928","393376.708375","Mapping"
"Blocked","Male","ball","2","M_cad.wav","space","381.48046378","313","388784.126306","381067.146854","381833.785087","382600.272443","383367.185222","384133.794084","384900.672853","385667.378177","389550.717236","390317.491504","391084.112733","391850.566699","392600.078282","393366.807722","394133.237572","394900.03472","394142.555434","Mapping"
"Blocked","Male","ball","2","M_ball.wav","None","732.004651334","313","388784.126306","395666.987073","381833.785087","382600.272443","383367.185222","384133.794084","384900.672853","385667.378177","389550.717236","390317.491504","391084.112733","391850.566699","392600.078282","393366.807722","394133.237572","394900.03472","394909.752343","Mapping"
"Blocked","Male","ball","2","M_dime.wav","space","526.633570902","313","388784.126306","395666.987073","396433.574911","382600.272443","383367.185222","384133.794084","384900.672853","385667.378177","389550.717236","390317.491504","391084.112733","391850.566699","392600.078282","393366.807722","394133.237572","394900.03472","395677.369418","Mapping"
"Blocked","Male","ball","2","M_cad.wav","None","728.173067793","313","388784.126306","395666.987073","396433.574911","397200.044645","383367.185222","384133.794084","384900.672853","385667.378177","389550.717236","390317.491504","391084.112733","391850.566699","392600.078282","393366.807722","394133.237572","394900.03472","396444.094838","Mapping"
"Blocked","Male","ball","2","M_lash.wav","None","728.555824142","313","388784.126306","395666.987073","396433.574911","397200.044645","397966.940419","384133.794084","384900.672853","385667.378177","389550.717236","390317.491504","391084.112733","391850.566699","392600.078282","393366.807722","394133.237572","394900.03472","397209.707235","Mapping"
"Blocked","Male","ball","2","M_ball.wav","None","727.758157533","313","388784.126306","395666.987073","396433.574911","397200.044645","397966.940419","398733.215683","384900.672853","385667.378177","389550.717236","390317.491504","391084.112733","391850.566699","392600.078282","393366.807722","394133.237572","394900.03472","397976.601154","Mapping"
"Blocked","Male","ball","2","M_cling.wav","space","397.451114375","313","388784.126306","395666.987073","396433.574911","397200.044645","397966.940419","398733.215683","399500.072501","385667.378177","389550.717236","390317.491504","391084.112733","391850.566699","392600.078282","393366.807722","394133.237572","394900.03472","398742.503864","Mapping"
"Blocked","Male","ball","2","M_knife.wav","None","723.877105862","313","388784.126306","395666.987073","396433.574911","397200.044645","397966.940419","398733.215683","399500.072501","400266.871813","389550.717236","390317.491504","391084.112733","391850.566699","392600.078282","393366.807722","394133.237572","394900.03472","399511.087106","Mapping"
"Blocked","Male","cave","11","M_cad.wav","None","723.914516158","313","403400.439582","395666.987073","396433.574911","397200.044645","397966.940419","398733.215683","399500.072501","400266.871813","389550.717236","390317.491504","391084.112733","391850.566699","392600.078282","393366.807722","394133.237572","394900.03472","400276.901392","Mapping"
"Blocked","Male","cave","11","M_cave.wav","None","721.2179075","313","403400.439582","395666.987073","396433.574911","397200.044645","397966.940419","398733.215683","399500.072501","400266.871813","404166.848409","390317.491504","391084.112733","391850.566699","392600.078282","393366.807722","394133.237572","394900.03472","403410.475035","Mapping"
"Blocked","Male","cave","11","M_romp.wav","space","635.285071563","313","403400.439582","395666.987073","396433.574911","397200.044645","397966.940419","398733.215683","399500.072501","400266.871813","404166.848409","404916.994107","391084.112733","391850.566699","392600.078282","393366.807722","394133.237572","394900.03472","404176.609316","Mapping"
"Blocked","Male","cave","11","M_gnash.wav","None","735.246641561","313","403400.439582","395666.987073","396433.574911","397200.044645","397966.940419","398733.215683","399500.072501","400266.871813","404166.848409","404916.994107","405683.056968","391850.566699","392600.078282","393366.807722","394133.237572","394900.03472","404926.886412","Mapping"
"Blocked","Male","cave","11","M_lash.wav","None","735.218815506","313","403400.439582","395666.987073","396433.574911","397200.044645","397966.940419","398733.215683","399500.072501","400266.871813","404166.848409","404916.994107","405683.056968","406449.802485","392600.078282","393366.807722","394133.237572","394900.03472","405692.87971","Mapping"
"Blocked","Male","cave","11","M_cave.wav","None","732.867863029","313","403400.439582","395666.987073","396433.574911","397200.044645","397966.940419","398733.215683","399500.072501","400266.871813","404166.848409","404916.994107","405683.056968","406449.802485","407216.729795","393366.807722","394133.237572","394900.03472","406461.202319","Mapping"
"Blocked","Male","cave","11","M_priest.wav","space","593.051084783","313","403400.439582","395666.987073","396433.574911","397200.044645","397966.940419","398733.215683","399500.072501","400266.871813","404166.848409","404916.994107","405683.056968","406449.802485","407216.729795","407983.328453","394133.237572","394900.03472","407226.775759","Mapping"
"Blocked","Male","cave","11","M_cling.wav","None","731.196163222","313","403400.439582","395666.987073","396433.574911","397200.044645","397966.940419","398733.215683","399500.072501","400266.871813","404166.848409","404916.994107","405683.056968","406449.802485","407216.729795","407983.328453","408749.764487","394900.03472","407993.187059","Mapping"
"Blocked","Male","cave","11","M_cave.wav","None","731.32818006","313","403400.439582","395666.987073","396433.574911","397200.044645","397966.940419","398733.215683","399500.072501","400266.871813","404166.848409","404916.994107","405683.056968","406449.802485","407216.729795","407983.328453","408749.764487","409516.752395","408758.984341","Mapping"
"Blocked","Male","cave","11","M_cling.wav","space","621.435967274","313","403400.439582","410283.318591","396433.574911","397200.044645","397966.940419","398733.215683","399500.072501","400266.871813","404166.848409","404916.994107","405683.056968","406449.802485","407216.729795","407983.328453","408749.764487","409516.752395","409526.352223","Mapping"
"Blocked","Male","cave","11","M_priest.wav","None","727.660767734","313","403400.439582","410283.318591","411049.807802","397200.044645","397966.940419","398733.215683","399500.072501","400266.871813","404166.848409","404916.994107","405683.056968","406449.802485","407216.729795","407983.328453","408749.764487","409516.752395","410293.229756","Mapping"
"Blocked","Male","cave","11","M_lash.wav","None","728.158227634","313","403400.439582","410283.318591","411049.807802","411816.574651","397966.940419","398733.215683","399500.072501","400266.871813","404166.848409","404916.994107","405683.056968","406449.802485","407216.729795","407983.328453","408749.764487","409516.752395","411059.232329","Mapping"
"Blocked","Male","cave","11","M_depth.wav","None","726.648534648","313","403400.439582","410283.318591","411049.807802","411816.574651","412583.047168","398733.215683","399500.072501","400266.871813","404166.848409","404916.994107","405683.056968","406449.802485","407216.729795","407983.328453","408749.764487","409516.752395","411826.583206","Mapping"
"Blocked","Male","cave","11","M_cave.wav","None","726.563202683","313","403400.439582","410283.318591","411049.807802","411816.574651","412583.047168","413349.789592","399500.072501","400266.871813","404166.848409","404916.994107","405683.056968","406449.802485","407216.729795","407983.328453","408749.764487","409516.752395","412592.586398","Mapping"
"Blocked","Male","cave","11","M_jaw.wav","space","484.044344164","313","403400.439582","410283.318591","411049.807802","411816.574651","412583.047168","413349.789592","414116.91972","400266.871813","404166.848409","404916.994107","405683.056968","406449.802485","407216.729795","407983.328453","408749.764487","409516.752395","413359.644179","Mapping"
"Blocked","Male","cave","11","M_knife.wav","None","723.055323586","313","403400.439582","410283.318591","411049.807802","411816.574651","412583.047168","413349.789592","414116.91972","414883.5966","404166.848409","404916.994107","405683.056968","406449.802485","407216.729795","407983.328453","408749.764487","409516.752395","414126.444728","Mapping"
"Blocked","Male","tile","18","M_park.wav","None","727.656130213","313","418000.162934","410283.318591","411049.807802","411816.574651","412583.047168","413349.789592","414116.91972","414883.5966","404166.848409","404916.994107","405683.056968","406449.802485","407216.729795","407983.328453","408749.764487","409516.752395","414888.043438","Mapping"
"Blocked","Male","tile","18","M_reek.wav","None","720.937487204","313","418000.162934","410283.318591","411049.807802","411816.574651","412583.047168","413349.789592","414116.91972","414883.5966","418766.815698","404916.994107","405683.056968","406449.802485","407216.729795","407983.328453","408749.764487","409516.752395","418010.36163","Mapping"
"Blocked","Male","tile","18","M_cad.wav","None","719.61113438","313","418000.162934","410283.318591","411049.807802","411816.574651","412583.047168","413349.789592","414116.91972","414883.5966","418766.815698","419533.435072","405683.056968","406449.802485","407216.729795","407983.328453","408749.764487","409516.752395","418777.756719","Mapping"
"Blocked","Male","tile","18","M_greet.wav","None","720.217422582","313","418000.162934","410283.318591","411049.807802","411816.574651","412583.047168","413349.789592","414116.91972","414883.5966","418766.815698","419533.435072","420300.023528","406449.802485","407216.729795","407983.328453","408749.764487","409516.752395","419543.272345","Mapping"
"Blocked","Male","tile","18","M_tile.wav","None","722.084519919","313","418000.162934","410283.318591","411049.807802","411816.574651","412583.047168","413349.789592","414116.91972","414883.5966","418766.815698","419533.435072","420300.023528","421066.992267","407216.729795","407983.328453","408749.764487","409516.752395","420309.601096","Mapping"
"Blocked","Male","tile","18","M_bluff.wav","space","461.796858814","313","418000.162934","410283.318591","411049.807802","411816.574651","412583.047168","413349.789592","414116.91972","414883.5966","418766.815698","419533.435072","420300.023528","421066.992267","421833.468494","407983.328453","408749.764487","409516.752395","421077.770663","Mapping"
"Blocked","Male","tile","18","M_jolt.wav","None","718.260356691","313","418000.162934","410283.318591","411049.807802","411816.574651","412583.047168","413349.789592","414116.91972","414883.5966","418766.815698","419533.435072","420300.023528","421066.992267","421833.468494","422600.076737","408749.764487","409516.752395","421844.313362","Mapping"
"Blocked","Male","tile","18","M_tile.wav","None","718.490999658","313","418000.162934","410283.318591","411049.807802","411816.574651","412583.047168","413349.789592","414116.91972","414883.5966","418766.815698","419533.435072","420300.023528","421066.992267","421833.468494","422600.076737","423349.434352","409516.752395","422610.234622","Mapping"
"Blocked","Male","tile","18","M_priest.wav","space","572.748299222","313","418000.162934","410283.318591","411049.807802","411816.574651","412583.047168","413349.789592","414116.91972","414883.5966","418766.815698","419533.435072","420300.023528","421066.992267","421833.468494","422600.076737","423349.434352","424116.418241","423358.786223","Mapping"
"Blocked","Male","tile","18","M_romp.wav","None","733.857835643","313","418000.162934","424883.045344","411049.807802","411816.574651","412583.047168","413349.789592","414116.91972","414883.5966","418766.815698","419533.435072","420300.023528","421066.992267","421833.468494","422600.076737","423349.434352","424116.418241","424125.685707","Mapping"
"Blocked","Male","tile","18","M_priest.wav","None","729.561564978","313","418000.162934","424883.045344","425649.372239","411816.574651","412583.047168","413349.789592","414116.91972","414883.5966","418766.815698","419533.435072","420300.023528","421066.992267","421833.468494","422600.076737","423349.434352","424116.418241","424896.451712","Mapping"
"Blocked","Male","tile","18","M_reek.wav","None","736.860525329","313","418000.162934","424883.045344","425649.372239","426416.21329","412583.047168","413349.789592","414116.91972","414883.5966","418766.815698","419533.435072","420300.023528","421066.992267","421833.468494","422600.076737","423349.434352","424116.418241","425658.432251","Mapping"
"Blocked","Male","tile","18","M_tile.wav","None","735.569109209","313","418000.162934","424883.045344","425649.372239","426416.21329","427182.850596","413349.789592","414116.91972","414883.5966","418766.815698","419533.435072","420300.023528","421066.992267","421833.468494","422600.076737","423349.434352","424116.418241","426425.934932","Mapping"
"Blocked","Male","tile","18","M_romp.wav","space","483.080651145","313","418000.162934","424883.045344","425649.372239","426416.21329","427182.850596","427949.360831","414116.91972","414883.5966","418766.815698","419533.435072","420300.023528","421066.992267","421833.468494","422600.076737","423349.434352","424116.418241","427192.411777","Mapping"
"Blocked","Male","tile","18","M_tile.wav","None","732.980402187","313","418000.162934","424883.045344","425649.372239","426416.21329","427182.850596","427949.360831","428716.163544","414883.5966","418766.815698","419533.435072","420300.023528","421066.992267","421833.468494","422600.076737","423349.434352","424116.418241","427958.971789","Mapping"
"Blocked","Male","tile","18","M_jaw.wav","space","651.986607816","313","418000.162934","424883.045344","425649.372239","426416.21329","427182.850596","427949.360831","428716.163544","429482.948016","418766.815698","419533.435072","420300.023528","421066.992267","421833.468494","422600.076737","423349.434352","424116.418241","428727.449912","Mapping"
"Blocked","Male","cave","12","M_jaw.wav","None","729.959779419","313","432616.513621","424883.045344","425649.372239","426416.21329","427182.850596","427949.360831","428716.163544","429482.948016","418766.815698","419533.435072","420300.023528","421066.992267","421833.468494","422600.076737","423349.434352","424116.418241","429492.860418","Mapping"
"Blocked","Male","cave","12","M_dime.wav","None","721.232747659","313","432616.513621","424883.045344","425649.372239","426416.21329","427182.850596","427949.360831","428716.163544","429482.948016","433383.202558","419533.435072","420300.023528","421066.992267","421833.468494","422600.076737","423349.434352","424116.418241","432626.704588","Mapping"
"Blocked","Male","cave","12","M_gnash.wav","None","720.338618848","313","432616.513621","424883.045344","425649.372239","426416.21329","427182.850596","427949.360831","428716.163544","429482.948016","433383.202558","434150.025368","420300.023528","421066.992267","421833.468494","422600.076737","423349.434352","424116.418241","433393.441756","Mapping"
"Blocked","Male","cave","12","M_depth.wav","None","719.66709476","313","432616.513621","424883.045344","425649.372239","426416.21329","427182.850596","427949.360831","428716.163544","429482.948016","433383.202558","434150.025368","434916.628045","421066.992267","421833.468494","422600.076737","423349.434352","424116.418241","434160.290845","Mapping"
"Blocked","Male","cave","12","M_cave.wav","None","722.400804516","313","432616.513621","424883.045344","425649.372239","426416.21329","427182.850596","427949.360831","428716.163544","429482.948016","433383.202558","434150.025368","434916.628045","435683.281119","421833.468494","422600.076737","423349.434352","424116.418241","434923.855587","Mapping"
"Blocked","Male","cave","12","M_reek.wav","space","533.919237088","313","432616.513621","424883.045344","425649.372239","426416.21329","427182.850596","427949.360831","428716.163544","429482.948016","433383.202558","434150.025368","434916.628045","435683.281119","436432.703352","422600.076737","423349.434352","424116.418241","435693.377788","Mapping"
"Blocked","Male","cave","12","M_jolt.wav","None","735.003631096","313","432616.513621","424883.045344","425649.372239","426416.21329","427182.850596","427949.360831","428716.163544","429482.948016","433383.202558","434150.025368","434916.628045","435683.281119","436432.703352","437199.279132","423349.434352","424116.418241","436441.896308","Mapping"
"Blocked","Male","cave","12","M_cave.wav","None","733.652235474","313","432616.513621","424883.045344","425649.372239","426416.21329","427182.850596","427949.360831","428716.163544","429482.948016","433383.202558","434150.025368","434916.628045","435683.281119","436432.703352","437199.279132","437966.206132","424116.418241","437209.327879","Mapping"
"Blocked","Male","cave","12","M_park.wav","space","547.807297204","313","432616.513621","424883.045344","425649.372239","426416.21329","427182.850596","427949.360831","428716.163544","429482.948016","433383.202558","434150.025368","434916.628045","435683.281119","436432.703352","437199.279132","437966.206132","438732.665664","437975.452885","Mapping"
"Blocked","Male","cave","12","M_cave.wav","None","730.988708325","313","432616.513621","439499.323993","425649.372239","426416.21329","427182.850596","427949.360831","428716.163544","429482.948016","433383.202558","434150.025368","434916.628045","435683.281119","436432.703352","437199.279132","437966.206132","438732.665664","438742.66989","Mapping"
"Blocked","Male","cave","12","M_depth.wav","space","566.195682622","313","432616.513621","439499.323993","440265.780741","426416.21329","427182.850596","427949.360831","428716.163544","429482.948016","433383.202558","434150.025368","434916.628045","435683.281119","436432.703352","437199.279132","437966.206132","438732.665664","439509.034195","Mapping"
"Blocked","Male","cave","12","M_cad.wav","None","734.504625667","313","432616.513621","439499.323993","440265.780741","441033.354223","427182.850596","427949.360831","428716.163544","429482.948016","433383.202558","434150.025368","434916.628045","435683.281119","436432.703352","437199.279132","437966.206132","438732.665664","440269.82349","Mapping"
"Blocked","Male","cave","12","M_cave.wav","None","727.341700811","313","432616.513621","439499.323993","440265.780741","441033.354223","441799.27301","427949.360831","428716.163544","429482.948016","433383.202558","434150.025368","434916.628045","435683.281119","436432.703352","437199.279132","437966.206132","438732.665664","441043.108947","Mapping"
"Blocked","Male","cave","12","M_park.wav","space","594.073520508","313","432616.513621","439499.323993","440265.780741","441033.354223","441799.27301","442566.095201","428716.163544","429482.948016","433383.202558","434150.025368","434916.628045","435683.281119","436432.703352","437199.279132","437966.206132","438732.665664","441809.105027","Mapping"
