"Condition","Talker","Target","Trial","current_stimulus","response_response","response_time_response","subject_nr","time_Audio1","time_Audio10","time_Audio11","time_Audio12","time_Audio13","time_Audio14","time_Audio15","time_Audio16","time_Audio2","time_Audio3","time_Audio4","time_Audio5","time_Audio6","time_Audio7","time_Audio8","time_Audio9","time_response"
"Blocked","Male","done","24","M_cling.wav","NA","NA","321","78068.1186914","NA","NA","NA","NA","NA","NA","NA","NA","NA","NA","NA","NA","NA","NA","NA","NA"
"Blocked","Male","done","24","M_done.wav","None","716.45078389","321","78068.1186914","NA","NA","NA","NA","NA","NA","NA","78817.499734","NA","NA","NA","NA","NA","NA","NA","78082.5358825"
"Blocked","Male","done","24","M_cad.wav","space","441.558622289","321","78068.1186914","NA","NA","NA","NA","NA","NA","NA","78817.499734","79584.2112717","NA","NA","NA","NA","NA","NA","78826.6786668"
"Blocked","Male","done","24","M_park.wav","None","735.165121499","321","78068.1186914","NA","NA","NA","NA","NA","NA","NA","78817.499734","79584.2112717","80350.9738222","NA","NA","NA","NA","NA","79593.9297047"
"Blocked","Male","done","24","M_done.wav","None","733.981002122","321","78068.1186914","NA","NA","NA","NA","NA","NA","NA","78817.499734","79584.2112717","80350.9738222","81117.611777","NA","NA","NA","NA","80360.7577994"
"Blocked","Male","done","24","M_jaw.wav","space","469.037914183","321","78068.1186914","NA","NA","NA","NA","NA","NA","NA","78817.499734","79584.2112717","80350.9738222","81117.611777","81884.524893","NA","NA","NA","81127.1054442"
"Blocked","Male","done","24","M_romp.wav","None","730.711225886","321","78068.1186914","NA","NA","NA","NA","NA","NA","NA","78817.499734","79584.2112717","80350.9738222","81117.611777","81884.524893","82650.9788926","NA","NA","81893.9684746"
"Blocked","Male","done","24","M_park.wav","None","729.549366981","321","78068.1186914","NA","NA","NA","NA","NA","NA","NA","78817.499734","79584.2112717","80350.9738222","81117.611777","81884.524893","82650.9788926","83417.5933506","NA","82660.3325056"
"Blocked","Male","done","24","M_lash.wav","None","727.887271903","321","78068.1186914","NA","NA","NA","NA","NA","NA","NA","78817.499734","79584.2112717","80350.9738222","81117.611777","81884.524893","82650.9788926","83417.5933506","84183.9332664","83427.1321562"
"Blocked","Male","done","24","M_greet.wav","None","727.41671605","321","78068.1186914","84950.6893242","NA","NA","NA","NA","NA","NA","78817.499734","79584.2112717","80350.9738222","81117.611777","81884.524893","82650.9788926","83417.5933506","84183.9332664","84192.8982534"
"Blocked","Male","done","24","M_gnash.wav","None","725.585504901","321","78068.1186914","84950.6893242","85717.6500526","NA","NA","NA","NA","NA","78817.499734","79584.2112717","80350.9738222","81117.611777","81884.524893","82650.9788926","83417.5933506","84183.9332664","84959.9217433"
"Blocked","Male","done","24","M_done.wav","None","723.990190774","321","78068.1186914","84950.6893242","85717.6500526","86484.9610697","NA","NA","NA","NA","78817.499734","79584.2112717","80350.9738222","81117.611777","81884.524893","82650.9788926","83417.5933506","84183.9332664","85726.6422464"
"Blocked","Male","done","24","M_greet.wav","space","493.46106546","321","78068.1186914","84950.6893242","85717.6500526","86484.9610697","87251.4478406","NA","NA","NA","78817.499734","79584.2112717","80350.9738222","81117.611777","81884.524893","82650.9788926","83417.5933506","84183.9332664","86494.5447049"
"Blocked","Male","done","24","M_priest.wav","None","724.27369887","321","78068.1186914","84950.6893242","85717.6500526","86484.9610697","87251.4478406","88000.9052483","NA","NA","78817.499734","79584.2112717","80350.9738222","81117.611777","81884.524893","82650.9788926","83417.5933506","84183.9332664","87256.2572812"
"Blocked","Male","done","24","M_done.wav","None","735.209332313","321","78068.1186914","84950.6893242","85717.6500526","86484.9610697","87251.4478406","88000.9052483","88767.8143452","NA","78817.499734","79584.2112717","80350.9738222","81117.611777","81884.524893","82650.9788926","83417.5933506","84183.9332664","88010.5105257"
"Blocked","Male","done","24","M_bluff.wav","space","546.775795054","321","78068.1186914","84950.6893242","85717.6500526","86484.9610697","87251.4478406","88000.9052483","88767.8143452","89534.1629176","78817.499734","79584.2112717","80350.9738222","81117.611777","81884.524893","82650.9788926","83417.5933506","84183.9332664","88777.1413699"
"Blocked","Male","tile","18","M_bluff.wav","None","732.83120105","321","92684.9646559","84950.6893242","85717.6500526","86484.9610697","87251.4478406","88000.9052483","88767.8143452","89534.1629176","78817.499734","79584.2112717","80350.9738222","81117.611777","81884.524893","82650.9788926","83417.5933506","84183.9332664","89542.9921793"
"Blocked","Male","tile","18","M_dime.wav","None","721.728615928","321","92684.9646559","84950.6893242","85717.6500526","86484.9610697","87251.4478406","88000.9052483","88767.8143452","89534.1629176","93451.60292","79584.2112717","80350.9738222","81117.611777","81884.524893","82650.9788926","83417.5933506","84183.9332664","92694.9631968"
"Blocked","Male","tile","18","M_tile.wav","None","720.799870789","321","92684.9646559","84950.6893242","85717.6500526","86484.9610697","87251.4478406","88000.9052483","88767.8143452","89534.1629176","93451.60292","94218.3463019","80350.9738222","81117.611777","81884.524893","82650.9788926","83417.5933506","84183.9332664","93461.2409691"
"Blocked","Male","tile","18","M_jolt.wav","space","511.46369474","321","92684.9646559","84950.6893242","85717.6500526","86484.9610697","87251.4478406","88000.9052483","88767.8143452","89534.1629176","93451.60292","94218.3463019","94985.2662198","81117.611777","81884.524893","82650.9788926","83417.5933506","84183.9332664","94228.3154717"
"Blocked","Male","tile","18","M_tile.wav","None","717.990756966","321","92684.9646559","84950.6893242","85717.6500526","86484.9610697","87251.4478406","88000.9052483","88767.8143452","89534.1629176","93451.60292","94218.3463019","94985.2662198","95734.3557156","81884.524893","82650.9788926","83417.5933506","84183.9332664","94994.7685436"
"Blocked","Male","tile","18","M_lash.wav","space","428.099856712","321","92684.9646559","84950.6893242","85717.6500526","86484.9610697","87251.4478406","88000.9052483","88767.8143452","89534.1629176","93451.60292","94218.3463019","94985.2662198","95734.3557156","96500.9636814","82650.9788926","83417.5933506","84183.9332664","95743.647804"
"Blocked","Male","tile","18","M_park.wav","None","738.091100939","321","92684.9646559","84950.6893242","85717.6500526","86484.9610697","87251.4478406","88000.9052483","88767.8143452","89534.1629176","93451.60292","94218.3463019","94985.2662198","95734.3557156","96500.9636814","97267.7552938","83417.5933506","84183.9332664","96505.2017765"
"Blocked","Male","tile","18","M_knife.wav","None","731.291227974","321","92684.9646559","84950.6893242","85717.6500526","86484.9610697","87251.4478406","88000.9052483","88767.8143452","89534.1629176","93451.60292","94218.3463019","94985.2662198","95734.3557156","96500.9636814","97267.7552938","98034.3802636","84183.9332664","97277.1327128"
"Blocked","Male","tile","18","M_dime.wav","None","730.989169329","321","92684.9646559","84950.6893242","85717.6500526","86484.9610697","87251.4478406","88000.9052483","88767.8143452","89534.1629176","93451.60292","94218.3463019","94985.2662198","95734.3557156","96500.9636814","97267.7552938","98034.3802636","98800.9152655","98043.5653795"
"Blocked","Male","tile","18","M_tile.wav","None","729.570081457","321","92684.9646559","99567.6317494","85717.6500526","86484.9610697","87251.4478406","88000.9052483","88767.8143452","89534.1629176","93451.60292","94218.3463019","94985.2662198","95734.3557156","96500.9636814","97267.7552938","98034.3802636","98800.9152655","98810.2784627"
"Blocked","Male","tile","18","M_priest.wav","space","450.472596567","321","92684.9646559","99567.6317494","100334.400483","86484.9610697","87251.4478406","88000.9052483","88767.8143452","89534.1629176","93451.60292","94218.3463019","94985.2662198","95734.3557156","96500.9636814","97267.7552938","98034.3802636","98800.9152655","99577.1087212"
"Blocked","Male","tile","18","M_cling.wav","None","727.061171085","321","92684.9646559","99567.6317494","100334.400483","101100.980933","87251.4478406","88000.9052483","88767.8143452","89534.1629176","93451.60292","94218.3463019","94985.2662198","95734.3557156","96500.9636814","97267.7552938","98034.3802636","98800.9152655","100343.285087"
"Blocked","Male","tile","18","M_greet.wav","None","725.70329858","321","92684.9646559","99567.6317494","100334.400483","101100.980933","101867.967013","88000.9052483","88767.8143452","89534.1629176","93451.60292","94218.3463019","94985.2662198","95734.3557156","96500.9636814","97267.7552938","98034.3802636","98800.9152655","101109.969417"
"Blocked","Male","tile","18","M_knife.wav","None","722.93715924","321","92684.9646559","99567.6317494","100334.400483","101100.980933","101867.967013","102634.606823","88767.8143452","89534.1629176","93451.60292","94218.3463019","94985.2662198","95734.3557156","96500.9636814","97267.7552938","98034.3802636","98800.9152655","101878.10839"
"Blocked","Male","tile","18","M_tile.wav","None","722.55719034","321","92684.9646559","99567.6317494","100334.400483","101100.980933","101867.967013","102634.606823","103401.201185","89534.1629176","93451.60292","94218.3463019","94985.2662198","95734.3557156","96500.9636814","97267.7552938","98034.3802636","98800.9152655","102644.057206"
"Blocked","Male","tile","18","M_jolt.wav","space","328.565218486","321","92684.9646559","99567.6317494","100334.400483","101100.980933","101867.967013","102634.606823","103401.201185","104168.057723","93451.60292","94218.3463019","94985.2662198","95734.3557156","96500.9636814","97267.7552938","98034.3802636","98800.9152655","103410.928585"
"Blocked","Male","ball","2","M_depth.wav","None","719.350484665","321","107284.529902","99567.6317494","100334.400483","101100.980933","101867.967013","102634.606823","103401.201185","104168.057723","93451.60292","94218.3463019","94985.2662198","95734.3557156","96500.9636814","97267.7552938","98034.3802636","98800.9152655","104177.624045"
"Blocked","Male","ball","2","M_ball.wav","None","721.745620482","321","107284.529902","99567.6317494","100334.400483","101100.980933","101867.967013","102634.606823","103401.201185","104168.057723","108051.071396","94218.3463019","94985.2662198","95734.3557156","96500.9636814","97267.7552938","98034.3802636","98800.9152655","107293.953078"
"Blocked","Male","ball","2","M_dime.wav","space","398.177199066","321","107284.529902","99567.6317494","100334.400483","101100.980933","101867.967013","102634.606823","103401.201185","104168.057723","108051.071396","108817.159957","94985.2662198","95734.3557156","96500.9636814","97267.7552938","98034.3802636","98800.9152655","108061.19144"
"Blocked","Male","ball","2","M_reek.wav","None","720.558409579","321","107284.529902","99567.6317494","100334.400483","101100.980933","101867.967013","102634.606823","103401.201185","104168.057723","108051.071396","108817.159957","109567.212825","95734.3557156","96500.9636814","97267.7552938","98034.3802636","98800.9152655","108826.142567"
"Blocked","Male","ball","2","M_bluff.wav","None","735.591466073","321","107284.529902","99567.6317494","100334.400483","101100.980933","101867.967013","102634.606823","103401.201185","104168.057723","108051.071396","108817.159957","109567.212825","110333.896537","96500.9636814","97267.7552938","98034.3802636","98800.9152655","109576.510478"
"Blocked","Male","ball","2","M_dime.wav","None","734.477528371","321","107284.529902","99567.6317494","100334.400483","101100.980933","101867.967013","102634.606823","103401.201185","104168.057723","108051.071396","108817.159957","109567.212825","110333.896537","111100.513469","97267.7552938","98034.3802636","98800.9152655","110342.987975"
"Blocked","Male","ball","2","M_ball.wav","None","732.667031698","321","107284.529902","99567.6317494","100334.400483","101100.980933","101867.967013","102634.606823","103401.201185","104168.057723","108051.071396","108817.159957","109567.212825","110333.896537","111100.513469","111867.304463","98034.3802636","98800.9152655","111110.208096"
"Blocked","Male","ball","2","M_cad.wav","space","477.845224552","321","107284.529902","99567.6317494","100334.400483","101100.980933","101867.967013","102634.606823","103401.201185","104168.057723","108051.071396","108817.159957","109567.212825","110333.896537","111100.513469","111867.304463","112634.013836","98800.9152655","111877.397919"
"Blocked","Male","ball","2","M_jaw.wav","None","729.953451082","321","107284.529902","99567.6317494","100334.400483","101100.980933","101867.967013","102634.606823","103401.201185","104168.057723","108051.071396","108817.159957","109567.212825","110333.896537","111100.513469","111867.304463","112634.013836","113400.550074","112643.335296"
"Blocked","Male","ball","2","M_depth.wav","None","728.208189365","321","107284.529902","114167.30335","100334.400483","101100.980933","101867.967013","102634.606823","103401.201185","104168.057723","108051.071396","108817.159957","109567.212825","110333.896537","111100.513469","111867.304463","112634.013836","113400.550074","113409.898123"
"Blocked","Male","ball","2","M_ball.wav","None","726.905658841","321","107284.529902","114167.30335","114933.390983","101100.980933","101867.967013","102634.606823","103401.201185","104168.057723","108051.071396","108817.159957","109567.212825","110333.896537","111100.513469","111867.304463","112634.013836","113400.550074","114176.740129"
"Blocked","Male","ball","2","M_reek.wav","space","476.602982264","321","107284.529902","114167.30335","114933.390983","115700.431168","101867.967013","102634.606823","103401.201185","104168.057723","108051.071396","108817.159957","109567.212825","110333.896537","111100.513469","111867.304463","112634.013836","113400.550074","114942.577336"
"Blocked","Male","ball","2","M_depth.wav","None","724.561535753","321","107284.529902","114167.30335","114933.390983","115700.431168","116467.61017","102634.606823","103401.201185","104168.057723","108051.071396","108817.159957","109567.212825","110333.896537","111100.513469","111867.304463","112634.013836","113400.550074","115710.031498"
"Blocked","Male","ball","2","M_gnash.wav","None","722.653032746","321","107284.529902","114167.30335","114933.390983","115700.431168","116467.61017","117233.758091","103401.201185","104168.057723","108051.071396","108817.159957","109567.212825","110333.896537","111100.513469","111867.304463","112634.013836","113400.550074","116477.267078"
"Blocked","Male","ball","2","M_ball.wav","None","722.747020423","321","107284.529902","114167.30335","114933.390983","115700.431168","116467.61017","117233.758091","118000.854544","104168.057723","108051.071396","108817.159957","109567.212825","110333.896537","111100.513469","111867.304463","112634.013836","113400.550074","117242.655988"
"Blocked","Male","ball","2","M_cling.wav","space","367.894049268","321","107284.529902","114167.30335","114933.390983","115700.431168","116467.61017","117233.758091","118000.854544","118750.642145","108051.071396","108817.159957","109567.212825","110333.896537","111100.513469","111867.304463","112634.013836","113400.550074","118011.152361"
"Blocked","Male","done","23","M_priest.wav","None","736.28091393","321","121883.640668","114167.30335","114933.390983","115700.431168","116467.61017","117233.758091","118000.854544","118750.642145","108051.071396","108817.159957","109567.212825","110333.896537","111100.513469","111867.304463","112634.013836","113400.550074","118759.482228"
"Blocked","Male","done","23","M_done.wav","None","722.122807056","321","121883.640668","114167.30335","114933.390983","115700.431168","116467.61017","117233.758091","118000.854544","118750.642145","122650.741141","108817.159957","109567.212825","110333.896537","111100.513469","111867.304463","112634.013836","113400.550074","121893.02829"
"Blocked","Male","done","23","M_reek.wav","space","382.411719766","321","121883.640668","114167.30335","114933.390983","115700.431168","116467.61017","117233.758091","118000.854544","118750.642145","122650.741141","123400.656429","109567.212825","110333.896537","111100.513469","111867.304463","112634.013836","113400.550074","122660.497602"
"Blocked","Male","done","23","M_done.wav","None","735.383085907","321","121883.640668","114167.30335","114933.390983","115700.431168","116467.61017","117233.758091","118000.854544","118750.642145","122650.741141","123400.656429","124166.758284","110333.896537","111100.513469","111867.304463","112634.013836","113400.550074","123410.171428"
"Blocked","Male","done","23","M_jaw.wav","space","266.838296782","321","121883.640668","114167.30335","114933.390983","115700.431168","116467.61017","117233.758091","118000.854544","118750.642145","122650.741141","123400.656429","124166.758284","124933.571847","111100.513469","111867.304463","112634.013836","113400.550074","124176.028731"
"Blocked","Male","done","23","M_done.wav","None","732.627767604","321","121883.640668","114167.30335","114933.390983","115700.431168","116467.61017","117233.758091","118000.854544","118750.642145","122650.741141","123400.656429","124166.758284","124933.571847","125699.784695","111867.304463","112634.013836","113400.550074","124943.430025"
"Blocked","Male","done","23","M_depth.wav","space","286.152732093","321","121883.640668","114167.30335","114933.390983","115700.431168","116467.61017","117233.758091","118000.854544","118750.642145","122650.741141","123400.656429","124166.758284","124933.571847","125699.784695","126466.921649","112634.013836","113400.550074","125708.686302"
"Blocked","Male","done","23","M_priest.wav","None","730.420915876","321","121883.640668","114167.30335","114933.390983","115700.431168","116467.61017","117233.758091","118000.854544","118750.642145","122650.741141","123400.656429","124166.758284","124933.571847","125699.784695","126466.921649","127233.503644","113400.550074","126476.360593"
"Blocked","Male","done","23","M_knife.wav","space","172.523367219","321","121883.640668","114167.30335","114933.390983","115700.431168","116467.61017","117233.758091","118000.854544","118750.642145","122650.741141","123400.656429","124166.758284","124933.571847","125699.784695","126466.921649","127233.503644","128000.082239","127237.325907"
"Blocked","Male","done","23","M_dime.wav","None","727.714446373","321","121883.640668","128766.782647","114933.390983","115700.431168","116467.61017","117233.758091","118000.854544","118750.642145","122650.741141","123400.656429","124166.758284","124933.571847","125699.784695","126466.921649","127233.503644","128000.082239","128009.618262"
"Blocked","Male","done","23","M_gnash.wav","None","726.497245952","321","121883.640668","128766.782647","129533.414418","115700.431168","116467.61017","117233.758091","118000.854544","118750.642145","122650.741141","123400.656429","124166.758284","124933.571847","125699.784695","126466.921649","127233.503644","128000.082239","128776.142443"
"Blocked","Male","done","23","M_done.wav","None","725.574684329","321","121883.640668","128766.782647","129533.414418","130299.693118","116467.61017","117233.758091","118000.854544","118750.642145","122650.741141","123400.656429","124166.758284","124933.571847","125699.784695","126466.921649","127233.503644","128000.082239","129542.627359"
"Blocked","Male","done","23","M_bluff.wav","space","454.194996972","321","121883.640668","128766.782647","129533.414418","130299.693118","131066.786171","117233.758091","118000.854544","118750.642145","122650.741141","123400.656429","124166.758284","124933.571847","125699.784695","126466.921649","127233.503644","128000.082239","130308.49641"
"Blocked","Male","done","23","M_bluff.wav","None","722.871615086","321","121883.640668","128766.782647","129533.414418","130299.693118","131066.786171","131833.345906","118000.854544","118750.642145","122650.741141","123400.656429","124166.758284","124933.571847","125699.784695","126466.921649","127233.503644","128000.082239","131075.703237"
"Blocked","Male","done","23","M_greet.wav","None","721.707901452","321","121883.640668","128766.782647","129533.414418","130299.693118","131066.786171","131833.345906","132600.208318","118750.642145","122650.741141","123400.656429","124166.758284","124933.571847","125699.784695","126466.921649","127233.503644","128000.082239","131842.3718"
"Blocked","Male","done","23","M_bluff.wav","None","719.618534204","321","121883.640668","128766.782647","129533.414418","130299.693118","131066.786171","131833.345906","132600.208318","133349.538348","122650.741141","123400.656429","124166.758284","124933.571847","125699.784695","126466.921649","127233.503644","128000.082239","132609.909747"
"Blocked","Male","done","22","M_priest.wav","None","737.016736995","321","136483.893198","128766.782647","129533.414418","130299.693118","131066.786171","131833.345906","132600.208318","133349.538348","122650.741141","123400.656429","124166.758284","124933.571847","125699.784695","126466.921649","127233.503644","128000.082239","133358.2897"
"Blocked","Male","done","22","M_depth.wav","None","720.82893271","321","136483.893198","128766.782647","129533.414418","130299.693118","131066.786171","131833.345906","132600.208318","133349.538348","137249.75421","123400.656429","124166.758284","124933.571847","125699.784695","126466.921649","127233.503644","128000.082239","136494.060854"
"Blocked","Male","done","22","M_done.wav","None","722.065610811","321","136483.893198","128766.782647","129533.414418","130299.693118","131066.786171","131833.345906","132600.208318","133349.538348","137249.75421","138016.265406","124166.758284","124933.571847","125699.784695","126466.921649","127233.503644","128000.082239","137258.65489"
"Blocked","Male","done","22","M_lash.wav","None","720.729689579","321","136483.893198","128766.782647","129533.414418","130299.693118","131066.786171","131833.345906","132600.208318","133349.538348","137249.75421","138016.265406","138782.74012","124933.571847","125699.784695","126466.921649","127233.503644","128000.082239","138025.441556"
"Blocked","Male","done","22","M_cling.wav","space","0.0485396012664","321","136483.893198","128766.782647","129533.414418","130299.693118","131066.786171","131833.345906","132600.208318","133349.538348","137249.75421","138016.265406","138782.74012","139533.167392","125699.784695","126466.921649","127233.503644","128000.082239","138791.567217"
"Blocked","Male","done","22","M_done.wav","None","735.533650964","321","136483.893198","128766.782647","129533.414418","130299.693118","131066.786171","131833.345906","132600.208318","133349.538348","137249.75421","138016.265406","138782.74012","139533.167392","140299.590165","126466.921649","127233.503644","128000.082239","139542.455152"
"Blocked","Male","done","22","M_lash.wav","space","437.39720108","321","136483.893198","128766.782647","129533.414418","130299.693118","131066.786171","131833.345906","132600.208318","133349.538348","137249.75421","138016.265406","138782.74012","139533.167392","140299.590165","141066.057459","127233.503644","128000.082239","140308.996955"
"Blocked","Male","done","22","M_depth.wav","None","733.190146741","321","136483.893198","128766.782647","129533.414418","130299.693118","131066.786171","131833.345906","132600.208318","133349.538348","137249.75421","138016.265406","138782.74012","139533.167392","140299.590165","141066.057459","141832.587514","128000.082239","141075.302553"
"Blocked","Male","done","22","M_cling.wav","None","732.418459374","321","136483.893198","128766.782647","129533.414418","130299.693118","131066.786171","131833.345906","132600.208318","133349.538348","137249.75421","138016.265406","138782.74012","139533.167392","140299.590165","141066.057459","141832.587514","142599.308635","141841.588674"
"Blocked","Male","done","22","M_dime.wav","None","730.982985813","321","136483.893198","143366.350057","129533.414418","130299.693118","131066.786171","131833.345906","132600.208318","133349.538348","137249.75421","138016.265406","138782.74012","139533.167392","140299.590165","141066.057459","141832.587514","142599.308635","142608.42728"
"Blocked","Male","done","22","M_done.wav","None","729.539164342","321","136483.893198","143366.350057","144132.514055","130299.693118","131066.786171","131833.345906","132600.208318","133349.538348","137249.75421","138016.265406","138782.74012","139533.167392","140299.590165","141066.057459","141832.587514","142599.308635","143375.439021"
"Blocked","Male","done","22","M_knife.wav","space","596.959256567","321","136483.893198","143366.350057","144132.514055","144899.651937","131066.786171","131833.345906","132600.208318","133349.538348","137249.75421","138016.265406","138782.74012","139533.167392","140299.590165","141066.057459","141832.587514","142599.308635","144141.290758"
"Blocked","Male","done","22","M_done.wav","None","725.835932419","321","136483.893198","143366.350057","144132.514055","144899.651937","145666.279071","131833.345906","132600.208318","133349.538348","137249.75421","138016.265406","138782.74012","139533.167392","140299.590165","141066.057459","141832.587514","142599.308635","144909.364496"
"Blocked","Male","done","22","M_depth.wav","space","590.50750779","321","136483.893198","143366.350057","144132.514055","144899.651937","145666.279071","146433.479715","132600.208318","133349.538348","137249.75421","138016.265406","138782.74012","139533.167392","140299.590165","141066.057459","141832.587514","142599.308635","145675.73502"
"Blocked","Male","done","22","M_priest.wav","None","722.439087462","321","136483.893198","143366.350057","144132.514055","144899.651937","145666.279071","146433.479715","147199.44399","133349.538348","137249.75421","138016.265406","138782.74012","139533.167392","140299.590165","141066.057459","141832.587514","142599.308635","146443.511027"
"Blocked","Male","done","22","M_greet.wav","None","723.199334927","321","136483.893198","143366.350057","144132.514055","144899.651937","145666.279071","146433.479715","147199.44399","147966.754698","137249.75421","138016.265406","138782.74012","139533.167392","140299.590165","141066.057459","141832.587514","142599.308635","147208.348071"
"Blocked","Male","ball","3","M_depth.wav","None","720.123408362","321","151082.568345","143366.350057","144132.514055","144899.651937","145666.279071","146433.479715","147199.44399","147966.754698","137249.75421","138016.265406","138782.74012","139533.167392","140299.590165","141066.057459","141832.587514","142599.308635","147977.007376"
"Blocked","Male","ball","3","M_ball.wav","None","722.984153312","321","151082.568345","143366.350057","144132.514055","144899.651937","145666.279071","146433.479715","147199.44399","147966.754698","151849.854938","138016.265406","138782.74012","139533.167392","140299.590165","141066.057459","141832.587514","142599.308635","151091.475827"
"Blocked","Male","ball","3","M_greet.wav","space","382.176441606","321","151082.568345","143366.350057","144132.514055","144899.651937","145666.279071","146433.479715","147199.44399","147966.754698","151849.854938","152616.449918","138782.74012","139533.167392","140299.590165","141066.057459","141832.587514","142599.308635","151859.872338"
"Blocked","Male","ball","3","M_ball.wav","None","718.371962663","321","151082.568345","143366.350057","144132.514055","144899.651937","145666.279071","146433.479715","147199.44399","147966.754698","151849.854938","152616.449918","153365.899288","139533.167392","140299.590165","141066.057459","141832.587514","142599.308635","152626.552959"
"Blocked","Male","ball","3","M_bluff.wav","space","378.780833445","321","151082.568345","143366.350057","144132.514055","144899.651937","145666.279071","146433.479715","147199.44399","147966.754698","151849.854938","152616.449918","153365.899288","154132.66864","140299.590165","141066.057459","141832.587514","142599.308635","153375.207453"
"Blocked","Male","ball","3","M_greet.wav","None","733.807867393","321","151082.568345","143366.350057","144132.514055","144899.651937","145666.279071","146433.479715","147199.44399","147966.754698","151849.854938","152616.449918","153365.899288","154132.66864","154899.211989","141066.057459","141832.587514","142599.308635","154141.88931"
"Blocked","Male","ball","3","M_gnash.wav","None","732.01561207","321","151082.568345","143366.350057","144132.514055","144899.651937","145666.279071","146433.479715","147199.44399","147966.754698","151849.854938","152616.449918","153365.899288","154132.66864","154899.211989","155666.006384","141832.587514","142599.308635","154909.228152"
"Blocked","Male","ball","3","M_romp.wav","None","730.899509974","321","151082.568345","143366.350057","144132.514055","144899.651937","145666.279071","146433.479715","147199.44399","147966.754698","151849.854938","152616.449918","153365.899288","154132.66864","154899.211989","155666.006384","156432.703081","142599.308635","155675.760681"
"Blocked","Male","ball","3","M_romp.wav","None","730.308687314","321","151082.568345","143366.350057","144132.514055","144899.651937","145666.279071","146433.479715","147199.44399","147966.754698","151849.854938","152616.449918","153365.899288","154132.66864","154899.211989","155666.006384","156432.703081","157199.162337","156442.118219"
"Blocked","Male","ball","3","M_jolt.wav","None","730.131532997","321","151082.568345","157965.577689","144132.514055","144899.651937","145666.279071","146433.479715","147199.44399","147966.754698","151849.854938","152616.449918","153365.899288","154132.66864","154899.211989","155666.006384","156432.703081","157199.162337","157208.598498"
"Blocked","Male","ball","3","M_ball.wav","None","729.96241739","321","151082.568345","157965.577689","158732.061678","144899.651937","145666.279071","146433.479715","147199.44399","147966.754698","151849.854938","152616.449918","153365.899288","154132.66864","154899.211989","155666.006384","156432.703081","157199.162337","157974.849682"
"Blocked","Male","ball","3","M_park.wav","space","524.968217127","321","151082.568345","157965.577689","158732.061678","159498.902448","145666.279071","146433.479715","147199.44399","147966.754698","151849.854938","152616.449918","153365.899288","154132.66864","154899.211989","155666.006384","156432.703081","157199.162337","158740.879501"
"Blocked","Male","ball","3","M_ball.wav","None","727.94725094","321","151082.568345","157965.577689","158732.061678","159498.902448","160265.847718","146433.479715","147199.44399","147966.754698","151849.854938","152616.449918","153365.899288","154132.66864","154899.211989","155666.006384","156432.703081","157199.162337","159508.33861"
"Blocked","Male","ball","3","M_romp.wav","space","598.508195486","321","151082.568345","157965.577689","158732.061678","159498.902448","160265.847718","161032.36417","147199.44399","147966.754698","151849.854938","152616.449918","153365.899288","154132.66864","154899.211989","155666.006384","156432.703081","157199.162337","160275.260692"
"Blocked","Male","ball","3","M_jaw.wav","None","725.465856493","321","151082.568345","157965.577689","158732.061678","159498.902448","160265.847718","161032.36417","161799.503597","147966.754698","151849.854938","152616.449918","153365.899288","154132.66864","154899.211989","155666.006384","156432.703081","157199.162337","161041.777143"
"Blocked","Male","ball","3","M_priest.wav","None","722.866668832","321","151082.568345","157965.577689","158732.061678","159498.902448","160265.847718","161032.36417","161799.503597","162566.092395","151849.854938","152616.449918","153365.899288","154132.66864","154899.211989","155666.006384","156432.703081","157199.162337","161809.931266"
"Blocked","Male","cave","11","M_jolt.wav","None","722.338298336","321","165699.413382","157965.577689","158732.061678","159498.902448","160265.847718","161032.36417","161799.503597","162566.092395","151849.854938","152616.449918","153365.899288","154132.66864","154899.211989","155666.006384","156432.703081","157199.162337","162576.010551"
"Blocked","Male","cave","11","M_reek.wav","None","722.032529768","321","165699.413382","157965.577689","158732.061678","159498.902448","160265.847718","161032.36417","161799.503597","162566.092395","166466.071124","152616.449918","153365.899288","154132.66864","154899.211989","155666.006384","156432.703081","157199.162337","165709.083894"
"Blocked","Male","cave","11","M_jolt.wav","None","720.572322141","321","165699.413382","157965.577689","158732.061678","159498.902448","160265.847718","161032.36417","161799.503597","162566.092395","166466.071124","167232.703205","153365.899288","154132.66864","154899.211989","155666.006384","156432.703081","157199.162337","166476.103673"
"Blocked","Male","cave","11","M_bluff.wav","None","725.770079531","321","165699.413382","157965.577689","158732.061678","159498.902448","160265.847718","161032.36417","161799.503597","162566.092395","166466.071124","167232.703205","167998.795785","154132.66864","154899.211989","155666.006384","156432.703081","157199.162337","167237.450193"
"Blocked","Male","cave","11","M_gnash.wav","None","720.94147047","321","165699.413382","157965.577689","158732.061678","159498.902448","160265.847718","161032.36417","161799.503597","162566.092395","166466.071124","167232.703205","167998.795785","168766.009414","154899.211989","155666.006384","156432.703081","157199.162337","168007.931124"
"Blocked","Male","cave","11","M_cave.wav","None","719.215068035","321","165699.413382","157965.577689","158732.061678","159498.902448","160265.847718","161032.36417","161799.503597","162566.092395","166466.071124","167232.703205","167998.795785","168766.009414","169515.290595","155666.006384","156432.703081","157199.162337","168775.833892"
"Blocked","Male","cave","11","M_dime.wav","space","509.190062527","321","165699.413382","157965.577689","158732.061678","159498.902448","160265.847718","161032.36417","161799.503597","162566.092395","166466.071124","167232.703205","167998.795785","168766.009414","169515.290595","170282.040778","156432.703081","157199.162337","169524.2899"
"Blocked","Male","cave","11","M_depth.wav","None","734.778968617","321","165699.413382","157965.577689","158732.061678","159498.902448","160265.847718","161032.36417","161799.503597","162566.092395","166466.071124","167232.703205","167998.795785","168766.009414","169515.290595","170282.040778","171048.33741","157199.162337","170291.130361"
"Blocked","Male","cave","11","M_park.wav","None","734.971271828","321","165699.413382","157965.577689","158732.061678","159498.902448","160265.847718","161032.36417","161799.503597","162566.092395","166466.071124","167232.703205","167998.795785","168766.009414","169515.290595","170282.040778","171048.33741","171815.554749","171057.423592"
"Blocked","Male","cave","11","M_cave.wav","None","733.019485138","321","165699.413382","172582.190849","158732.061678","159498.902448","160265.847718","161032.36417","161799.503597","162566.092395","166466.071124","167232.703205","167998.795785","168766.009414","169515.290595","170282.040778","171048.33741","171815.554749","171824.992456"
"Blocked","Male","cave","11","M_jolt.wav","space","497.774598189","321","165699.413382","172582.190849","173348.651341","159498.902448","160265.847718","161032.36417","161799.503597","162566.092395","166466.071124","167232.703205","167998.795785","168766.009414","169515.290595","170282.040778","171048.33741","171815.554749","172591.637832"
"Blocked","Male","cave","11","M_priest.wav","None","735.751925036","321","165699.413382","172582.190849","173348.651341","174115.408017","160265.847718","161032.36417","161799.503597","162566.092395","166466.071124","167232.703205","167998.795785","168766.009414","169515.290595","170282.040778","171048.33741","171815.554749","173352.827602"
"Blocked","Male","cave","11","M_cave.wav","None","729.25565578","321","165699.413382","172582.190849","173348.651341","174115.408017","174882.032987","161032.36417","161799.503597","162566.092395","166466.071124","167232.703205","167998.795785","168766.009414","169515.290595","170282.040778","171048.33741","171815.554749","174124.920235"
"Blocked","Male","cave","11","M_bluff.wav","space","381.771429908","321","165699.413382","172582.190849","173348.651341","174115.408017","174882.032987","175648.628586","161799.503597","162566.092395","166466.071124","167232.703205","167998.795785","168766.009414","169515.290595","170282.040778","171048.33741","171815.554749","174891.56932"
"Blocked","Male","cave","11","M_cave.wav","None","726.763131563","321","165699.413382","172582.190849","173348.651341","174115.408017","174882.032987","175648.628586","176415.380007","162566.092395","166466.071124","167232.703205","167998.795785","168766.009414","169515.290595","170282.040778","171048.33741","171815.554749","175658.083916"
"Blocked","Male","cave","11","M_romp.wav","space","464.576289523","321","165699.413382","172582.190849","173348.651341","174115.408017","174882.032987","175648.628586","176415.380007","177182.30889","166466.071124","167232.703205","167998.795785","168766.009414","169515.290595","170282.040778","171048.33741","171815.554749","176424.751861"
"Blocked","Male","tile","15","M_greet.wav","None","723.569101654","321","180315.593705","172582.190849","173348.651341","174115.408017","174882.032987","175648.628586","176415.380007","177182.30889","166466.071124","167232.703205","167998.795785","168766.009414","169515.290595","170282.040778","171048.33741","171815.554749","177191.828218"
"Blocked","Male","tile","15","M_gnash.wav","None","721.465203445","321","180315.593705","172582.190849","173348.651341","174115.408017","174882.032987","175648.628586","176415.380007","177182.30889","181081.689376","167232.703205","167998.795785","168766.009414","169515.290595","170282.040778","171048.33741","171815.554749","180325.40056"
"Blocked","Male","tile","15","M_tile.wav","None","727.509466931","321","180315.593705","172582.190849","173348.651341","174115.408017","174882.032987","175648.628586","176415.380007","177182.30889","181081.689376","181848.313109","167998.795785","168766.009414","169515.290595","170282.040778","171048.33741","171815.554749","181085.277597"
"Blocked","Male","tile","15","M_jaw.wav","space","519.766441081","321","180315.593705","172582.190849","173348.651341","174115.408017","174882.032987","175648.628586","176415.380007","177182.30889","181081.689376","181848.313109","182615.540342","168766.009414","169515.290595","170282.040778","171048.33741","171815.554749","181857.3625"
"Blocked","Male","tile","15","M_romp.wav","None","718.240566086","321","180315.593705","172582.190849","173348.651341","174115.408017","174882.032987","175648.628586","176415.380007","177182.30889","181081.689376","181848.313109","182615.540342","183365.03083","169515.290595","170282.040778","171048.33741","171815.554749","182625.661623"
"Blocked","Male","tile","15","M_cling.wav","None","735.282605514","321","180315.593705","172582.190849","173348.651341","174115.408017","174882.032987","175648.628586","176415.380007","177182.30889","181081.689376","181848.313109","182615.540342","183365.03083","184131.644052","170282.040778","171048.33741","171815.554749","183374.585404"
"Blocked","Male","tile","15","M_priest.wav","None","734.690546058","321","180315.593705","172582.190849","173348.651341","174115.408017","174882.032987","175648.628586","176415.380007","177182.30889","181081.689376","181848.313109","182615.540342","183365.03083","184131.644052","184898.256655","171048.33741","171815.554749","184141.116386"
"Blocked","Male","tile","15","M_cad.wav","None","733.731193468","321","180315.593705","172582.190849","173348.651341","174115.408017","174882.032987","175648.628586","176415.380007","177182.30889","181081.689376","181848.313109","182615.540342","183365.03083","184131.644052","184898.256655","185665.096498","171815.554749","184907.97447"
"Blocked","Male","tile","15","M_tile.wav","None","733.068952337","321","180315.593705","172582.190849","173348.651341","174115.408017","174882.032987","175648.628586","176415.380007","177182.30889","181081.689376","181848.313109","182615.540342","183365.03083","184131.644052","184898.256655","185665.096498","186431.275027","185674.577489"
"Blocked","Male","tile","15","M_cling.wav","space","496.897793841","321","180315.593705","187198.24503","173348.651341","174115.408017","174882.032987","175648.628586","176415.380007","177182.30889","181081.689376","181848.313109","182615.540342","183365.03083","184131.644052","184898.256655","185665.096498","186431.275027","186440.089758"
"Blocked","Male","tile","15","M_priest.wav","None","731.020085979","321","180315.593705","187198.24503","187964.983466","174115.408017","174882.032987","175648.628586","176415.380007","177182.30889","181081.689376","181848.313109","182615.540342","183365.03083","184131.644052","184898.256655","185665.096498","186431.275027","187207.645637"
"Blocked","Male","tile","15","M_jolt.wav","None","729.921607301","321","180315.593705","187198.24503","187964.983466","188731.602562","174882.032987","175648.628586","176415.380007","177182.30889","181081.689376","181848.313109","182615.540342","183365.03083","184131.644052","184898.256655","185665.096498","186431.275027","187974.503103"
"Blocked","Male","tile","15","M_tile.wav","None","734.398999251","321","180315.593705","187198.24503","187964.983466","188731.602562","189497.855291","175648.628586","176415.380007","177182.30889","181081.689376","181848.313109","182615.540342","183365.03083","184131.644052","184898.256655","185665.096498","186431.275027","188736.096649"
"Blocked","Male","tile","15","M_knife.wav","space","453.88211729","321","180315.593705","187198.24503","187964.983466","188731.602562","189497.855291","190264.956073","176415.380007","177182.30889","181081.689376","181848.313109","182615.540342","183365.03083","184131.644052","184898.256655","185665.096498","186431.275027","189507.02093"
"Blocked","Male","tile","15","M_tile.wav","None","727.65694093","321","180315.593705","187198.24503","187964.983466","188731.602562","189497.855291","190264.956073","191031.610105","177182.30889","181081.689376","181848.313109","182615.540342","183365.03083","184131.644052","184898.256655","185665.096498","186431.275027","190273.998043"
"Blocked","Male","tile","15","M_cling.wav","space","455.8629659","321","180315.593705","187198.24503","187964.983466","188731.602562","189497.855291","190264.956073","191031.610105","191797.845522","181081.689376","181848.313109","182615.540342","183365.03083","184131.644052","184898.256655","185665.096498","186431.275027","191040.996491"
"Blocked","Male","done","19","M_romp.wav","None","726.492608432","321","194931.687769","187198.24503","187964.983466","188731.602562","189497.855291","190264.956073","191031.610105","191797.845522","181081.689376","181848.313109","182615.540342","183365.03083","184131.644052","184898.256655","185665.096498","186431.275027","191806.999411"
"Blocked","Male","done","19","M_done.wav","None","719.852266368","321","194931.687769","187198.24503","187964.983466","188731.602562","189497.855291","190264.956073","191031.610105","191797.845522","195698.361896","181848.313109","182615.540342","183365.03083","184131.644052","184898.256655","185665.096498","186431.275027","194943.449812"
"Blocked","Male","done","19","M_bluff.wav","space","452.764469665","321","194931.687769","187198.24503","187964.983466","188731.602562","189497.855291","190264.956073","191031.610105","191797.845522","195698.361896","196465.13805","182615.540342","183365.03083","184131.644052","184898.256655","185665.096498","186431.275027","195707.943677"
"Blocked","Male","done","19","M_cad.wav","None","719.483118504","321","194931.687769","187198.24503","187964.983466","188731.602562","189497.855291","190264.956073","191031.610105","191797.845522","195698.361896","196465.13805","197231.93832","183365.03083","184131.644052","184898.256655","185665.096498","186431.275027","196474.911516"
"Blocked","Male","done","19","M_jolt.wav","None","718.493157066","321","194931.687769","187198.24503","187964.983466","188731.602562","189497.855291","190264.956073","191031.610105","191797.845522","195698.361896","196465.13805","197231.93832","197981.226921","184131.644052","184898.256655","185665.096498","186431.275027","197241.828651"
"Blocked","Male","done","19","M_bluff.wav","None","735.273948871","321","194931.687769","187198.24503","187964.983466","188731.602562","189497.855291","190264.956073","191031.610105","191797.845522","195698.361896","196465.13805","197231.93832","197981.226921","198747.48738","184898.256655","185665.096498","186431.275027","197990.8761"
"Blocked","Male","done","19","M_jaw.wav","space","435.982441995","321","194931.687769","187198.24503","187964.983466","188731.602562","189497.855291","190264.956073","191031.610105","191797.845522","195698.361896","196465.13805","197231.93832","197981.226921","198747.48738","199514.718013","185665.096498","186431.275027","198756.642506"
"Blocked","Male","done","19","M_romp.wav","None","732.720827218","321","194931.687769","187198.24503","187964.983466","188731.602562","189497.855291","190264.956073","191031.610105","191797.845522","195698.361896","196465.13805","197231.93832","197981.226921","198747.48738","199514.718013","200281.36277","186431.275027","199524.152629"
"Blocked","Male","done","19","M_park.wav","None","731.872775592","321","194931.687769","187198.24503","187964.983466","188731.602562","189497.855291","190264.956073","191031.610105","191797.845522","195698.361896","196465.13805","197231.93832","197981.226921","198747.48738","199514.718013","200281.36277","201047.419486","200290.807279"
"Blocked","Male","done","19","M_done.wav","None","731.903383508","321","194931.687769","201814.222229","187964.983466","188731.602562","189497.855291","190264.956073","191031.610105","191797.845522","195698.361896","196465.13805","197231.93832","197981.226921","198747.48738","199514.718013","200281.36277","201047.419486","201056.652523"
"Blocked","Male","done","19","M_depth.wav","space","553.160144947","321","194931.687769","201814.222229","202581.000856","188731.602562","189497.855291","190264.956073","191031.610105","191797.845522","195698.361896","196465.13805","197231.93832","197981.226921","198747.48738","199514.718013","200281.36277","201047.419486","201823.364061"
"Blocked","Male","done","19","M_greet.wav","None","732.905710582","321","194931.687769","201814.222229","202581.000856","203347.747639","189497.855291","190264.956073","191031.610105","191797.845522","195698.361896","196465.13805","197231.93832","197981.226921","198747.48738","199514.718013","200281.36277","201047.419486","202589.86289"
"Blocked","Male","done","19","M_done.wav","None","731.575045269","321","194931.687769","201814.222229","202581.000856","203347.747639","204114.546362","190264.956073","191031.610105","191797.845522","195698.361896","196465.13805","197231.93832","197981.226921","198747.48738","199514.718013","200281.36277","201047.419486","203357.077755"
"Blocked","Male","done","19","M_cling.wav","space","596.851974726","321","194931.687769","201814.222229","202581.000856","203347.747639","204114.546362","204881.145362","191031.610105","191797.845522","195698.361896","196465.13805","197231.93832","197981.226921","198747.48738","199514.718013","200281.36277","201047.419486","204123.590187"
"Blocked","Male","done","19","M_done.wav","None","729.357063305","321","194931.687769","201814.222229","202581.000856","203347.747639","204114.546362","204881.145362","205647.693349","191797.845522","195698.361896","196465.13805","197231.93832","197981.226921","198747.48738","199514.718013","200281.36277","201047.419486","204890.593581"
"Blocked","Male","done","19","M_cad.wav","space","599.375106394","321","194931.687769","201814.222229","202581.000856","203347.747639","204114.546362","204881.145362","205647.693349","206413.985034","195698.361896","196465.13805","197231.93832","197981.226921","198747.48738","199514.718013","200281.36277","201047.419486","205657.02903"
"Blocked","Male","ball","5","M_jolt.wav","None","728.199533187","321","209548.109862","201814.222229","202581.000856","203347.747639","204114.546362","204881.145362","205647.693349","206413.985034","195698.361896","196465.13805","197231.93832","197981.226921","198747.48738","199514.718013","200281.36277","201047.419486","206422.621992"
"Blocked","Male","ball","5","M_lash.wav","None","721.374307759","321","209548.109862","201814.222229","202581.000856","203347.747639","204114.546362","204881.145362","205647.693349","206413.985034","210314.276643","196465.13805","197231.93832","197981.226921","198747.48738","199514.718013","200281.36277","201047.419486","209557.678347"
"Blocked","Male","ball","5","M_ball.wav","None","721.873925533","321","209548.109862","201814.222229","202581.000856","203347.747639","204114.546362","204881.145362","205647.693349","206413.985034","210314.276643","211081.654749","197231.93832","197981.226921","198747.48738","199514.718013","200281.36277","201047.419486","210323.105595"
"Blocked","Male","ball","5","M_depth.wav","space","388.486899901","321","209548.109862","201814.222229","202581.000856","203347.747639","204114.546362","204881.145362","205647.693349","206413.985034","210314.276643","211081.654749","211848.056499","197981.226921","198747.48738","199514.718013","200281.36277","201047.419486","211091.786542"
"Blocked","Male","ball","5","M_ball.wav","None","718.304873444","321","209548.109862","201814.222229","202581.000856","203347.747639","204114.546362","204881.145362","205647.693349","206413.985034","210314.276643","211081.654749","211848.056499","212597.21123","198747.48738","199514.718013","200281.36277","201047.419486","211857.995988"
"Blocked","Male","ball","5","M_romp.wav","space","393.790392671","321","209548.109862","201814.222229","202581.000856","203347.747639","204114.546362","204881.145362","205647.693349","206413.985034","210314.276643","211081.654749","211848.056499","212597.21123","213364.320978","199514.718013","200281.36277","201047.419486","212606.438084"
"Blocked","Male","ball","5","M_greet.wav","None","733.715425711","321","209548.109862","201814.222229","202581.000856","203347.747639","204114.546362","204881.145362","205647.693349","206413.985034","210314.276643","211081.654749","211848.056499","212597.21123","213364.320978","214130.403973","200281.36277","201047.419486","213373.736115"
"Blocked","Male","ball","5","M_ball.wav","None","734.108379576","321","209548.109862","201814.222229","202581.000856","203347.747639","204114.546362","204881.145362","205647.693349","206413.985034","210314.276643","211081.654749","211848.056499","212597.21123","213364.320978","214130.403973","214897.456834","201047.419486","214139.500358"
"Blocked","Male","ball","5","M_reek.wav","space","556.897694245","321","209548.109862","201814.222229","202581.000856","203347.747639","204114.546362","204881.145362","205647.693349","206413.985034","210314.276643","211081.654749","211848.056499","212597.21123","213364.320978","214130.403973","214897.456834","215664.21722","214907.288114"
"Blocked","Male","ball","5","M_greet.wav","None","730.6818543","321","209548.109862","216430.877126","202581.000856","203347.747639","204114.546362","204881.145362","205647.693349","206413.985034","210314.276643","211081.654749","211848.056499","212597.21123","213364.320978","214130.403973","214897.456834","215664.21722","215673.652145"
"Blocked","Male","ball","5","M_lash.wav","None","729.955615476","321","209548.109862","216430.877126","217197.410582","203347.747639","204114.546362","204881.145362","205647.693349","206413.985034","210314.276643","211081.654749","211848.056499","212597.21123","213364.320978","214130.403973","214897.456834","215664.21722","216440.236923"
"Blocked","Male","ball","5","M_knife.wav","None","729.540401138","321","209548.109862","216430.877126","217197.410582","217964.123356","204114.546362","204881.145362","205647.693349","206413.985034","210314.276643","211081.654749","211848.056499","212597.21123","213364.320978","214130.403973","214897.456834","215664.21722","217206.73266"
"Blocked","Male","ball","5","M_ball.wav","None","728.500045836","321","209548.109862","216430.877126","217197.410582","217964.123356","218730.777697","204881.145362","205647.693349","206413.985034","210314.276643","211081.654749","211848.056499","212597.21123","213364.320978","214130.403973","214897.456834","215664.21722","217973.968549"
"Blocked","Male","ball","5","M_dime.wav","space","491.961284541","321","209548.109862","216430.877126","217197.410582","217964.123356","218730.777697","219497.266633","205647.693349","206413.985034","210314.276643","211081.654749","211848.056499","212597.21123","213364.320978","214130.403973","214897.456834","215664.21722","218740.081534"
"Blocked","Male","ball","5","M_dime.wav","None","732.481530402","321","209548.109862","216430.877126","217197.410582","217964.123356","218730.777697","219497.266633","220263.682914","206413.985034","210314.276643","211081.654749","211848.056499","212597.21123","213364.320978","214130.403973","214897.456834","215664.21722","219501.219364"
"Blocked","Male","ball","5","M_reek.wav","None","727.148047648","321","209548.109862","216430.877126","217197.410582","217964.123356","218730.777697","219497.266633","220263.682914","221030.665592","210314.276643","211081.654749","211848.056499","212597.21123","213364.320978","214130.403973","214897.456834","215664.21722","220272.471983"
"Blocked","Male","cave","8","M_park.wav","None","726.281136274","321","224164.288947","216430.877126","217197.410582","217964.123356","218730.777697","219497.266633","220263.682914","221030.665592","210314.276643","211081.654749","211848.056499","212597.21123","213364.320978","214130.403973","214897.456834","215664.21722","221039.936967"
"Blocked","Male","cave","8","M_cave.wav","None","721.054626629","321","224164.288947","216430.877126","217197.410582","217964.123356","218730.777697","219497.266633","220263.682914","221030.665592","224930.947617","211081.654749","211848.056499","212597.21123","213364.320978","214130.403973","214897.456834","215664.21722","224174.189172"
"Blocked","Male","cave","8","M_romp.wav","space","506.429797504","321","224164.288947","216430.877126","217197.410582","217964.123356","218730.777697","219497.266633","220263.682914","221030.665592","224930.947617","225697.95843","211848.056499","212597.21123","213364.320978","214130.403973","214897.456834","215664.21722","224941.407438"
"Blocked","Male","cave","8","M_depth.wav","None","717.804946005","321","224164.288947","216430.877126","217197.410582","217964.123356","218730.777697","219497.266633","220263.682914","221030.665592","224930.947617","225697.95843","226446.858715","212597.21123","213364.320978","214130.403973","214897.456834","215664.21722","225708.015404"
"Blocked","Male","cave","8","M_priest.wav","None","735.666594002","321","224164.288947","216430.877126","217197.410582","217964.123356","218730.777697","219497.266633","220263.682914","221030.665592","224930.947617","225697.95843","226446.858715","227213.763792","213364.320978","214130.403973","214897.456834","215664.21722","226456.259631"
"Blocked","Male","cave","8","M_cad.wav","None","734.658392146","321","224164.288947","216430.877126","217197.410582","217964.123356","218730.777697","219497.266633","220263.682914","221030.665592","224930.947617","225697.95843","226446.858715","227213.763792","227980.35599","214130.403973","214897.456834","215664.21722","227223.331351"
"Blocked","Male","cave","8","M_jaw.wav","None","734.098486137","321","224164.288947","216430.877126","217197.410582","217964.123356","218730.777697","219497.266633","220263.682914","221030.665592","224930.947617","225697.95843","226446.858715","227213.763792","227980.35599","228746.983743","214897.456834","215664.21722","227989.758143"
"Blocked","Male","cave","8","M_cave.wav","None","733.56733378","321","224164.288947","216430.877126","217197.410582","217964.123356","218730.777697","219497.266633","220263.682914","221030.665592","224930.947617","225697.95843","226446.858715","227213.763792","227980.35599","228746.983743","229513.775974","215664.21722","228756.254189"
"Blocked","Male","cave","8","M_romp.wav","space","403.908582404","321","224164.288947","216430.877126","217197.410582","217964.123356","218730.777697","219497.266633","220263.682914","221030.665592","224930.947617","225697.95843","226446.858715","227213.763792","227980.35599","228746.983743","229513.775974","230280.441445","229522.818253"
"Blocked","Male","cave","8","M_cave.wav","None","731.700259261","321","224164.288947","231046.619974","217197.410582","217964.123356","218730.777697","219497.266633","220263.682914","221030.665592","224930.947617","225697.95843","226446.858715","227213.763792","227980.35599","228746.983743","229513.775974","230280.441445","230289.783309"
"Blocked","Male","cave","8","M_jaw.wav","space","527.887704317","321","224164.288947","231046.619974","231813.690148","217964.123356","218730.777697","219497.266633","220263.682914","221030.665592","224930.947617","225697.95843","226446.858715","227213.763792","227980.35599","228746.983743","229513.775974","230280.441445","231055.776956"
"Blocked","Male","cave","8","M_jolt.wav","None","729.460016824","321","224164.288947","231046.619974","231813.690148","232580.339851","218730.777697","219497.266633","220263.682914","221030.665592","224930.947617","225697.95843","226446.858715","227213.763792","227980.35599","228746.983743","229513.775974","230280.441445","231823.202674"
"Blocked","Male","cave","8","M_cave.wav","None","729.035836179","321","224164.288947","231046.619974","231813.690148","232580.339851","233346.901751","219497.266633","220263.682914","221030.665592","224930.947617","225697.95843","226446.858715","227213.763792","227980.35599","228746.983743","229513.775974","230280.441445","232589.713252"
"Blocked","Male","cave","8","M_knife.wav","space","387.467567809","321","224164.288947","231046.619974","231813.690148","232580.339851","233346.901751","234113.722735","220263.682914","221030.665592","224930.947617","225697.95843","226446.858715","227213.763792","227980.35599","228746.983743","229513.775974","230280.441445","233356.130769"
"Blocked","Male","cave","8","M_jolt.wav","None","726.008757949","321","224164.288947","231046.619974","231813.690148","232580.339851","233346.901751","234113.722735","234880.043481","221030.665592","224930.947617","225697.95843","226446.858715","227213.763792","227980.35599","228746.983743","229513.775974","230280.441445","234123.650166"
"Blocked","Male","cave","8","M_cling.wav","None","727.25378396","321","224164.288947","231046.619974","231813.690148","232580.339851","233346.901751","234113.722735","234880.043481","235646.781298","224930.947617","225697.95843","226446.858715","227213.763792","227980.35599","228746.983743","229513.775974","230280.441445","234888.718777"
"Blocked","Male","done","20","M_reek.wav","None","725.59879953","321","238780.498332","231046.619974","231813.690148","232580.339851","233346.901751","234113.722735","234880.043481","235646.781298","224930.947617","225697.95843","226446.858715","227213.763792","227980.35599","228746.983743","229513.775974","230280.441445","235656.371736"
"Blocked","Male","done","20","M_cling.wav","None","722.295323852","321","238780.498332","231046.619974","231813.690148","232580.339851","233346.901751","234113.722735","234880.043481","235646.781298","239547.226564","225697.95843","226446.858715","227213.763792","227980.35599","228746.983743","229513.775974","230280.441445","238789.784855"
"Blocked","Male","done","20","M_done.wav","None","721.351738553","321","238780.498332","231046.619974","231813.690148","232580.339851","233346.901751","234113.722735","234880.043481","235646.781298","239547.226564","240313.812579","226446.858715","227213.763792","227980.35599","228746.983743","229513.775974","230280.441445","239556.885328"
"Blocked","Male","done","20","M_reek.wav","space","451.448644511","321","238780.498332","231046.619974","231813.690148","232580.339851","233346.901751","234113.722735","234880.043481","235646.781298","239547.226564","240313.812579","241080.494746","227213.763792","227980.35599","228746.983743","229513.775974","230280.441445","240323.949628"
"Blocked","Male","done","20","M_gnash.wav","None","719.086762518","321","238780.498332","231046.619974","231813.690148","232580.339851","233346.901751","234113.722735","234880.043481","235646.781298","239547.226564","240313.812579","241080.494746","241846.411408","227980.35599","228746.983743","229513.775974","230280.441445","241090.447529"
"Blocked","Male","done","20","M_cling.wav","None","720.694753341","321","238780.498332","231046.619974","231813.690148","232580.339851","233346.901751","234113.722735","234880.043481","235646.781298","239547.226564","240313.812579","241080.494746","241846.411408","242613.691818","228746.983743","229513.775974","230280.441445","241855.394945"
"Blocked","Male","done","20","M_cad.wav","None","718.865706585","321","238780.498332","231046.619974","231813.690148","232580.339851","233346.901751","234113.722735","234880.043481","235646.781298","239547.226564","240313.812579","241080.494746","241846.411408","242613.691818","243363.401198","229513.775974","230280.441445","242623.480123"
"Blocked","Male","done","20","M_done.wav","None","735.478619114","321","238780.498332","231046.619974","231813.690148","232580.339851","233346.901751","234113.722735","234880.043481","235646.781298","239547.226564","240313.812579","241080.494746","241846.411408","242613.691818","243363.401198","244129.738641","230280.441445","243373.08655"
"Blocked","Male","done","20","M_dime.wav","space","492.447608151","321","238780.498332","231046.619974","231813.690148","232580.339851","233346.901751","234113.722735","234880.043481","235646.781298","239547.226564","240313.812579","241080.494746","241846.411408","242613.691818","243363.401198","244129.738641","244896.405349","244138.810601"
"Blocked","Male","done","20","M_gnash.wav","None","733.967398759","321","238780.498332","245663.319083","231813.690148","232580.339851","233346.901751","234113.722735","234880.043481","235646.781298","239547.226564","240313.812579","241080.494746","241846.411408","242613.691818","243363.401198","244129.738641","244896.405349","244905.962704"
"Blocked","Male","done","20","M_cad.wav","None","733.463761397","321","238780.498332","245663.319083","246429.97868","232580.339851","233346.901751","234113.722735","234880.043481","235646.781298","239547.226564","240313.812579","241080.494746","241846.411408","242613.691818","243363.401198","244129.738641","244896.405349","245672.820788"
"Blocked","Male","done","20","M_depth.wav","None","733.231266495","321","238780.498332","245663.319083","246429.97868","247196.489566","233346.901751","234113.722735","234880.043481","235646.781298","239547.226564","240313.812579","241080.494746","241846.411408","242613.691818","243363.401198","244129.738641","244896.405349","246439.229649"
"Blocked","Male","done","20","M_done.wav","None","732.047147118","321","238780.498332","245663.319083","246429.97868","247196.489566","247963.293236","234113.722735","234880.043481","235646.781298","239547.226564","240313.812579","241080.494746","241846.411408","242613.691818","243363.401198","244129.738641","244896.405349","247206.401849"
"Blocked","Male","done","20","M_jaw.wav","space","498.156422284","321","238780.498332","245663.319083","246429.97868","247196.489566","247963.293236","248729.545348","234880.043481","235646.781298","239547.226564","240313.812579","241080.494746","241846.411408","242613.691818","243363.401198","244129.738641","244896.405349","247973.000539"
"Blocked","Male","done","20","M_done.wav","None","731.414895505","321","238780.498332","245663.319083","246429.97868","247196.489566","247963.293236","248729.545348","249496.237717","235646.781298","239547.226564","240313.812579","241080.494746","241846.411408","242613.691818","243363.401198","244129.738641","244896.405349","248738.416966"
"Blocked","Male","done","20","M_cad.wav","None","730.270041153","321","238780.498332","245663.319083","246429.97868","247196.489566","247963.293236","248729.545348","249496.237717","250263.216995","239547.226564","240313.812579","241080.494746","241846.411408","242613.691818","243363.401198","244129.738641","244896.405349","249505.667386"
"Blocked","Male","tile","16","M_cad.wav","space","278.225626796","321","253396.760275","245663.319083","246429.97868","247196.489566","247963.293236","248729.545348","249496.237717","250263.216995","239547.226564","240313.812579","241080.494746","241846.411408","242613.691818","243363.401198","244129.738641","244896.405349","250272.849788"
"Blocked","Male","tile","16","M_tile.wav","None","722.575431224","321","253396.760275","245663.319083","246429.97868","247196.489566","247963.293236","248729.545348","249496.237717","250263.216995","254162.881917","240313.812579","241080.494746","241846.411408","242613.691818","243363.401198","244129.738641","244896.405349","253406.217151"
"Blocked","Male","tile","16","M_priest.wav","space","499.039410613","321","253396.760275","245663.319083","246429.97868","247196.489566","247963.293236","248729.545348","249496.237717","250263.216995","254162.881917","254929.454947","241080.494746","241846.411408","242613.691818","243363.401198","244129.738641","244896.405349","254171.949239"
"Blocked","Male","tile","16","M_cling.wav","None","722.121570259","321","253396.760275","245663.319083","246429.97868","247196.489566","247963.293236","248729.545348","249496.237717","250263.216995","254162.881917","254929.454947","255696.648479","241846.411408","242613.691818","243363.401198","244129.738641","244896.405349","254938.541437"
"Blocked","Male","tile","16","M_dime.wav","None","720.69660807","321","253396.760275","245663.319083","246429.97868","247196.489566","247963.293236","248729.545348","249496.237717","250263.216995","254162.881917","254929.454947","255696.648479","256463.356307","242613.691818","243363.401198","244129.738641","244896.405349","255706.398448"
"Blocked","Male","tile","16","M_tile.wav","None","720.011798199","321","253396.760275","245663.319083","246429.97868","247196.489566","247963.293236","248729.545348","249496.237717","250263.216995","254162.881917","254929.454947","255696.648479","256463.356307","257229.700551","243363.401198","244129.738641","244896.405349","256473.438632"
"Blocked","Male","tile","16","M_gnash.wav","space","398.979802616","321","253396.760275","245663.319083","246429.97868","247196.489566","247963.293236","248729.545348","249496.237717","250263.216995","254162.881917","254929.454947","255696.648479","256463.356307","257229.700551","257979.533908","244129.738641","244896.405349","257239.936225"
"Blocked","Male","tile","16","M_tile.wav","None","736.399326008","321","253396.760275","245663.319083","246429.97868","247196.489566","247963.293236","248729.545348","249496.237717","250263.216995","254162.881917","254929.454947","255696.648479","256463.356307","257229.700551","257979.533908","258745.782619","244896.405349","257988.675122"
"Blocked","Male","tile","16","M_reek.wav","space","500.216418877","321","253396.760275","245663.319083","246429.97868","247196.489566","247963.293236","248729.545348","249496.237717","250263.216995","254162.881917","254929.454947","255696.648479","256463.356307","257229.700551","257979.533908","258745.782619","259512.754478","258754.67557"
"Blocked","Male","tile","16","M_tile.wav","None","734.172068536","321","253396.760275","260279.523829","246429.97868","247196.489566","247963.293236","248729.545348","249496.237717","250263.216995","254162.881917","254929.454947","255696.648479","256463.356307","257229.700551","257979.533908","258745.782619","259512.754478","259522.368721"
"Blocked","Male","tile","16","M_greet.wav","space","365.87980995","321","253396.760275","260279.523829","261046.068106","247196.489566","247963.293236","248729.545348","249496.237717","250263.216995","254162.881917","254929.454947","255696.648479","256463.356307","257229.700551","257979.533908","258745.782619","259512.754478","260288.933712"
"Blocked","Male","tile","16","M_romp.wav","None","732.722682413","321","253396.760275","260279.523829","261046.068106","261812.875796","247963.293236","248729.545348","249496.237717","250263.216995","254162.881917","254929.454947","255696.648479","256463.356307","257229.700551","257979.533908","258745.782619","259512.754478","261055.321858"
"Blocked","Male","tile","16","M_romp.wav","None","731.975729112","321","253396.760275","260279.523829","261046.068106","261812.875796","262579.340307","248729.545348","249496.237717","250263.216995","254162.881917","254929.454947","255696.648479","256463.356307","257229.700551","257979.533908","258745.782619","259512.754478","261822.292788"
"Blocked","Male","tile","16","M_jolt.wav","None","732.049311511","321","253396.760275","260279.523829","261046.068106","261812.875796","262579.340307","263345.641576","249496.237717","250263.216995","254162.881917","254929.454947","255696.648479","256463.356307","257229.700551","257979.533908","258745.782619","259512.754478","262588.609207"
"Blocked","Male","tile","16","M_knife.wav","None","732.488331851","321","253396.760275","260279.523829","261046.068106","261812.875796","262579.340307","263345.641576","264112.753488","250263.216995","254162.881917","254929.454947","255696.648479","256463.356307","257229.700551","257979.533908","258745.782619","259512.754478","263354.661905"
"Blocked","Male","tile","16","M_romp.wav","None","731.254127342","321","253396.760275","260279.523829","261046.068106","261812.875796","262579.340307","263345.641576","264112.753488","264878.812369","254162.881917","254929.454947","255696.648479","256463.356307","257229.700551","257979.533908","258745.782619","259512.754478","264122.201398"
"Blocked","Male","ball","6","M_jaw.wav","None","732.603652403","321","268013.090854","260279.523829","261046.068106","261812.875796","262579.340307","263345.641576","264112.753488","264878.812369","254162.881917","254929.454947","255696.648479","256463.356307","257229.700551","257979.533908","258745.782619","259512.754478","264887.942143"
"Blocked","Male","ball","6","M_reek.wav","None","721.610513516","321","268013.090854","260279.523829","261046.068106","261812.875796","262579.340307","263345.641576","264112.753488","264878.812369","268779.556602","254929.454947","255696.648479","256463.356307","257229.700551","257979.533908","258745.782619","259512.754478","268022.787645"
"Blocked","Male","ball","6","M_ball.wav","None","721.109967679","321","268013.090854","260279.523829","261046.068106","261812.875796","262579.340307","263345.641576","264112.753488","264878.812369","268779.556602","269546.53217","255696.648479","256463.356307","257229.700551","257979.533908","258745.782619","259512.754478","268789.718693"
"Blocked","Male","ball","6","M_priest.wav","space","417.783180717","321","268013.090854","260279.523829","261046.068106","261812.875796","262579.340307","263345.641576","264112.753488","264878.812369","268779.556602","269546.53217","270312.940412","256463.356307","257229.700551","257979.533908","258745.782619","259512.754478","269556.745274"
"Blocked","Male","ball","6","M_priest.wav","None","718.866943382","321","268013.090854","260279.523829","261046.068106","261812.875796","262579.340307","263345.641576","264112.753488","264878.812369","268779.556602","269546.53217","270312.940412","271078.893557","257229.700551","257979.533908","258745.782619","259512.754478","270323.061075"
"Blocked","Male","ball","6","M_ball.wav","None","720.559337176","321","268013.090854","260279.523829","261046.068106","261812.875796","262579.340307","263345.641576","264112.753488","264878.812369","268779.556602","269546.53217","270312.940412","271078.893557","271845.516981","257979.533908","258745.782619","259512.754478","271087.875857"
"Blocked","Male","ball","6","M_lash.wav","space","639.790667687","321","268013.090854","260279.523829","261046.068106","261812.875796","262579.340307","263345.641576","264112.753488","264878.812369","268779.556602","269546.53217","270312.940412","271078.893557","271845.516981","272595.307364","258745.782619","259512.754478","271854.665305"
"Blocked","Male","ball","6","M_romp.wav","None","736.109015997","321","268013.090854","260279.523829","261046.068106","261812.875796","262579.340307","263345.641576","264112.753488","264878.812369","268779.556602","269546.53217","270312.940412","271078.893557","271845.516981","272595.307364","273361.910074","259512.754478","272603.853426"
"Blocked","Male","ball","6","M_lash.wav","None","735.668139998","321","268013.090854","260279.523829","261046.068106","261812.875796","262579.340307","263345.641576","264112.753488","264878.812369","268779.556602","269546.53217","270312.940412","271078.893557","271845.516981","272595.307364","273361.910074","274128.994779","273370.605774"
"Blocked","Male","ball","6","M_ball.wav","None","734.558839817","321","268013.090854","274895.53009","261046.068106","261812.875796","262579.340307","263345.641576","264112.753488","264878.812369","268779.556602","269546.53217","270312.940412","271078.893557","271845.516981","272595.307364","273361.910074","274128.994779","274138.114351"
"Blocked","Male","ball","6","M_dime.wav","space","325.218768325","321","268013.090854","274895.53009","275662.402086","261812.875796","262579.340307","263345.641576","264112.753488","264878.812369","268779.556602","269546.53217","270312.940412","271078.893557","271845.516981","272595.307364","273361.910074","274128.994779","274905.138149"
"Blocked","Male","ball","6","M_ball.wav","None","732.186273206","321","268013.090854","274895.53009","275662.402086","276429.130937","262579.340307","263345.641576","264112.753488","264878.812369","268779.556602","269546.53217","270312.940412","271078.893557","271845.516981","272595.307364","273361.910074","274128.994779","275672.024059"
"Blocked","Male","ball","6","M_priest.wav","space","519.764277153","321","268013.090854","274895.53009","275662.402086","276429.130937","277195.592975","263345.641576","264112.753488","264878.812369","268779.556602","269546.53217","270312.940412","271078.893557","271845.516981","272595.307364","273361.910074","274128.994779","276438.553804"
"Blocked","Male","ball","6","M_priest.wav","None","730.034453794","321","268013.090854","274895.53009","275662.402086","276429.130937","277195.592975","277962.347487","264112.753488","264878.812369","268779.556602","269546.53217","270312.940412","271078.893557","271845.516981","272595.307364","273361.910074","274128.994779","277205.16919"
"Blocked","Male","ball","6","M_jolt.wav","None","729.77165971","321","268013.090854","274895.53009","275662.402086","276429.130937","277195.592975","277962.347487","278729.005847","264878.812369","268779.556602","269546.53217","270312.940412","271078.893557","271845.516981","272595.307364","273361.910074","274128.994779","277972.250494"
"Blocked","Male","ball","6","M_depth.wav","None","730.516758282","321","268013.090854","274895.53009","275662.402086","276429.130937","277195.592975","277962.347487","278729.005847","279495.150059","268779.556602","269546.53217","270312.940412","271078.893557","271845.516981","272595.307364","273361.910074","274128.994779","278738.182615"
"Blocked","Male","done","21","M_depth.wav","None","730.813251808","321","282629.231912","274895.53009","275662.402086","276429.130937","277195.592975","277962.347487","278729.005847","279495.150059","268779.556602","269546.53217","270312.940412","271078.893557","271845.516981","272595.307364","273361.910074","274128.994779","279504.317861"
"Blocked","Male","done","21","M_gnash.wav","None","721.059573349","321","282629.231912","274895.53009","275662.402086","276429.130937","277195.592975","277962.347487","278729.005847","279495.150059","283395.981786","269546.53217","270312.940412","271078.893557","271845.516981","272595.307364","273361.910074","274128.994779","282639.541477"
"Blocked","Male","done","21","M_lash.wav","None","721.06050048","321","282629.231912","274895.53009","275662.402086","276429.130937","277195.592975","277962.347487","278729.005847","279495.150059","283395.981786","284162.603046","270312.940412","271078.893557","271845.516981","272595.307364","273361.910074","274128.994779","283405.965178"
"Blocked","Male","done","21","M_done.wav","None","720.696917269","321","282629.231912","274895.53009","275662.402086","276429.130937","277195.592975","277962.347487","278729.005847","279495.150059","283395.981786","284162.603046","284928.656053","271078.893557","271845.516981","272595.307364","273361.910074","274128.994779","284172.63034"
"Blocked","Male","done","21","M_greet.wav","space","340.197101701","321","282629.231912","274895.53009","275662.402086","276429.130937","277195.592975","277962.347487","278729.005847","279495.150059","283395.981786","284162.603046","284928.656053","285695.732101","271845.516981","272595.307364","273361.910074","274128.994779","284937.884143"
"Blocked","Male","done","21","M_cling.wav","None","718.6764949","321","282629.231912","274895.53009","275662.402086","276429.130937","277195.592975","277962.347487","278729.005847","279495.150059","283395.981786","284162.603046","284928.656053","285695.732101","286445.55371","272595.307364","273361.910074","274128.994779","285705.464138"
"Blocked","Male","done","21","M_park.wav","None","735.764600802","321","282629.231912","274895.53009","275662.402086","276429.130937","277195.592975","277962.347487","278729.005847","279495.150059","283395.981786","284162.603046","284928.656053","285695.732101","286445.55371","287211.720182","273361.910074","274128.994779","286455.037484"
"Blocked","Male","done","21","M_done.wav","None","736.501042265","321","282629.231912","274895.53009","275662.402086","276429.130937","277195.592975","277962.347487","278729.005847","279495.150059","283395.981786","284162.603046","284928.656053","285695.732101","286445.55371","287211.720182","287978.054842","274128.994779","287220.735873"
"Blocked","Male","done","21","M_lash.wav","space","322.931532748","321","282629.231912","274895.53009","275662.402086","276429.130937","277195.592975","277962.347487","278729.005847","279495.150059","283395.981786","284162.603046","284928.656053","285695.732101","286445.55371","287211.720182","287978.054842","288745.200453","287987.057857"
"Blocked","Male","done","21","M_lash.wav","None","733.540744986","321","282629.231912","289511.909517","275662.402086","276429.130937","277195.592975","277962.347487","278729.005847","279495.150059","283395.981786","284162.603046","284928.656053","285695.732101","286445.55371","287211.720182","287978.054842","288745.200453","288755.102533"
"Blocked","Male","done","21","M_bluff.wav","None","733.934935648","321","282629.231912","289511.909517","290278.471726","276429.130937","277195.592975","277962.347487","278729.005847","279495.150059","283395.981786","284162.603046","284928.656053","285695.732101","286445.55371","287211.720182","287978.054842","288745.200453","289521.474912"
"Blocked","Male","done","21","M_done.wav","None","734.379212372","321","282629.231912","289511.909517","290278.471726","291045.231494","277195.592975","277962.347487","278729.005847","279495.150059","283395.981786","284162.603046","284928.656053","285695.732101","286445.55371","287211.720182","287978.054842","288745.200453","290287.579549"
"Blocked","Male","done","21","M_knife.wav","space","350.19749729","321","282629.231912","289511.909517","290278.471726","291045.231494","291811.900984","277962.347487","278729.005847","279495.150059","283395.981786","284162.603046","284928.656053","285695.732101","286445.55371","287211.720182","287978.054842","288745.200453","291054.716813"
"Blocked","Male","done","21","M_done.wav","None","731.822999194","321","282629.231912","289511.909517","290278.471726","291045.231494","291811.900984","292578.484525","278729.005847","279495.150059","283395.981786","284162.603046","284928.656053","285695.732101","286445.55371","287211.720182","287978.054842","288745.200453","291821.333745"
"Blocked","Male","done","21","M_cling.wav","space","648.8020299","321","282629.231912","289511.909517","290278.471726","291045.231494","291811.900984","292578.484525","293345.084144","279495.150059","283395.981786","284162.603046","284928.656053","285695.732101","286445.55371","287211.720182","287978.054842","288745.200453","292588.05734"
"Blocked","Male","done","21","M_depth.wav","None","729.532980826","321","282629.231912","289511.909517","290278.471726","291045.231494","291811.900984","292578.484525","293345.084144","294111.870191","283395.981786","284162.603046","284928.656053","285695.732101","286445.55371","287211.720182","287978.054842","288745.200453","293354.632224"
"Blocked","Male","ball","1","M_jaw.wav","space","292.476175353","321","297245.574858","289511.909517","290278.471726","291045.231494","291811.900984","292578.484525","293345.084144","294111.870191","283395.981786","284162.603046","284928.656053","285695.732101","286445.55371","287211.720182","287978.054842","288745.200453","294121.331704"
"Blocked","Male","ball","1","M_park.wav","None","722.235344816","321","297245.574858","289511.909517","290278.471726","291045.231494","291811.900984","292578.484525","293345.084144","294111.870191","298011.510998","284162.603046","284928.656053","285695.732101","286445.55371","287211.720182","287978.054842","288745.200453","297255.247843"
"Blocked","Male","ball","1","M_dime.wav","None","723.426265642","321","297245.574858","289511.909517","290278.471726","291045.231494","291811.900984","292578.484525","293345.084144","294111.870191","298011.510998","298778.058985","284928.656053","285695.732101","286445.55371","287211.720182","287978.054842","288745.200453","298020.718065"
"Blocked","Male","ball","1","M_ball.wav","None","724.18403998","321","297245.574858","289511.909517","290278.471726","291045.231494","291811.900984","292578.484525","293345.084144","294111.870191","298011.510998","298778.058985","299545.366601","285695.732101","286445.55371","287211.720182","287978.054842","288745.200453","298786.904942"
"Blocked","Male","ball","1","M_jolt.wav","space","394.418316428","321","297245.574858","289511.909517","290278.471726","291045.231494","291811.900984","292578.484525","293345.084144","294111.870191","298011.510998","298778.058985","299545.366601","300311.81689","286445.55371","287211.720182","287978.054842","288745.200453","299555.199736"
"Blocked","Male","ball","1","M_jaw.wav","None","720.92044726","321","297245.574858","289511.909517","290278.471726","291045.231494","291811.900984","292578.484525","293345.084144","294111.870191","298011.510998","298778.058985","299545.366601","300311.81689","301078.620869","287211.720182","287978.054842","288745.200453","300321.826252"
"Blocked","Male","ball","1","M_ball.wav","None","721.072558314","321","297245.574858","289511.909517","290278.471726","291045.231494","291811.900984","292578.484525","293345.084144","294111.870191","298011.510998","298778.058985","299545.366601","300311.81689","301078.620869","301845.40197","287978.054842","288745.200453","301088.289217"
"Blocked","Male","ball","1","M_greet.wav","space","437.797884922","321","297245.574858","289511.909517","290278.471726","291045.231494","291811.900984","292578.484525","293345.084144","294111.870191","298011.510998","298778.058985","299545.366601","300311.81689","301078.620869","301845.40197","302611.203003","288745.200453","301855.748017"
"Blocked","Male","ball","1","M_reek.wav","None","720.209975727","321","297245.574858","289511.909517","290278.471726","291045.231494","291811.900984","292578.484525","293345.084144","294111.870191","298011.510998","298778.058985","299545.366601","300311.81689","301078.620869","301845.40197","302611.203003","303378.590076","302620.349473"
"Blocked","Male","ball","1","M_reek.wav","None","718.63599401","321","297245.574858","304145.358501","290278.471726","291045.231494","291811.900984","292578.484525","293345.084144","294111.870191","298011.510998","298778.058985","299545.366601","300311.81689","301078.620869","301845.40197","302611.203003","303378.590076","303388.613041"
"Blocked","Male","ball","1","M_ball.wav","None","719.233927317","321","297245.574858","304145.358501","304911.916072","291045.231494","291811.900984","292578.484525","293345.084144","294111.870191","298011.510998","298778.058985","299545.366601","300311.81689","301078.620869","301845.40197","302611.203003","303378.590076","304154.939972"
"Blocked","Male","ball","1","M_knife.wav","space","482.387851924","321","297245.574858","304145.358501","304911.916072","305661.383064","291811.900984","292578.484525","293345.084144","294111.870191","298011.510998","298778.058985","299545.366601","300311.81689","301078.620869","301845.40197","302611.203003","303378.590076","304922.110626"
"Blocked","Male","ball","1","M_dime.wav","None","735.555911437","321","297245.574858","304145.358501","304911.916072","305661.383064","306427.937543","292578.484525","293345.084144","294111.870191","298011.510998","298778.058985","299545.366601","300311.81689","301078.620869","301845.40197","302611.203003","303378.590076","305670.606207"
"Blocked","Male","ball","1","M_ball.wav","None","734.861516859","321","297245.574858","304145.358501","304911.916072","305661.383064","306427.937543","307194.32538","293345.084144","294111.870191","298011.510998","298778.058985","299545.366601","300311.81689","301078.620869","301845.40197","302611.203003","303378.590076","306437.984623"
"Blocked","Male","ball","1","M_park.wav","space","385.627391282","321","297245.574858","304145.358501","304911.916072","305661.383064","306427.937543","307194.32538","307961.348251","294111.870191","298011.510998","298778.058985","299545.366601","300311.81689","301078.620869","301845.40197","302611.203003","303378.590076","307203.777309"
"Blocked","Male","ball","1","M_depth.wav","None","733.409657143","321","297245.574858","304145.358501","304911.916072","305661.383064","306427.937543","307194.32538","307961.348251","308728.088541","298011.510998","298778.058985","299545.366601","300311.81689","301078.620869","301845.40197","302611.203003","303378.590076","307970.90437"
"Blocked","Male","cave","10","M_dime.wav","None","732.908184174","321","311861.707877","304145.358501","304911.916072","305661.383064","306427.937543","307194.32538","307961.348251","308728.088541","298011.510998","298778.058985","299545.366601","300311.81689","301078.620869","301845.40197","302611.203003","303378.590076","308737.645897"
"Blocked","Male","cave","10","M_cave.wav","None","721.052462235","321","311861.707877","304145.358501","304911.916072","305661.383064","306427.937543","307194.32538","307961.348251","308728.088541","312628.339649","298778.058985","299545.366601","300311.81689","301078.620869","301845.40197","302611.203003","303378.590076","311871.539466"
"Blocked","Male","cave","10","M_park.wav","space","470.984444954","321","311861.707877","304145.358501","304911.916072","305661.383064","306427.937543","307194.32538","307961.348251","308728.088541","312628.339649","313394.209936","299545.366601","300311.81689","301078.620869","301845.40197","302611.203003","303378.590076","312638.262752"
"Blocked","Male","cave","10","M_romp.wav","None","720.917973667","321","311861.707877","304145.358501","304911.916072","305661.383064","306427.937543","307194.32538","307961.348251","308728.088541","312628.339649","313394.209936","314161.764579","300311.81689","301078.620869","301845.40197","302611.203003","303378.590076","313403.091138"
"Blocked","Male","cave","10","M_dime.wav","None","719.325441867","321","311861.707877","304145.358501","304911.916072","305661.383064","306427.937543","307194.32538","307961.348251","308728.088541","312628.339649","313394.209936","314161.764579","314927.648779","301078.620869","301845.40197","302611.203003","303378.590076","314171.700358"
"Blocked","Male","cave","10","M_lash.wav","None","721.856303047","321","311861.707877","304145.358501","304911.916072","305661.383064","306427.937543","307194.32538","307961.348251","308728.088541","312628.339649","313394.209936","314161.764579","314927.648779","315694.390924","301845.40197","302611.203003","303378.590076","314936.726613"
"Blocked","Male","cave","10","M_cave.wav","None","721.962966491","321","311861.707877","304145.358501","304911.916072","305661.383064","306427.937543","307194.32538","307961.348251","308728.088541","312628.339649","313394.209936","314161.764579","314927.648779","315694.390924","316460.903047","302611.203003","303378.590076","315703.25203"
"Blocked","Male","cave","10","M_park.wav","space","414.220930077","321","311861.707877","304145.358501","304911.916072","305661.383064","306427.937543","307194.32538","307961.348251","308728.088541","312628.339649","313394.209936","314161.764579","314927.648779","315694.390924","316460.903047","317227.647047","303378.590076","316469.889985"
"Blocked","Male","cave","10","M_jaw.wav","None","720.667237416","321","311861.707877","304145.358501","304911.916072","305661.383064","306427.937543","307194.32538","307961.348251","308728.088541","312628.339649","313394.209936","314161.764579","314927.648779","315694.390924","316460.903047","317227.647047","317994.700526","317236.548346"
"Blocked","Male","cave","10","M_cave.wav","None","718.697827775","321","311861.707877","318760.952329","304911.916072","305661.383064","306427.937543","307194.32538","307961.348251","308728.088541","312628.339649","313394.209936","314161.764579","314927.648779","315694.390924","316460.903047","317227.647047","317994.700526","318004.9733"
"Blocked","Male","cave","10","M_cling.wav","space","491.001622751","321","311861.707877","318760.952329","319510.944599","305661.383064","306427.937543","307194.32538","307961.348251","308728.088541","312628.339649","313394.209936","314161.764579","314927.648779","315694.390924","316460.903047","317227.647047","317994.700526","318769.998318"
"Blocked","Male","cave","10","M_cave.wav","None","735.596103594","321","311861.707877","318760.952329","319510.944599","320277.396434","306427.937543","307194.32538","307961.348251","308728.088541","312628.339649","313394.209936","314161.764579","314927.648779","315694.390924","316460.903047","317227.647047","317994.700526","319519.970493"
"Blocked","Male","cave","10","M_gnash.wav","space","486.530104186","321","311861.707877","318760.952329","319510.944599","320277.396434","321044.203815","307194.32538","307961.348251","308728.088541","312628.339649","313394.209936","314161.764579","314927.648779","315694.390924","316460.903047","317227.647047","317994.700526","320286.481998"
"Blocked","Male","cave","10","M_greet.wav","None","733.897526283","321","311861.707877","318760.952329","319510.944599","320277.396434","321044.203815","321810.459945","307961.348251","308728.088541","312628.339649","313394.209936","314161.764579","314927.648779","315694.390924","316460.903047","317227.647047","317994.700526","321053.515999"
"Blocked","Male","cave","10","M_park.wav","None","734.261727892","321","311861.707877","318760.952329","319510.944599","320277.396434","321044.203815","321810.459945","322577.255268","308728.088541","312628.339649","313394.209936","314161.764579","314927.648779","315694.390924","316460.903047","317227.647047","317994.700526","321819.695147"
"Blocked","Male","cave","10","M_bluff.wav","None","734.193092212","321","311861.707877","318760.952329","319510.944599","320277.396434","321044.203815","321810.459945","322577.255268","323344.249077","312628.339649","313394.209936","314161.764579","314927.648779","315694.390924","316460.903047","317227.647047","317994.700526","322586.402665"
"Blocked","Male","ball","4","M_priest.wav","None","733.756854199","321","326477.420735","318760.952329","319510.944599","320277.396434","321044.203815","321810.459945","322577.255268","323344.249077","312628.339649","313394.209936","314161.764579","314927.648779","315694.390924","316460.903047","317227.647047","317994.700526","323353.448724"
"Blocked","Male","ball","4","M_cad.wav","None","722.913662437","321","326477.420735","318760.952329","319510.944599","320277.396434","321044.203815","321810.459945","322577.255268","323344.249077","327244.618905","313394.209936","314161.764579","314927.648779","315694.390924","316460.903047","317227.647047","317994.700526","326486.300392"
"Blocked","Male","ball","4","M_ball.wav","None","721.869597677","321","326477.420735","318760.952329","319510.944599","320277.396434","321044.203815","321810.459945","322577.255268","323344.249077","327244.618905","328010.61688","314161.764579","314927.648779","315694.390924","316460.903047","317227.647047","317994.700526","327254.260974"
"Blocked","Male","ball","4","M_cling.wav","space","368.809499312","321","326477.420735","318760.952329","319510.944599","320277.396434","321044.203815","321810.459945","322577.255268","323344.249077","327244.618905","328010.61688","328777.81134","314927.648779","315694.390924","316460.903047","317227.647047","317994.700526","328019.972348"
"Blocked","Male","ball","4","M_ball.wav","None","720.722578466","321","326477.420735","318760.952329","319510.944599","320277.396434","321044.203815","321810.459945","322577.255268","323344.249077","327244.618905","328010.61688","328777.81134","329543.950914","315694.390924","316460.903047","317227.647047","317994.700526","328787.522044"
"Blocked","Male","ball","4","M_dime.wav","space","443.565441296","321","326477.420735","318760.952329","319510.944599","320277.396434","321044.203815","321810.459945","322577.255268","323344.249077","327244.618905","328010.61688","328777.81134","329543.950914","330310.336277","316460.903047","317227.647047","317994.700526","329553.152725"
"Blocked","Male","ball","4","M_jaw.wav","None","724.432612304","321","326477.420735","318760.952329","319510.944599","320277.396434","321044.203815","321810.459945","322577.255268","323344.249077","327244.618905","328010.61688","328777.81134","329543.950914","330310.336277","331076.898796","317227.647047","317994.700526","330319.129985"
"Blocked","Male","ball","4","M_depth.wav","None","724.72570464","321","326477.420735","318760.952329","319510.944599","320277.396434","321044.203815","321810.459945","322577.255268","323344.249077","327244.618905","328010.61688","328777.81134","329543.950914","330310.336277","331076.898796","331844.33719","317994.700526","331086.208197"
"Blocked","Male","ball","4","M_priest.wav","None","722.998993471","321","326477.420735","318760.952329","319510.944599","320277.396434","321044.203815","321810.459945","322577.255268","323344.249077","327244.618905","328010.61688","328777.81134","329543.950914","330310.336277","331076.898796","331844.33719","332610.922587","331854.714154"
"Blocked","Male","ball","4","M_romp.wav","None","723.455327563","321","326477.420735","333377.618356","319510.944599","320277.396434","321044.203815","321810.459945","322577.255268","323344.249077","327244.618905","328010.61688","328777.81134","329543.950914","330310.336277","331076.898796","331844.33719","332610.922587","332620.85682"
"Blocked","Male","ball","4","M_dime.wav","None","723.89372997","321","326477.420735","333377.618356","334143.56439","320277.396434","321044.203815","321810.459945","322577.255268","323344.249077","327244.618905","328010.61688","328777.81134","329543.950914","330310.336277","331076.898796","331844.33719","332610.922587","333387.153761"
"Blocked","Male","ball","4","M_ball.wav","None","725.572519936","321","326477.420735","333377.618356","334143.56439","334910.139275","321044.203815","321810.459945","322577.255268","323344.249077","327244.618905","328010.61688","328777.81134","329543.950914","330310.336277","331076.898796","331844.33719","332610.922587","334152.396125"
"Blocked","Male","ball","4","M_dime.wav","space","509.082162287","321","326477.420735","333377.618356","334143.56439","334910.139275","335677.616007","321810.459945","322577.255268","323344.249077","327244.618905","328010.61688","328777.81134","329543.950914","330310.336277","331076.898796","331844.33719","332610.922587","334919.469391"
"Blocked","Male","ball","4","M_greet.wav","None","722.321294248","321","326477.420735","333377.618356","334143.56439","334910.139275","335677.616007","336444.111744","322577.255268","323344.249077","327244.618905","328010.61688","328777.81134","329543.950914","330310.336277","331076.898796","331844.33719","332610.922587","335687.41606"
"Blocked","Male","ball","4","M_ball.wav","None","722.631390672","321","326477.420735","333377.618356","334143.56439","334910.139275","335677.616007","336444.111744","337210.89841","323344.249077","327244.618905","328010.61688","328777.81134","329543.950914","330310.336277","331076.898796","331844.33719","332610.922587","336453.990945"
"Blocked","Male","ball","4","M_cling.wav","space","439.820471685","321","326477.420735","333377.618356","334143.56439","334910.139275","335677.616007","336444.111744","337210.89841","337977.47855","327244.618905","328010.61688","328777.81134","329543.950914","330310.336277","331076.898796","331844.33719","332610.922587","337220.664145"
"Blocked","Male","cave","9","M_jaw.wav","None","721.188497264","321","341111.073152","333377.618356","334143.56439","334910.139275","335677.616007","336444.111744","337210.89841","337977.47855","327244.618905","328010.61688","328777.81134","329543.950914","330310.336277","331076.898796","331844.33719","332610.922587","337987.260981"
"Blocked","Male","cave","9","M_jaw.wav","None","720.039932523","321","341111.073152","333377.618356","334143.56439","334910.139275","335677.616007","336444.111744","337210.89841","337977.47855","341877.485104","328010.61688","328777.81134","329543.950914","330310.336277","331076.898796","331844.33719","332610.922587","341121.311608"
"Blocked","Male","cave","9","M_jaw.wav","None","720.619315747","321","341111.073152","333377.618356","334143.56439","334910.139275","335677.616007","336444.111744","337210.89841","337977.47855","341877.485104","342644.136354","328777.81134","329543.950914","330310.336277","331076.898796","331844.33719","332610.922587","341887.496012"
"Blocked","Male","cave","9","M_cave.wav","None","721.109658945","321","341111.073152","333377.618356","334143.56439","334910.139275","335677.616007","336444.111744","337210.89841","337977.47855","341877.485104","342644.136354","343410.491419","329543.950914","330310.336277","331076.898796","331844.33719","332610.922587","342653.786151"
"Blocked","Male","cave","9","M_reek.wav","space","576.826140285","321","341111.073152","333377.618356","334143.56439","334910.139275","335677.616007","336444.111744","337210.89841","337977.47855","341877.485104","342644.136354","343410.491419","344177.452147","330310.336277","331076.898796","331844.33719","332610.922587","343419.511129"
"Blocked","Male","cave","9","M_cave.wav","None","719.087381382","321","341111.073152","333377.618356","334143.56439","334910.139275","335677.616007","336444.111744","337210.89841","337977.47855","341877.485104","342644.136354","343410.491419","344177.452147","344943.969835","331076.898796","331844.33719","332610.922587","344187.425954"
"Blocked","Male","cave","9","M_priest.wav","space","705.959117971","321","341111.073152","333377.618356","334143.56439","334910.139275","335677.616007","336444.111744","337210.89841","337977.47855","341877.485104","342644.136354","343410.491419","344177.452147","344943.969835","345693.392925","331844.33719","332610.922587","344954.290839"
