"Condition","Talker","Target","Trial","current_stimulus","response_response","response_time_response","subject_nr","time_Audio1","time_Audio10","time_Audio11","time_Audio12","time_Audio13","time_Audio14","time_Audio15","time_Audio16","time_Audio2","time_Audio3","time_Audio4","time_Audio5","time_Audio6","time_Audio7","time_Audio8","time_Audio9","time_response","title"
"Mixed","both","done","41","M_park.wav","NA","NA","328","264775.886531","NA","NA","NA","NA","NA","NA","NA","NA","NA","NA","NA","NA","NA","NA","NA","NA","Mapping"
"Mixed","both","done","41","F_done.wav","None","724.827195518","328","264775.886531","NA","NA","NA","NA","NA","NA","NA","265542.361521","NA","NA","NA","NA","NA","NA","NA","264788.916945","Mapping"
"Mixed","both","done","41","M_park.wav","None","730.412099976","328","264775.886531","NA","NA","NA","NA","NA","NA","NA","265542.361521","266309.081994","NA","NA","NA","NA","NA","NA","265553.346135","Mapping"
"Mixed","both","done","41","M_gnash.wav","space","153.211706784","328","264775.886531","NA","NA","NA","NA","NA","NA","NA","265542.361521","266309.081994","267075.477835","NA","NA","NA","NA","NA","266318.268148","Mapping"
"Mixed","both","done","41","F_romp.wav","None","736.900099553","328","264775.886531","NA","NA","NA","NA","NA","NA","NA","265542.361521","266309.081994","267075.477835","267859.121521","NA","NA","NA","NA","267084.959559","Mapping"
"Mixed","both","done","41","M_done.wav","None","722.140480299","328","264775.886531","NA","NA","NA","NA","NA","NA","NA","265542.361521","266309.081994","267075.477835","267859.121521","268625.551372","NA","NA","NA","267868.58284","Mapping"
"Mixed","both","done","41","F_priest.wav","space","484.731017612","328","264775.886531","NA","NA","NA","NA","NA","NA","NA","265542.361521","266309.081994","267075.477835","267859.121521","268625.551372","269392.307709","NA","NA","268634.680638","Mapping"
"Mixed","both","done","41","M_done.wav","None","725.708029699","328","264775.886531","NA","NA","NA","NA","NA","NA","NA","265542.361521","266309.081994","267075.477835","267859.121521","268625.551372","269392.307709","270159.298399","NA","269401.497573","Mapping"
"Mixed","both","done","41","M_jolt.wav","space","390.427626669","328","264775.886531","NA","NA","NA","NA","NA","NA","NA","265542.361521","266309.081994","267075.477835","267859.121521","268625.551372","269392.307709","270159.298399","270925.53378","270168.973975","Mapping"
"Mixed","both","done","41","M_lash.wav","None","729.114809074","328","264775.886531","271692.560334","NA","NA","NA","NA","NA","NA","265542.361521","266309.081994","267075.477835","267859.121521","268625.551372","269392.307709","270159.298399","270925.53378","270934.686543","Mapping"
"Mixed","both","done","41","F_bluff.wav","None","731.888401788","328","264775.886531","271692.560334","272459.088193","NA","NA","NA","NA","NA","265542.361521","266309.081994","267075.477835","267859.121521","268625.551372","269392.307709","270159.298399","270925.53378","271701.709697","Mapping"
"Mixed","both","done","41","M_bluff.wav","None","732.425745111","328","264775.886531","271692.560334","272459.088193","273225.688707","NA","NA","NA","NA","265542.361521","266309.081994","267075.477835","267859.121521","268625.551372","269392.307709","270159.298399","270925.53378","272470.151956","Mapping"
"Mixed","both","done","41","F_romp.wav","None","736.332766712","328","264775.886531","271692.560334","272459.088193","273225.688707","274009.446169","NA","NA","NA","265542.361521","266309.081994","267075.477835","267859.121521","268625.551372","269392.307709","270159.298399","270925.53378","273234.776853","Mapping"
"Mixed","both","done","41","F_lash.wav","None","720.441882499","328","264775.886531","271692.560334","272459.088193","273225.688707","274009.446169","274775.618787","NA","NA","265542.361521","266309.081994","267075.477835","267859.121521","268625.551372","269392.307709","270159.298399","270925.53378","274018.83143","Mapping"
"Mixed","both","done","41","F_done.wav","None","725.199749228","328","264775.886531","271692.560334","272459.088193","273225.688707","274009.446169","274775.618787","275542.78787","NA","265542.361521","266309.081994","267075.477835","267859.121521","268625.551372","269392.307709","270159.298399","270925.53378","274784.586974","Mapping"
"Mixed","both","done","41","F_jolt.wav","space","511.427195743","328","264775.886531","271692.560334","272459.088193","273225.688707","274009.446169","274775.618787","275542.78787","276309.015212","265542.361521","266309.081994","267075.477835","267859.121521","268625.551372","269392.307709","270159.298399","270925.53378","275551.880345","Mapping"
"Mixed","both","cave","18","F_priest.wav","None","726.041009184","328","279459.450235","271692.560334","272459.088193","273225.688707","274009.446169","274775.618787","275542.78787","276309.015212","265542.361521","266309.081994","267075.477835","267859.121521","268625.551372","269392.307709","270159.298399","270925.53378","276318.580722","Mapping"
"Mixed","both","cave","18","F_greet.wav","None","723.299879581","328","279459.450235","271692.560334","272459.088193","273225.688707","274009.446169","274775.618787","275542.78787","276309.015212","280225.572767","266309.081994","267075.477835","267859.121521","268625.551372","269392.307709","270159.298399","270925.53378","279468.885273","Mapping"
"Mixed","both","cave","18","F_romp.wav","None","726.734175347","328","279459.450235","271692.560334","272459.088193","273225.688707","274009.446169","274775.618787","275542.78787","276309.015212","280225.572767","280992.413508","267075.477835","267859.121521","268625.551372","269392.307709","270159.298399","270925.53378","280235.141677","Mapping"
"Mixed","both","cave","18","M_cad.wav","None","728.512230795","328","279459.450235","271692.560334","272459.088193","273225.688707","274009.446169","274775.618787","275542.78787","276309.015212","280225.572767","280992.413508","281759.228897","267859.121521","268625.551372","269392.307709","270159.298399","270925.53378","281001.471973","Mapping"
"Mixed","both","cave","18","M_cave.wav","None","731.739071663","328","279459.450235","271692.560334","272459.088193","273225.688707","274009.446169","274775.618787","275542.78787","276309.015212","280225.572767","280992.413508","281759.228897","282525.41852","268625.551372","269392.307709","270159.298399","270925.53378","281768.125047","Mapping"
"Mixed","both","cave","18","M_cling.wav","space","728.445758112","328","279459.450235","271692.560334","272459.088193","273225.688707","274009.446169","274775.618787","275542.78787","276309.015212","280225.572767","280992.413508","281759.228897","282525.41852","283292.196808","269392.307709","270159.298399","270925.53378","282534.757406","Mapping"
"Mixed","both","cave","18","F_cave.wav","None","741.813171189","328","279459.450235","271692.560334","272459.088193","273225.688707","274009.446169","274775.618787","275542.78787","276309.015212","280225.572767","280992.413508","281759.228897","282525.41852","283292.196808","284075.458048","270159.298399","270925.53378","283295.956973","Mapping"
"Mixed","both","cave","18","M_gnash.wav","space","666.921528522","328","279459.450235","271692.560334","272459.088193","273225.688707","274009.446169","274775.618787","275542.78787","276309.015212","280225.572767","280992.413508","281759.228897","282525.41852","283292.196808","284075.458048","284842.528505","270925.53378","284084.262991","Mapping"
"Mixed","both","cave","18","F_cave.wav","None","724.773399066","328","279459.450235","271692.560334","272459.088193","273225.688707","274009.446169","274775.618787","275542.78787","276309.015212","280225.572767","280992.413508","281759.228897","282525.41852","283292.196808","284075.458048","284842.528505","285609.004113","284851.715587","Mapping"
"Mixed","both","cave","18","F_knife.wav","space","653.121582698","328","279459.450235","286375.698925","272459.088193","273225.688707","274009.446169","274775.618787","275542.78787","276309.015212","280225.572767","280992.413508","281759.228897","282525.41852","283292.196808","284075.458048","284842.528505","285609.004113","285618.046811","Mapping"
"Mixed","both","cave","18","M_priest.wav","None","728.983719833","328","279459.450235","286375.698925","287142.182571","273225.688707","274009.446169","274775.618787","275542.78787","276309.015212","280225.572767","280992.413508","281759.228897","282525.41852","283292.196808","284075.458048","284842.528505","285609.004113","286384.780888","Mapping"
"Mixed","both","cave","18","F_jolt.wav","None","732.406267431","328","279459.450235","286375.698925","287142.182571","287908.72496","274009.446169","274775.618787","275542.78787","276309.015212","280225.572767","280992.413508","281759.228897","282525.41852","283292.196808","284075.458048","284842.528505","285609.004113","287151.435816","Mapping"
"Mixed","both","cave","18","M_cad.wav","None","732.049790677","328","279459.450235","286375.698925","287142.182571","287908.72496","288675.343716","274775.618787","275542.78787","276309.015212","280225.572767","280992.413508","281759.228897","282525.41852","283292.196808","284075.458048","284842.528505","285609.004113","287917.80445","Mapping"
"Mixed","both","cave","18","F_greet.wav","None","731.553876773","328","279459.450235","286375.698925","287142.182571","287908.72496","288675.343716","289442.111801","275542.78787","276309.015212","280225.572767","280992.413508","281759.228897","282525.41852","283292.196808","284075.458048","284842.528505","285609.004113","288684.346839","Mapping"
"Mixed","both","cave","18","M_cave.wav","None","731.41536722","328","279459.450235","286375.698925","287142.182571","287908.72496","288675.343716","289442.111801","290208.768276","276309.015212","280225.572767","280992.413508","281759.228897","282525.41852","283292.196808","284075.458048","284842.528505","285609.004113","289451.073496","Mapping"
"Mixed","both","cave","18","M_cling.wav","space","444.884776138","328","279459.450235","286375.698925","287142.182571","287908.72496","288675.343716","289442.111801","290208.768276","290975.318703","280225.572767","280992.413508","281759.228897","282525.41852","283292.196808","284075.458048","284842.528505","285609.004113","290218.151991","Mapping"
"Mixed","both","tile","36","F_bluff.wav","None","730.504543055","328","294109.228418","286375.698925","287142.182571","287908.72496","288675.343716","289442.111801","290208.768276","290975.318703","280225.572767","280992.413508","281759.228897","282525.41852","283292.196808","284075.458048","284842.528505","285609.004113","290984.610595","Mapping"
"Mixed","both","tile","36","F_tile.wav","None","721.8365632","328","294109.228418","286375.698925","287142.182571","287908.72496","288675.343716","289442.111801","290208.768276","290975.318703","294875.344458","280992.413508","281759.228897","282525.41852","283292.196808","284075.458048","284842.528505","285609.004113","294118.600076","Mapping"
"Mixed","both","tile","36","F_jolt.wav","space","530.412594788","328","294109.228418","286375.698925","287142.182571","287908.72496","288675.343716","289442.111801","290208.768276","290975.318703","294875.344458","295642.784067","281759.228897","282525.41852","283292.196808","284075.458048","284842.528505","285609.004113","294884.540196","Mapping"
"Mixed","both","tile","36","F_reek.wav","None","723.283184692","328","294109.228418","286375.698925","287142.182571","287908.72496","288675.343716","289442.111801","290208.768276","290975.318703","294875.344458","295642.784067","296408.805809","282525.41852","283292.196808","284075.458048","284842.528505","285609.004113","295652.058336","Mapping"
"Mixed","both","tile","36","F_knife.wav","None","727.809789125","328","294109.228418","286375.698925","287142.182571","287908.72496","288675.343716","289442.111801","290208.768276","290975.318703","294875.344458","295642.784067","296408.805809","297175.304296","283292.196808","284075.458048","284842.528505","285609.004113","296417.876333","Mapping"
"Mixed","both","tile","36","M_priest.wav","None","728.027447127","328","294109.228418","286375.698925","287142.182571","287908.72496","288675.343716","289442.111801","290208.768276","290975.318703","294875.344458","295642.784067","296408.805809","297175.304296","297941.923051","284075.458048","284842.528505","285609.004113","297184.679355","Mapping"
"Mixed","both","tile","36","M_depth.wav","None","727.78010834","328","294109.228418","286375.698925","287142.182571","287908.72496","288675.343716","289442.111801","290208.768276","290975.318703","294875.344458","295642.784067","296408.805809","297175.304296","297941.923051","298708.657128","284842.528505","285609.004113","297951.003159","Mapping"
"Mixed","both","tile","36","M_park.wav","None","730.473316275","328","294109.228418","286375.698925","287142.182571","287908.72496","288675.343716","289442.111801","290208.768276","290975.318703","294875.344458","295642.784067","296408.805809","297175.304296","297941.923051","298708.657128","299475.22456","285609.004113","298718.011163","Mapping"
"Mixed","both","tile","36","M_tile.wav","None","729.543323629","328","294109.228418","286375.698925","287142.182571","287908.72496","288675.343716","289442.111801","290208.768276","290975.318703","294875.344458","295642.784067","296408.805809","297175.304296","297941.923051","298708.657128","299475.22456","300241.950908","299484.642903","Mapping"
"Mixed","both","tile","36","M_priest.wav","space","563.365511131","328","294109.228418","301008.500408","287142.182571","287908.72496","288675.343716","289442.111801","290208.768276","290975.318703","294875.344458","295642.784067","296408.805809","297175.304296","297941.923051","298708.657128","299475.22456","300241.950908","300251.528475","Mapping"
"Mixed","both","tile","36","M_tile.wav","None","733.793836553","328","294109.228418","301008.500408","301775.28117","287908.72496","288675.343716","289442.111801","290208.768276","290975.318703","294875.344458","295642.784067","296408.805809","297175.304296","297941.923051","298708.657128","299475.22456","300241.950908","301017.534758","Mapping"
"Mixed","both","tile","36","M_cling.wav","space","709.995538462","328","294109.228418","301008.500408","301775.28117","302541.912601","288675.343716","289442.111801","290208.768276","290975.318703","294875.344458","295642.784067","296408.805809","297175.304296","297941.923051","298708.657128","299475.22456","300241.950908","301784.845134","Mapping"
"Mixed","both","tile","36","F_lash.wav","None","733.729528263","328","294109.228418","301008.500408","301775.28117","302541.912601","303308.615142","289442.111801","290208.768276","290975.318703","294875.344458","295642.784067","296408.805809","297175.304296","297941.923051","298708.657128","299475.22456","300241.950908","302550.917271","Mapping"
"Mixed","both","tile","36","F_tile.wav","None","732.576930895","328","294109.228418","301008.500408","301775.28117","302541.912601","303308.615142","304075.224004","290208.768276","290975.318703","294875.344458","295642.784067","296408.805809","297175.304296","297941.923051","298708.657128","299475.22456","300241.950908","303318.402329","Mapping"
"Mixed","both","tile","36","M_lash.wav","space","578.262712806","328","294109.228418","301008.500408","301775.28117","302541.912601","303308.615142","304075.224004","304842.052069","290975.318703","294875.344458","295642.784067","296408.805809","297175.304296","297941.923051","298708.657128","299475.22456","300241.950908","304084.518678","Mapping"
"Mixed","both","tile","36","F_jolt.wav","None","731.118869968","328","294109.228418","301008.500408","301775.28117","302541.912601","303308.615142","304075.224004","304842.052069","305608.828194","294875.344458","295642.784067","296408.805809","297175.304296","297941.923051","298708.657128","299475.22456","300241.950908","304851.095076","Mapping"
"Mixed","both","done","42","F_lash.wav","None","730.604714714","328","308742.163464","301008.500408","301775.28117","302541.912601","303308.615142","304075.224004","304842.052069","305608.828194","294875.344458","295642.784067","296408.805809","297175.304296","297941.923051","298708.657128","299475.22456","300241.950908","305618.452446","Mapping"
"Mixed","both","done","42","F_done.wav","None","723.928119522","328","308742.163464","301008.500408","301775.28117","302541.912601","303308.615142","304075.224004","304842.052069","305608.828194","309508.841272","295642.784067","296408.805809","297175.304296","297941.923051","298708.657128","299475.22456","300241.950908","308751.235224","Mapping"
"Mixed","both","done","42","F_depth.wav","space","504.662795924","328","308742.163464","301008.500408","301775.28117","302541.912601","303308.615142","304075.224004","304842.052069","305608.828194","309508.841272","310275.302039","296408.805809","297175.304296","297941.923051","298708.657128","299475.22456","300241.950908","309518.028353","Mapping"
"Mixed","both","done","42","M_romp.wav","None","724.308402743","328","308742.163464","301008.500408","301775.28117","302541.912601","303308.615142","304075.224004","304842.052069","305608.828194","309508.841272","310275.302039","311042.033024","297175.304296","297941.923051","298708.657128","299475.22456","300241.950908","310284.313819","Mapping"
"Mixed","both","done","42","M_bluff.wav","None","726.597212255","328","308742.163464","301008.500408","301775.28117","302541.912601","303308.615142","304075.224004","304842.052069","305608.828194","309508.841272","310275.302039","311042.033024","311808.437831","297941.923051","298708.657128","299475.22456","300241.950908","311051.170019","Mapping"
"Mixed","both","done","42","M_romp.wav","None","727.799586486","328","308742.163464","301008.500408","301775.28117","302541.912601","303308.615142","304075.224004","304842.052069","305608.828194","309508.841272","310275.302039","311042.033024","311808.437831","312575.06277","298708.657128","299475.22456","300241.950908","311817.554113","Mapping"
"Mixed","both","done","42","M_done.wav","None","725.140388124","328","308742.163464","301008.500408","301775.28117","302541.912601","303308.615142","304075.224004","304842.052069","305608.828194","309508.841272","310275.302039","311042.033024","311808.437831","312575.06277","313341.866411","299475.22456","300241.950908","312585.407087","Mapping"
"Mixed","both","done","42","M_cling.wav","space","559.361099731","328","308742.163464","301008.500408","301775.28117","302541.912601","303308.615142","304075.224004","304842.052069","305608.828194","309508.841272","310275.302039","311042.033024","311808.437831","312575.06277","313341.866411","314109.01849","300241.950908","313351.262803","Mapping"
"Mixed","both","done","42","F_park.wav","None","722.891771235","328","308742.163464","301008.500408","301775.28117","302541.912601","303308.615142","304075.224004","304842.052069","305608.828194","309508.841272","310275.302039","311042.033024","311808.437831","312575.06277","313341.866411","314109.01849","314874.918108","314118.506706","Mapping"
"Mixed","both","done","42","M_lash.wav","None","727.493504994","328","308742.163464","315641.66146","301775.28117","302541.912601","303308.615142","304075.224004","304842.052069","305608.828194","309508.841272","310275.302039","311042.033024","311808.437831","312575.06277","313341.866411","314109.01849","314874.918108","314883.940709","Mapping"
"Mixed","both","done","42","F_reek.wav","None","726.664920803","328","308742.163464","315641.66146","316408.475303","302541.912601","303308.615142","304075.224004","304842.052069","305608.828194","309508.841272","310275.302039","311042.033024","311808.437831","312575.06277","313341.866411","314109.01849","314874.918108","315650.816078","Mapping"
"Mixed","both","done","42","F_done.wav","None","725.736164488","328","308742.163464","315641.66146","316408.475303","317175.205051","303308.615142","304075.224004","304842.052069","305608.828194","309508.841272","310275.302039","311042.033024","311808.437831","312575.06277","313341.866411","314109.01849","314874.918108","316417.648781","Mapping"
"Mixed","both","done","42","F_depth.wav","space","622.305053286","328","308742.163464","315641.66146","316408.475303","317175.205051","317941.659635","304075.224004","304842.052069","305608.828194","309508.841272","310275.302039","311042.033024","311808.437831","312575.06277","313341.866411","314109.01849","314874.918108","317184.327516","Mapping"
"Mixed","both","done","42","M_done.wav","None","727.14506695","328","308742.163464","315641.66146","316408.475303","317175.205051","317941.659635","318708.278081","304842.052069","305608.828194","309508.841272","310275.302039","311042.033024","311808.437831","312575.06277","313341.866411","314109.01849","314874.918108","317950.685329","Mapping"
"Mixed","both","done","42","M_bluff.wav","None","727.584092878","328","308742.163464","315641.66146","316408.475303","317175.205051","317941.659635","318708.278081","319475.00783","305608.828194","309508.841272","310275.302039","311042.033024","311808.437831","312575.06277","313341.866411","314109.01849","314874.918108","318717.932324","Mapping"
"Mixed","both","done","42","F_priest.wav","space","0.0272076576948","328","308742.163464","315641.66146","316408.475303","317175.205051","317941.659635","318708.278081","319475.00783","320241.86774","309508.841272","310275.302039","311042.033024","311808.437831","312575.06277","313341.866411","314109.01849","314874.918108","319484.597455","Mapping"
"Mixed","both","tile","34","F_gnash.wav","None","724.394043908","328","323375.639563","315641.66146","316408.475303","317175.205051","317941.659635","318708.278081","319475.00783","320241.86774","309508.841272","310275.302039","311042.033024","311808.437831","312575.06277","313341.866411","314109.01849","314874.918108","320251.501577","Mapping"
"Mixed","both","tile","34","F_tile.wav","None","727.250803728","328","323375.639563","315641.66146","316408.475303","317175.205051","317941.659635","318708.278081","319475.00783","320241.86774","324141.492188","310275.302039","311042.033024","311808.437831","312575.06277","313341.866411","314109.01849","314874.918108","323384.859727","Mapping"
"Mixed","both","tile","34","M_bluff.wav","None","727.119096089","328","323375.639563","315641.66146","316408.475303","317175.205051","317941.659635","318708.278081","319475.00783","320241.86774","324141.492188","324908.157318","311042.033024","311808.437831","312575.06277","313341.866411","314109.01849","314874.918108","324150.619908","Mapping"
"Mixed","both","tile","34","M_tile.wav","space","209.227397572","328","323375.639563","315641.66146","316408.475303","317175.205051","317941.659635","318708.278081","319475.00783","320241.86774","324141.492188","324908.157318","325674.677757","311808.437831","312575.06277","313341.866411","314109.01849","314874.918108","324917.222277","Mapping"
"Mixed","both","tile","34","F_dime.wav","space","570.432901382","328","323375.639563","315641.66146","316408.475303","317175.205051","317941.659635","318708.278081","319475.00783","320241.86774","324141.492188","324908.157318","325674.677757","326441.434403","312575.06277","313341.866411","314109.01849","314874.918108","325683.987271","Mapping"
"Mixed","both","tile","34","M_dime.wav","None","729.735629167","328","323375.639563","315641.66146","316408.475303","317175.205051","317941.659635","318708.278081","319475.00783","320241.86774","324141.492188","324908.157318","325674.677757","326441.434403","327208.106336","313341.866411","314109.01849","314874.918108","326450.803278","Mapping"
"Mixed","both","tile","34","F_tile.wav","None","733.471987303","328","323375.639563","315641.66146","316408.475303","317175.205051","317941.659635","318708.278081","319475.00783","320241.86774","324141.492188","324908.157318","325674.677757","326441.434403","327208.106336","327974.788781","314109.01849","314874.918108","327217.432855","Mapping"
"Mixed","both","tile","34","M_priest.wav","space","542.436340358","328","323375.639563","315641.66146","316408.475303","317175.205051","317941.659635","318708.278081","319475.00783","320241.86774","324141.492188","324908.157318","325674.677757","326441.434403","327208.106336","327974.788781","328741.371981","314874.918108","327983.948655","Mapping"
"Mixed","both","tile","34","M_tile.wav","None","734.044266865","328","323375.639563","315641.66146","316408.475303","317175.205051","317941.659635","318708.278081","319475.00783","320241.86774","324141.492188","324908.157318","325674.677757","326441.434403","327208.106336","327974.788781","328741.371981","329508.354323","328750.761571","Mapping"
"Mixed","both","tile","34","F_cling.wav","space","594.506054185","328","323375.639563","330291.52683","316408.475303","317175.205051","317941.659635","318708.278081","319475.00783","320241.86774","324141.492188","324908.157318","325674.677757","326441.434403","327208.106336","327974.788781","328741.371981","329508.354323","329515.821165","Mapping"
"Mixed","both","tile","34","F_dime.wav","None","720.980462153","328","323375.639563","330291.52683","331058.602234","317175.205051","317941.659635","318708.278081","319475.00783","320241.86774","324141.492188","324908.157318","325674.677757","326441.434403","327208.106336","327974.788781","328741.371981","329508.354323","330300.722878","Mapping"
"Mixed","both","tile","34","F_cling.wav","None","721.102276817","328","323375.639563","330291.52683","331058.602234","331824.955719","317941.659635","318708.278081","319475.00783","320241.86774","324141.492188","324908.157318","325674.677757","326441.434403","327208.106336","327974.788781","328741.371981","329508.354323","331067.918859","Mapping"
"Mixed","both","tile","34","F_gnash.wav","None","721.826051362","328","323375.639563","330291.52683","331058.602234","331824.955719","332591.912091","318708.278081","319475.00783","320241.86774","324141.492188","324908.157318","325674.677757","326441.434403","327208.106336","327974.788781","328741.371981","329508.354323","331834.091168","Mapping"
"Mixed","both","tile","34","M_gnash.wav","None","721.451333258","328","323375.639563","330291.52683","331058.602234","331824.955719","332591.912091","333358.533938","319475.00783","320241.86774","324141.492188","324908.157318","325674.677757","326441.434403","327208.106336","327974.788781","328741.371981","329508.354323","332600.772377","Mapping"
"Mixed","both","tile","34","M_dime.wav","None","726.35420179","328","323375.639563","330291.52683","331058.602234","331824.955719","332591.912091","333358.533938","334125.340052","320241.86774","324141.492188","324908.157318","325674.677757","326441.434403","327208.106336","327974.788781","328741.371981","329508.354323","333362.293175","Mapping"
"Mixed","both","tile","34","M_bluff.wav","None","720.553185325","328","323375.639563","330291.52683","331058.602234","331824.955719","332591.912091","333358.533938","334125.340052","334875.157408","324141.492188","324908.157318","325674.677757","326441.434403","327208.106336","327974.788781","328741.371981","329508.354323","334134.422633","Mapping"
"Mixed","both","tile","26","F_cad.wav","None","736.079553608","328","338024.812386","330291.52683","331058.602234","331824.955719","332591.912091","333358.533938","334125.340052","334875.157408","324141.492188","324908.157318","325674.677757","326441.434403","327208.106336","327974.788781","328741.371981","329508.354323","334884.432604","Mapping"
"Mixed","both","tile","26","F_tile.wav","None","726.315863896","328","338024.812386","330291.52683","331058.602234","331824.955719","332591.912091","333358.533938","334125.340052","334875.157408","338791.173291","324908.157318","325674.677757","326441.434403","327208.106336","327974.788781","328741.371981","329508.354323","338034.218053","Mapping"
"Mixed","both","tile","26","M_jaw.wav","space","502.015963662","328","338024.812386","330291.52683","331058.602234","331824.955719","332591.912091","333358.533938","334125.340052","334875.157408","338791.173291","339557.873049","325674.677757","326441.434403","327208.106336","327974.788781","328741.371981","329508.354323","338800.178888","Mapping"
"Mixed","both","tile","26","F_jaw.wav","None","730.823300313","328","338024.812386","330291.52683","331058.602234","331824.955719","332591.912091","333358.533938","334125.340052","334875.157408","338791.173291","339557.873049","340324.440172","326441.434403","327208.106336","327974.788781","328741.371981","329508.354323","339567.006953","Mapping"
"Mixed","both","tile","26","M_gnash.wav","None","735.919402447","328","338024.812386","330291.52683","331058.602234","331824.955719","332591.912091","333358.533938","334125.340052","334875.157408","338791.173291","339557.873049","340324.440172","341091.198056","327208.106336","327974.788781","328741.371981","329508.354323","340333.044153","Mapping"
"Mixed","both","tile","26","F_reek.wav","None","734.470307361","328","338024.812386","330291.52683","331058.602234","331824.955719","332591.912091","333358.533938","334125.340052","334875.157408","338791.173291","339557.873049","340324.440172","341091.198056","341857.879882","327974.788781","328741.371981","329508.354323","341099.943947","Mapping"
"Mixed","both","tile","26","M_knife.wav","None","733.406442683","328","338024.812386","330291.52683","331058.602234","331824.955719","332591.912091","333358.533938","334125.340052","334875.157408","338791.173291","339557.873049","340324.440172","341091.198056","341857.879882","342624.458445","328741.371981","329508.354323","341867.227424","Mapping"
"Mixed","both","tile","26","F_bluff.wav","None","736.346988939","328","338024.812386","330291.52683","331058.602234","331824.955719","332591.912091","333358.533938","334125.340052","334875.157408","338791.173291","339557.873049","340324.440172","341091.198056","341857.879882","342624.458445","343390.922304","329508.354323","342633.601933","Mapping"
"Mixed","both","tile","26","M_depth.wav","None","742.102866061","328","338024.812386","330291.52683","331058.602234","331824.955719","332591.912091","333358.533938","334125.340052","334875.157408","338791.173291","339557.873049","340324.440172","341091.198056","341857.879882","342624.458445","343390.922304","344158.207946","343394.644131","Mapping"
"Mixed","both","tile","26","M_tile.wav","None","736.315762158","328","338024.812386","344924.427558","331058.602234","331824.955719","332591.912091","333358.533938","334125.340052","334875.157408","338791.173291","339557.873049","340324.440172","341091.198056","341857.879882","342624.458445","343390.922304","344158.207946","344167.374004","Mapping"
"Mixed","both","tile","26","M_bluff.wav","space","576.33810956","328","338024.812386","344924.427558","345690.768985","331824.955719","332591.912091","333358.533938","334125.340052","334875.157408","338791.173291","339557.873049","340324.440172","341091.198056","341857.879882","342624.458445","343390.922304","344158.207946","344933.727797","Mapping"
"Mixed","both","tile","26","M_tile.wav","None","736.052964814","328","338024.812386","344924.427558","345690.768985","346457.904059","332591.912091","333358.533938","334125.340052","334875.157408","338791.173291","339557.873049","340324.440172","341091.198056","341857.879882","342624.458445","343390.922304","344158.207946","345700.325219","Mapping"
"Mixed","both","tile","26","F_bluff.wav","space","602.940299083","328","338024.812386","344924.427558","345690.768985","346457.904059","347224.729651","333358.533938","334125.340052","334875.157408","338791.173291","339557.873049","340324.440172","341091.198056","341857.879882","342624.458445","343390.922304","344158.207946","346467.120512","Mapping"
"Mixed","both","tile","26","F_tile.wav","None","733.483117074","328","338024.812386","344924.427558","345690.768985","346457.904059","347224.729651","347991.336348","334125.340052","334875.157408","338791.173291","339557.873049","340324.440172","341091.198056","341857.879882","342624.458445","343390.922304","344158.207946","347234.157888","Mapping"
"Mixed","both","tile","26","M_depth.wav","space","565.400797874","328","338024.812386","344924.427558","345690.768985","346457.904059","347224.729651","347991.336348","348757.589043","334875.157408","338791.173291","339557.873049","340324.440172","341091.198056","341857.879882","342624.458445","343390.922304","344158.207946","348000.614327","Mapping"
"Mixed","both","tile","26","F_gnash.wav","None","735.555196181","328","338024.812386","344924.427558","345690.768985","346457.904059","347224.729651","347991.336348","348757.589043","349524.024458","338791.173291","339557.873049","340324.440172","341091.198056","341857.879882","342624.458445","343390.922304","344158.207946","348766.640397","Mapping"
"Mixed","both","tile","29","F_knife.wav","None","736.621225718","328","352657.910367","344924.427558","345690.768985","346457.904059","347224.729651","347991.336348","348757.589043","349524.024458","338791.173291","339557.873049","340324.440172","341091.198056","341857.879882","342624.458445","343390.922304","344158.207946","349532.952143","Mapping"
"Mixed","both","tile","29","M_tile.wav","None","722.937838174","328","352657.910367","344924.427558","345690.768985","346457.904059","347224.729651","347991.336348","348757.589043","349524.024458","353424.562822","339557.873049","340324.440172","341091.198056","341857.879882","342624.458445","343390.922304","344158.207946","352667.324999","Mapping"
"Mixed","both","tile","29","M_cad.wav","space","481.760481372","328","352657.910367","344924.427558","345690.768985","346457.904059","347224.729651","347991.336348","348757.589043","349524.024458","353424.562822","354191.188997","340324.440172","341091.198056","341857.879882","342624.458445","343390.922304","344158.207946","353428.214157","Mapping"
"Mixed","both","tile","29","F_cad.wav","None","722.182836849","328","352657.910367","344924.427558","345690.768985","346457.904059","347224.729651","347991.336348","348757.589043","349524.024458","353424.562822","354191.188997","354957.937296","341091.198056","341857.879882","342624.458445","343390.922304","344158.207946","354200.358146","Mapping"
"Mixed","both","tile","29","M_tile.wav","None","722.896099556","328","352657.910367","344924.427558","345690.768985","346457.904059","347224.729651","347991.336348","348757.589043","349524.024458","353424.562822","354191.188997","354957.937296","355724.807717","341857.879882","342624.458445","343390.922304","344158.207946","354967.062851","Mapping"
"Mixed","both","tile","29","F_priest.wav","space","591.494398192","328","352657.910367","344924.427558","345690.768985","346457.904059","347224.729651","347991.336348","348757.589043","349524.024458","353424.562822","354191.188997","354957.937296","355724.807717","356491.228293","342624.458445","343390.922304","344158.207946","355734.404454","Mapping"
"Mixed","both","tile","29","M_greet.wav","None","721.903963014","328","352657.910367","344924.427558","345690.768985","346457.904059","347224.729651","347991.336348","348757.589043","349524.024458","353424.562822","354191.188997","354957.937296","355724.807717","356491.228293","357257.579613","343390.922304","344158.207946","356500.616955","Mapping"
"Mixed","both","tile","29","F_tile.wav","None","725.779139902","328","352657.910367","344924.427558","345690.768985","346457.904059","347224.729651","347991.336348","348757.589043","349524.024458","353424.562822","354191.188997","354957.937296","355724.807717","356491.228293","357257.579613","358024.452818","344158.207946","357266.610871","Mapping"
"Mixed","both","tile","29","F_reek.wav","space","524.097731803","328","352657.910367","344924.427558","345690.768985","346457.904059","347224.729651","347991.336348","348757.589043","349524.024458","353424.562822","354191.188997","354957.937296","355724.807717","356491.228293","357257.579613","358024.452818","358791.350138","358033.65103","Mapping"
"Mixed","both","tile","29","F_cad.wav","None","723.024097271","328","352657.910367","359558.423687","345690.768985","346457.904059","347224.729651","347991.336348","348757.589043","349524.024458","353424.562822","354191.188997","354957.937296","355724.807717","356491.228293","357257.579613","358024.452818","358791.350138","358801.2174","Mapping"
"Mixed","both","tile","29","F_depth.wav","None","722.022994421","328","352657.910367","359558.423687","360324.634024","346457.904059","347224.729651","347991.336348","348757.589043","349524.024458","353424.562822","354191.188997","354957.937296","355724.807717","356491.228293","357257.579613","358024.452818","358791.350138","359568.047939","Mapping"
"Mixed","both","tile","29","M_jolt.wav","None","720.609145705","328","352657.910367","359558.423687","360324.634024","361091.131583","347224.729651","347991.336348","348757.589043","349524.024458","353424.562822","354191.188997","354957.937296","355724.807717","356491.228293","357257.579613","358024.452818","358791.350138","360334.87384","Mapping"
"Mixed","both","tile","29","F_tile.wav","None","719.475097954","328","352657.910367","359558.423687","360324.634024","361091.131583","361841.290885","347991.336348","348757.589043","349524.024458","353424.562822","354191.188997","354957.937296","355724.807717","356491.228293","357257.579613","358024.452818","358791.350138","361101.723857","Mapping"
"Mixed","both","tile","29","M_jaw.wav","space","555.481594522","328","352657.910367","359558.423687","360324.634024","361091.131583","361841.290885","362607.417127","348757.589043","349524.024458","353424.562822","354191.188997","354957.937296","355724.807717","356491.228293","357257.579613","358024.452818","358791.350138","361850.327399","Mapping"
"Mixed","both","tile","29","M_knife.wav","None","736.462619621","328","352657.910367","359558.423687","360324.634024","361091.131583","361841.290885","362607.417127","363374.241791","349524.024458","353424.562822","354191.188997","354957.937296","355724.807717","356491.228293","357257.579613","358024.452818","358791.350138","362616.649657","Mapping"
"Mixed","both","tile","29","M_romp.wav","None","736.148190685","328","352657.910367","359558.423687","360324.634024","361091.131583","361841.290885","362607.417127","363374.241791","364158.527631","353424.562822","354191.188997","354957.937296","355724.807717","356491.228293","357257.579613","358024.452818","358791.350138","363383.338904","Mapping"
"Mixed","both","cave","20","F_park.wav","None","719.58825551","328","367274.417804","359558.423687","360324.634024","361091.131583","361841.290885","362607.417127","363374.241791","364158.527631","353424.562822","354191.188997","354957.937296","355724.807717","356491.228293","357257.579613","358024.452818","358791.350138","364167.886612","Mapping"
"Mixed","both","cave","20","F_greet.wav","None","721.806882415","328","367274.417804","359558.423687","360324.634024","361091.131583","361841.290885","362607.417127","363374.241791","364158.527631","368041.091901","354191.188997","354957.937296","355724.807717","356491.228293","357257.579613","358024.452818","358791.350138","367284.073592","Mapping"
"Mixed","both","cave","20","M_park.wav","None","721.474830527","328","367274.417804","359558.423687","360324.634024","361091.131583","361841.290885","362607.417127","363374.241791","364158.527631","368041.091901","368808.173488","354957.937296","355724.807717","356491.228293","357257.579613","358024.452818","358791.350138","368050.214056","Mapping"
"Mixed","both","cave","20","M_cave.wav","None","720.721684862","328","367274.417804","359558.423687","360324.634024","361091.131583","361841.290885","362607.417127","363374.241791","364158.527631","368041.091901","368808.173488","369574.033223","355724.807717","356491.228293","357257.579613","358024.452818","358791.350138","368818.639001","Mapping"
"Mixed","both","cave","20","M_jaw.wav","None","721.907363739","328","367274.417804","359558.423687","360324.634024","361091.131583","361841.290885","362607.417127","363374.241791","364158.527631","368041.091901","368808.173488","369574.033223","370340.667746","356491.228293","357257.579613","358024.452818","358791.350138","369583.130645","Mapping"
"Mixed","both","cave","20","F_park.wav","space","0.0315359793603","328","367274.417804","359558.423687","360324.634024","361091.131583","361841.290885","362607.417127","363374.241791","364158.527631","368041.091901","368808.173488","369574.033223","370340.667746","371107.681006","357257.579613","358024.452818","358791.350138","370349.95129","Mapping"
"Mixed","both","cave","20","M_cave.wav","None","722.944330424","328","367274.417804","359558.423687","360324.634024","361091.131583","361841.290885","362607.417127","363374.241791","364158.527631","368041.091901","368808.173488","369574.033223","370340.667746","371107.681006","371874.284612","358024.452818","358791.350138","371116.928068","Mapping"
"Mixed","both","cave","20","F_cling.wav","space","577.874390874","328","367274.417804","359558.423687","360324.634024","361091.131583","361841.290885","362607.417127","363374.241791","364158.527631","368041.091901","368808.173488","369574.033223","370340.667746","371107.681006","371874.284612","372640.958091","358791.350138","371883.628753","Mapping"
"Mixed","both","cave","20","F_gnash.wav","None","723.112520762","328","367274.417804","359558.423687","360324.634024","361091.131583","361841.290885","362607.417127","363374.241791","364158.527631","368041.091901","368808.173488","369574.033223","370340.667746","371107.681006","371874.284612","372640.958091","373407.546238","372650.854107","Mapping"
"Mixed","both","cave","20","F_cave.wav","None","721.844910644","328","367274.417804","374174.409549","360324.634024","361091.131583","361841.290885","362607.417127","363374.241791","364158.527631","368041.091901","368808.173488","369574.033223","370340.667746","371107.681006","371874.284612","372640.958091","373407.546238","373417.789764","Mapping"
"Mixed","both","cave","20","F_depth.wav","space","677.885119338","328","367274.417804","374174.409549","374941.221537","361091.131583","361841.290885","362607.417127","363374.241791","364158.527631","368041.091901","368808.173488","369574.033223","370340.667746","371107.681006","371874.284612","372640.958091","373407.546238","374183.711952","Mapping"
"Mixed","both","cave","20","M_gnash.wav","None","723.998302128","328","367274.417804","374174.409549","374941.221537","375707.262448","361841.290885","362607.417127","363374.241791","364158.527631","368041.091901","368808.173488","369574.033223","370340.667746","371107.681006","371874.284612","372640.958091","373407.546238","374950.684092","Mapping"
"Mixed","both","cave","20","M_knife.wav","None","724.909126293","328","367274.417804","374174.409549","374941.221537","375707.262448","376474.474815","362607.417127","363374.241791","364158.527631","368041.091901","368808.173488","369574.033223","370340.667746","371107.681006","371874.284612","372640.958091","373407.546238","375716.389549","Mapping"
"Mixed","both","cave","20","M_dime.wav","None","723.797030281","328","367274.417804","374174.409549","374941.221537","375707.262448","376474.474815","377240.663201","363374.241791","364158.527631","368041.091901","368808.173488","369574.033223","370340.667746","371107.681006","371874.284612","372640.958091","373407.546238","376483.659733","Mapping"
"Mixed","both","cave","20","F_cave.wav","None","724.865532946","328","367274.417804","374174.409549","374941.221537","375707.262448","376474.474815","377240.663201","378007.248256","364158.527631","368041.091901","368808.173488","369574.033223","370340.667746","371107.681006","371874.284612","372640.958091","373407.546238","377249.787211","Mapping"
"Mixed","both","cave","20","M_greet.wav","space","683.712106664","328","367274.417804","374174.409549","374941.221537","375707.262448","376474.474815","377240.663201","378007.248256","378774.241111","368041.091901","368808.173488","369574.033223","370340.667746","371107.681006","371874.284612","372640.958091","373407.546238","378017.752725","Mapping"
"Mixed","both","ball","1","F_jaw.wav","None","722.97370201","328","381907.814445","374174.409549","374941.221537","375707.262448","376474.474815","377240.663201","378007.248256","378774.241111","368041.091901","368808.173488","369574.033223","370340.667746","371107.681006","371874.284612","372640.958091","373407.546238","378783.155193","Mapping"
"Mixed","both","ball","1","F_ball.wav","None","721.027147956","328","381907.814445","374174.409549","374941.221537","375707.262448","376474.474815","377240.663201","378007.248256","378774.241111","382674.017981","368808.173488","369574.033223","370340.667746","371107.681006","371874.284612","372640.958091","373407.546238","381918.992602","Mapping"
"Mixed","both","ball","1","M_lash.wav","space","522.056261543","328","381907.814445","374174.409549","374941.221537","375707.262448","376474.474815","377240.663201","378007.248256","378774.241111","382674.017981","383440.386306","369574.033223","370340.667746","371107.681006","371874.284612","372640.958091","373407.546238","382683.342644","Mapping"
"Mixed","both","ball","1","M_reek.wav","None","726.972548291","328","381907.814445","374174.409549","374941.221537","375707.262448","376474.474815","377240.663201","378007.248256","378774.241111","382674.017981","383440.386306","384207.111726","370340.667746","371107.681006","371874.284612","372640.958091","373407.546238","383449.462085","Mapping"
"Mixed","both","ball","1","M_ball.wav","None","729.956997093","328","381907.814445","374174.409549","374941.221537","375707.262448","376474.474815","377240.663201","378007.248256","378774.241111","382674.017981","383440.386306","384207.111726","384973.668337","371107.681006","371874.284612","372640.958091","373407.546238","384216.735669","Mapping"
"Mixed","both","ball","1","M_knife.wav","space","622.504779138","328","381907.814445","374174.409549","374941.221537","375707.262448","376474.474815","377240.663201","378007.248256","378774.241111","382674.017981","383440.386306","384207.111726","384973.668337","385740.437969","371874.284612","372640.958091","373407.546238","384982.831303","Mapping"
"Mixed","both","ball","1","M_gnash.wav","None","734.784736764","328","381907.814445","374174.409549","374941.221537","375707.262448","376474.474815","377240.663201","378007.248256","378774.241111","382674.017981","383440.386306","384207.111726","384973.668337","385740.437969","386506.984686","372640.958091","373407.546238","385749.727696","Mapping"
"Mixed","both","ball","1","F_depth.wav","None","735.212323256","328","381907.814445","374174.409549","374941.221537","375707.262448","376474.474815","377240.663201","378007.248256","378774.241111","382674.017981","383440.386306","384207.111726","384973.668337","385740.437969","386506.984686","387273.399696","373407.546238","386516.117353","Mapping"
"Mixed","both","ball","1","M_jaw.wav","None","736.837646458","328","381907.814445","374174.409549","374941.221537","375707.262448","376474.474815","377240.663201","378007.248256","378774.241111","382674.017981","383440.386306","384207.111726","384973.668337","385740.437969","386506.984686","387273.399696","388040.213849","387282.394473","Mapping"
"Mixed","both","ball","1","M_ball.wav","None","735.125136096","328","381907.814445","388806.745108","374941.221537","375707.262448","376474.474815","377240.663201","378007.248256","378774.241111","382674.017981","383440.386306","384207.111726","384973.668337","385740.437969","386506.984686","387273.399696","388040.213849","388049.911685","Mapping"
"Mixed","both","ball","1","F_jolt.wav","space","461.316094734","328","381907.814445","388806.745108","389573.540092","375707.262448","376474.474815","377240.663201","378007.248256","378774.241111","382674.017981","383440.386306","384207.111726","384973.668337","385740.437969","386506.984686","387273.399696","388040.213849","388815.976401","Mapping"
"Mixed","both","ball","1","F_ball.wav","None","735.97567156","328","381907.814445","388806.745108","389573.540092","390340.62508","376474.474815","377240.663201","378007.248256","378774.241111","382674.017981","383440.386306","384207.111726","384973.668337","385740.437969","386506.984686","387273.399696","388040.213849","389582.674305","Mapping"
"Mixed","both","ball","1","F_romp.wav","space","519.689850044","328","381907.814445","388806.745108","389573.540092","390340.62508","391107.165305","377240.663201","378007.248256","378774.241111","382674.017981","383440.386306","384207.111726","384973.668337","385740.437969","386506.984686","387273.399696","388040.213849","390349.624803","Mapping"
"Mixed","both","ball","1","F_greet.wav","None","735.909818206","328","381907.814445","388806.745108","389573.540092","390340.62508","391107.165305","391873.558673","378007.248256","378774.241111","382674.017981","383440.386306","384207.111726","384973.668337","385740.437969","386506.984686","387273.399696","388040.213849","391116.174612","Mapping"
"Mixed","both","ball","1","F_lash.wav","None","735.977217555","328","381907.814445","388806.745108","389573.540092","390340.62508","391107.165305","391873.558673","392657.28831","378774.241111","382674.017981","383440.386306","384207.111726","384973.668337","385740.437969","386506.984686","387273.399696","388040.213849","391882.896322","Mapping"
"Mixed","both","ball","1","M_depth.wav","None","721.215743106","328","381907.814445","388806.745108","389573.540092","390340.62508","391107.165305","391873.558673","392657.28831","393423.911394","382674.017981","383440.386306","384207.111726","384973.668337","385740.437969","386506.984686","387273.399696","388040.213849","392666.549902","Mapping"
"Mixed","both","tile","25","M_cad.wav","None","720.092826523","328","396557.380536","388806.745108","389573.540092","390340.62508","391107.165305","391873.558673","392657.28831","393423.911394","382674.017981","383440.386306","384207.111726","384973.668337","385740.437969","386506.984686","387273.399696","388040.213849","393433.426508","Mapping"
"Mixed","both","tile","25","F_depth.wav","None","721.917875577","328","396557.380536","388806.745108","389573.540092","390340.62508","391107.165305","391873.558673","392657.28831","393423.911394","397323.89881","383440.386306","384207.111726","384973.668337","385740.437969","386506.984686","387273.399696","388040.213849","396566.520314","Mapping"
"Mixed","both","tile","25","F_tile.wav","None","722.907538991","328","396557.380536","388806.745108","389573.540092","390340.62508","391107.165305","391873.558673","392657.28831","393423.911394","397323.89881","398090.729967","384207.111726","384973.668337","385740.437969","386506.984686","387273.399696","388040.213849","397333.223783","Mapping"
"Mixed","both","tile","25","F_priest.wav","space","368.822294287","328","396557.380536","388806.745108","389573.540092","390340.62508","391107.165305","391873.558673","392657.28831","393423.911394","397323.89881","398090.729967","398857.508565","384973.668337","385740.437969","386506.984686","387273.399696","388040.213849","398100.255903","Mapping"
"Mixed","both","tile","25","F_jolt.wav","None","720.348512288","328","396557.380536","388806.745108","389573.540092","390340.62508","391107.165305","391873.558673","392657.28831","393423.911394","397323.89881","398090.729967","398857.508565","399623.65614","385740.437969","386506.984686","387273.399696","388040.213849","398868.15278","Mapping"
"Mixed","both","tile","25","M_tile.wav","None","722.829008941","328","396557.380536","388806.745108","389573.540092","390340.62508","391107.165305","391873.558673","392657.28831","393423.911394","397323.89881","398090.729967","398857.508565","399623.65614","400390.585305","386506.984686","387273.399696","388040.213849","399632.624946","Mapping"
"Mixed","both","tile","25","M_gnash.wav","space","517.282627523","328","396557.380536","388806.745108","389573.540092","390340.62508","391107.165305","391873.558673","392657.28831","393423.911394","397323.89881","398090.729967","398857.508565","399623.65614","400390.585305","401156.739064","387273.399696","388040.213849","400399.750126","Mapping"
"Mixed","both","tile","25","F_park.wav","None","721.317152027","328","396557.380536","388806.745108","389573.540092","390340.62508","391107.165305","391873.558673","392657.28831","393423.911394","397323.89881","398090.729967","398857.508565","399623.65614","400390.585305","401156.739064","401923.724498","388040.213849","401165.95057","Mapping"
"Mixed","both","tile","25","M_tile.wav","None","718.818723224","328","396557.380536","388806.745108","389573.540092","390340.62508","391107.165305","391873.558673","392657.28831","393423.911394","397323.89881","398090.729967","398857.508565","399623.65614","400390.585305","401156.739064","401923.724498","402690.749816","401934.885342","Mapping"
"Mixed","both","tile","25","F_greet.wav","space","457.167608663","328","396557.380536","403457.036829","389573.540092","390340.62508","391107.165305","391873.558673","392657.28831","393423.911394","397323.89881","398090.729967","398857.508565","399623.65614","400390.585305","401156.739064","401923.724498","402690.749816","402699.932878","Mapping"
"Mixed","both","tile","25","F_tile.wav","None","722.184692044","328","396557.380536","403457.036829","404223.835213","390340.62508","391107.165305","391873.558673","392657.28831","393423.911394","397323.89881","398090.729967","398857.508565","399623.65614","400390.585305","401156.739064","401923.724498","402690.749816","403466.153419","Mapping"
"Mixed","both","tile","25","M_priest.wav","space","643.843603786","328","396557.380536","403457.036829","404223.835213","404990.342975","391107.165305","391873.558673","392657.28831","393423.911394","397323.89881","398090.729967","398857.508565","399623.65614","400390.585305","401156.739064","401923.724498","402690.749816","404233.178427","Mapping"
"Mixed","both","tile","25","M_romp.wav","None","722.794690635","328","396557.380536","403457.036829","404223.835213","404990.342975","405757.286671","391873.558673","392657.28831","393423.911394","397323.89881","398090.729967","398857.508565","399623.65614","400390.585305","401156.739064","401923.724498","402690.749816","404999.346717","Mapping"
"Mixed","both","tile","25","F_greet.wav","None","722.337733023","328","396557.380536","403457.036829","404223.835213","404990.342975","405757.286671","406523.931397","392657.28831","393423.911394","397323.89881","398090.729967","398857.508565","399623.65614","400390.585305","401156.739064","401923.724498","402690.749816","405767.017279","Mapping"
"Mixed","both","tile","25","M_jolt.wav","None","723.093970213","328","396557.380536","403457.036829","404223.835213","404990.342975","405757.286671","406523.931397","407290.046818","393423.911394","397323.89881","398090.729967","398857.508565","399623.65614","400390.585305","401156.739064","401923.724498","402690.749816","406532.944414","Mapping"
"Mixed","both","tile","25","M_lash.wav","None","725.151517894","328","396557.380536","403457.036829","404223.835213","404990.342975","405757.286671","406523.931397","407290.046818","408056.541904","397323.89881","398090.729967","398857.508565","399623.65614","400390.585305","401156.739064","401923.724498","402690.749816","407299.35726","Mapping"
"Mixed","both","cave","13","M_romp.wav","None","725.577249657","328","411190.038872","403457.036829","404223.835213","404990.342975","405757.286671","406523.931397","407290.046818","408056.541904","397323.89881","398090.729967","398857.508565","399623.65614","400390.585305","401156.739064","401923.724498","402690.749816","408065.71229","Mapping"
"Mixed","both","cave","13","M_cave.wav","None","723.431587685","328","411190.038872","403457.036829","404223.835213","404990.342975","405757.286671","406523.931397","407290.046818","408056.541904","411957.036983","398090.729967","398857.508565","399623.65614","400390.585305","401156.739064","401923.724498","402690.749816","411199.29459","Mapping"
"Mixed","both","cave","13","M_depth.wav","space","486.446929164","328","411190.038872","403457.036829","404223.835213","404990.342975","405757.286671","406523.931397","407290.046818","408056.541904","411957.036983","412723.504243","398857.508565","399623.65614","400390.585305","401156.739064","401923.724498","402690.749816","411966.446979","Mapping"
"Mixed","both","cave","13","M_cave.wav","None","727.017996833","328","411190.038872","403457.036829","404223.835213","404990.342975","405757.286671","406523.931397","407290.046818","408056.541904","411957.036983","412723.504243","413489.837013","399623.65614","400390.585305","401156.739064","401923.724498","402690.749816","412732.808811","Mapping"
"Mixed","both","cave","13","M_greet.wav","space","466.039333493","328","411190.038872","403457.036829","404223.835213","404990.342975","405757.286671","406523.931397","407290.046818","408056.541904","411957.036983","412723.504243","413489.837013","414256.74701","400390.585305","401156.739064","401923.724498","402690.749816","413498.810456","Mapping"
"Mixed","both","cave","13","F_jaw.wav","None","726.881342009","328","411190.038872","403457.036829","404223.835213","404990.342975","405757.286671","406523.931397","407290.046818","408056.541904","411957.036983","412723.504243","413489.837013","414256.74701","415023.104822","401156.739064","401923.724498","402690.749816","414265.787234","Mapping"
"Mixed","both","cave","13","M_park.wav","None","725.918267388","328","411190.038872","403457.036829","404223.835213","404990.342975","405757.286671","406523.931397","407290.046818","408056.541904","411957.036983","412723.504243","413489.837013","414256.74701","415023.104822","415789.98421","401923.724498","402690.749816","415032.844397","Mapping"
"Mixed","both","cave","13","F_cling.wav","None","726.536613889","328","411190.038872","403457.036829","404223.835213","404990.342975","405757.286671","406523.931397","407290.046818","408056.541904","411957.036983","412723.504243","413489.837013","414256.74701","415023.104822","415789.98421","416556.916777","402690.749816","415799.131409","Mapping"
"Mixed","both","cave","13","F_jaw.wav","None","726.516208611","328","411190.038872","403457.036829","404223.835213","404990.342975","405757.286671","406523.931397","407290.046818","408056.541904","411957.036983","412723.504243","413489.837013","414256.74701","415023.104822","415789.98421","416556.916777","417323.048893","416566.271121","Mapping"
"Mixed","both","cave","13","M_bluff.wav","None","729.649988469","328","411190.038872","418089.739995","404223.835213","404990.342975","405757.286671","406523.931397","407290.046818","408056.541904","411957.036983","412723.504243","413489.837013","414256.74701","415023.104822","415789.98421","416556.916777","417323.048893","417332.08819","Mapping"
"Mixed","both","cave","13","F_cave.wav","None","728.817693889","328","411190.038872","418089.739995","418856.673179","404990.342975","405757.286671","406523.931397","407290.046818","408056.541904","411957.036983","412723.504243","413489.837013","414256.74701","415023.104822","415789.98421","416556.916777","417323.048893","418098.902961","Mapping"
"Mixed","both","cave","13","M_jaw.wav","space","610.624180641","328","411190.038872","418089.739995","418856.673179","419623.252669","405757.286671","406523.931397","407290.046818","408056.541904","411957.036983","412723.504243","413489.837013","414256.74701","415023.104822","415789.98421","416556.916777","417323.048893","418866.03247","Mapping"
"Mixed","both","cave","13","F_gnash.wav","None","730.534223374","328","411190.038872","418089.739995","418856.673179","419623.252669","420389.705089","406523.931397","407290.046818","408056.541904","411957.036983","412723.504243","413489.837013","414256.74701","415023.104822","415789.98421","416556.916777","417323.048893","419632.417799","Mapping"
"Mixed","both","cave","13","F_cave.wav","None","730.327696074","328","411190.038872","418089.739995","418856.673179","419623.252669","420389.705089","421156.435146","407290.046818","408056.541904","411957.036983","412723.504243","413489.837013","414256.74701","415023.104822","415789.98421","416556.916777","417323.048893","420398.889079","Mapping"
"Mixed","both","cave","13","F_cad.wav","space","671.178534161","328","411190.038872","418089.739995","418856.673179","419623.252669","420389.705089","421156.435146","421923.063177","408056.541904","411957.036983","412723.504243","413489.837013","414256.74701","415023.104822","415789.98421","416556.916777","417323.048893","421165.564722","Mapping"
"Mixed","both","cave","13","F_lash.wav","None","729.275888763","328","411190.038872","418089.739995","418856.673179","419623.252669","420389.705089","421156.435146","421923.063177","422689.746549","411957.036983","412723.504243","413489.837013","414256.74701","415023.104822","415789.98421","416556.916777","417323.048893","421932.315803","Mapping"
"Mixed","both","ball","9","M_greet.wav","None","728.124218527","328","425823.420364","418089.739995","418856.673179","419623.252669","420389.705089","421156.435146","421923.063177","422689.746549","411957.036983","412723.504243","413489.837013","414256.74701","415023.104822","415789.98421","416556.916777","417323.048893","422700.310997","Mapping"
"Mixed","both","ball","9","M_ball.wav","None","722.055457998","328","425823.420364","418089.739995","418856.673179","419623.252669","420389.705089","421156.435146","421923.063177","422689.746549","426590.176702","412723.504243","413489.837013","414256.74701","415023.104822","415789.98421","416556.916777","417323.048893","425832.966087","Mapping"
"Mixed","both","ball","9","F_depth.wav","space","381.005882286","328","425823.420364","418089.739995","418856.673179","419623.252669","420389.705089","421156.435146","421923.063177","422689.746549","426590.176702","427356.742588","413489.837013","414256.74701","415023.104822","415789.98421","416556.916777","417323.048893","426599.610813","Mapping"
"Mixed","both","ball","9","M_knife.wav","None","722.368959337","328","425823.420364","418089.739995","418856.673179","419623.252669","420389.705089","421156.435146","421923.063177","422689.746549","426590.176702","427356.742588","428123.5385","414256.74701","415023.104822","415789.98421","416556.916777","417323.048893","427365.849594","Mapping"
"Mixed","both","ball","9","M_ball.wav","None","721.125155687","328","425823.420364","418089.739995","418856.673179","419623.252669","420389.705089","421156.435146","421923.063177","422689.746549","426590.176702","427356.742588","428123.5385","428890.026165","415023.104822","415789.98421","416556.916777","417323.048893","428133.050832","Mapping"
"Mixed","both","ball","9","F_dime.wav","space","441.15058193","328","425823.420364","418089.739995","418856.673179","419623.252669","420389.705089","421156.435146","421923.063177","422689.746549","426590.176702","427356.742588","428123.5385","428890.026165","429656.93678","415789.98421","416556.916777","417323.048893","428899.449764","Mapping"
"Mixed","both","ball","9","M_lash.wav","None","720.001620241","328","425823.420364","418089.739995","418856.673179","419623.252669","420389.705089","421156.435146","421923.063177","422689.746549","426590.176702","427356.742588","428123.5385","428890.026165","429656.93678","430423.285627","416556.916777","417323.048893","429666.590404","Mapping"
"Mixed","both","ball","9","F_ball.wav","None","720.879053697","328","425823.420364","418089.739995","418856.673179","419623.252669","420389.705089","421156.435146","421923.063177","422689.746549","426590.176702","427356.742588","428123.5385","428890.026165","429656.93678","430423.285627","431189.854296","417323.048893","430432.54691","Mapping"
"Mixed","both","ball","9","M_gnash.wav","space","437.341258861","328","425823.420364","418089.739995","418856.673179","419623.252669","420389.705089","421156.435146","421923.063177","422689.746549","426590.176702","427356.742588","428123.5385","428890.026165","429656.93678","430423.285627","431189.854296","431956.559929","431199.210804","Mapping"
"Mixed","both","ball","9","F_priest.wav","None","720.163317863","328","425823.420364","432723.294315","418856.673179","419623.252669","420389.705089","421156.435146","421923.063177","422689.746549","426590.176702","427356.742588","428123.5385","428890.026165","429656.93678","430423.285627","431189.854296","431956.559929","431965.523787","Mapping"
"Mixed","both","ball","9","M_cad.wav","None","721.904890612","328","425823.420364","432723.294315","433489.898539","419623.252669","420389.705089","421156.435146","421923.063177","422689.746549","426590.176702","427356.742588","428123.5385","428890.026165","429656.93678","430423.285627","431189.854296","431956.559929","432732.435639","Mapping"
"Mixed","both","ball","9","F_ball.wav","None","721.198120154","328","425823.420364","432723.294315","433489.898539","434256.819356","420389.705089","421156.435146","421923.063177","422689.746549","426590.176702","427356.742588","428123.5385","428890.026165","429656.93678","430423.285627","431189.854296","431956.559929","433499.11932","Mapping"
"Mixed","both","ball","9","F_greet.wav","space","562.463962007","328","425823.420364","432723.294315","433489.898539","434256.819356","435023.128629","421156.435146","421923.063177","422689.746549","426590.176702","427356.742588","428123.5385","428890.026165","429656.93678","430423.285627","431189.854296","431956.559929","434266.019114","Mapping"
"Mixed","both","ball","9","F_cling.wav","None","721.117116977","328","425823.420364","432723.294315","433489.898539","434256.819356","435023.128629","435789.911246","421923.063177","422689.746549","426590.176702","427356.742588","428123.5385","428890.026165","429656.93678","430423.285627","431189.854296","431956.559929","435032.249548","Mapping"
"Mixed","both","ball","9","F_romp.wav","None","720.963458065","328","425823.420364","432723.294315","433489.898539","434256.819356","435023.128629","435789.911246","436556.853396","422689.746549","426590.176702","427356.742588","428123.5385","428890.026165","429656.93678","430423.285627","431189.854296","431956.559929","435799.012995","Mapping"
"Mixed","both","ball","9","M_lash.wav","None","719.176436774","328","425823.420364","432723.294315","433489.898539","434256.819356","435023.128629","435789.911246","436556.853396","437323.145973","426590.176702","427356.742588","428123.5385","428890.026165","429656.93678","430423.285627","431189.854296","431956.559929","436567.408569","Mapping"
"Mixed","both","tile","35","M_bluff.wav","None","721.393517684","328","440456.578943","432723.294315","433489.898539","434256.819356","435023.128629","435789.911246","436556.853396","437323.145973","426590.176702","427356.742588","428123.5385","428890.026165","429656.93678","430423.285627","431189.854296","431956.559929","437332.598017","Mapping"
"Mixed","both","tile","35","M_gnash.wav","None","724.071885459","328","440456.578943","432723.294315","433489.898539","434256.819356","435023.128629","435789.911246","436556.853396","437323.145973","441222.697147","427356.742588","428123.5385","428890.026165","429656.93678","430423.285627","431189.854296","431956.559929","440466.636038","Mapping"
"Mixed","both","tile","35","M_tile.wav","None","726.100061089","328","440456.578943","432723.294315","433489.898539","434256.819356","435023.128629","435789.911246","436556.853396","437323.145973","441222.697147","441989.259632","428123.5385","428890.026165","429656.93678","430423.285627","431189.854296","431956.559929","441231.81621","Mapping"
"Mixed","both","tile","35","F_knife.wav","space","350.355688017","328","440456.578943","432723.294315","433489.898539","434256.819356","435023.128629","435789.911246","436556.853396","437323.145973","441222.697147","441989.259632","442756.075949","428890.026165","429656.93678","430423.285627","431189.854296","431956.559929","441998.00707","Mapping"
"Mixed","both","tile","35","F_tile.wav","None","727.923255879","328","440456.578943","432723.294315","433489.898539","434256.819356","435023.128629","435789.911246","436556.853396","437323.145973","441222.697147","441989.259632","442756.075949","443522.62514","429656.93678","430423.285627","431189.854296","431956.559929","442765.050938","Mapping"
"Mixed","both","tile","35","F_lash.wav","space","472.645437345","328","440456.578943","432723.294315","433489.898539","434256.819356","435023.128629","435789.911246","436556.853396","437323.145973","441222.697147","441989.259632","442756.075949","443522.62514","444289.215761","430423.285627","431189.854296","431956.559929","443531.635684","Mapping"
"Mixed","both","tile","35","M_tile.wav","None","727.486703545","328","440456.578943","432723.294315","433489.898539","434256.819356","435023.128629","435789.911246","436556.853396","437323.145973","441222.697147","441989.259632","442756.075949","443522.62514","444289.215761","445055.968078","431189.854296","431956.559929","444298.395731","Mapping"
"Mixed","both","tile","35","F_jolt.wav","space","362.929453142","328","440456.578943","432723.294315","433489.898539","434256.819356","435023.128629","435789.911246","436556.853396","437323.145973","441222.697147","441989.259632","442756.075949","443522.62514","444289.215761","445055.968078","445822.798926","431956.559929","445065.299853","Mapping"
"Mixed","both","tile","35","M_park.wav","None","726.167770568","328","440456.578943","432723.294315","433489.898539","434256.819356","435023.128629","435789.911246","436556.853396","437323.145973","441222.697147","441989.259632","442756.075949","443522.62514","444289.215761","445055.968078","445822.798926","446589.58278","445832.277249","Mapping"
"Mixed","both","tile","35","F_gnash.wav","None","726.762928534","328","440456.578943","447355.89669","433489.898539","434256.819356","435023.128629","435789.911246","436556.853396","437323.145973","441222.697147","441989.259632","442756.075949","443522.62514","444289.215761","445055.968078","445822.798926","446589.58278","446598.903425","Mapping"
"Mixed","both","tile","35","F_tile.wav","None","728.560152464","328","440456.578943","447355.89669","448122.803595","434256.819356","435023.128629","435789.911246","436556.853396","437323.145973","441222.697147","441989.259632","442756.075949","443522.62514","444289.215761","445055.968078","445822.798926","446589.58278","447364.89394","Mapping"
"Mixed","both","tile","35","M_romp.wav","space","344.126157463","328","440456.578943","447355.89669","448122.803595","448889.249831","435023.128629","435789.911246","436556.853396","437323.145973","441222.697147","441989.259632","442756.075949","443522.62514","444289.215761","445055.968078","445822.798926","446589.58278","448132.084665","Mapping"
"Mixed","both","tile","35","M_lash.wav","None","729.227039032","328","440456.578943","447355.89669","448122.803595","448889.249831","449655.846326","435789.911246","436556.853396","437323.145973","441222.697147","441989.259632","442756.075949","443522.62514","444289.215761","445055.968078","445822.798926","446589.58278","448898.341379","Mapping"
"Mixed","both","tile","35","M_cling.wav","None","729.059467092","328","440456.578943","447355.89669","448122.803595","448889.249831","449655.846326","450422.450241","436556.853396","437323.145973","441222.697147","441989.259632","442756.075949","443522.62514","444289.215761","445055.968078","445822.798926","446589.58278","449665.064016","Mapping"
"Mixed","both","tile","35","F_jolt.wav","None","729.507150128","328","440456.578943","447355.89669","448122.803595","448889.249831","449655.846326","450422.450241","451189.243679","437323.145973","441222.697147","441989.259632","442756.075949","443522.62514","444289.215761","445055.968078","445822.798926","446589.58278","450431.701012","Mapping"
"Mixed","both","tile","35","F_dime.wav","None","729.986987077","328","440456.578943","447355.89669","448122.803595","448889.249831","449655.846326","450422.450241","451189.243679","451956.179337","441222.697147","441989.259632","442756.075949","443522.62514","444289.215761","445055.968078","445822.798926","446589.58278","451198.520111","Mapping"
"Mixed","both","done","48","M_knife.wav","None","730.420138687","328","455089.465449","447355.89669","448122.803595","448889.249831","449655.846326","450422.450241","451189.243679","451956.179337","441222.697147","441989.259632","442756.075949","443522.62514","444289.215761","445055.968078","445822.798926","446589.58278","451965.245222","Mapping"
"Mixed","both","done","48","F_lash.wav","None","721.826360561","328","455089.465449","447355.89669","448122.803595","448889.249831","449655.846326","450422.450241","451189.243679","451956.179337","455855.837175","441989.259632","442756.075949","443522.62514","444289.215761","445055.968078","445822.798926","446589.58278","455098.784547","Mapping"
"Mixed","both","done","48","M_dime.wav","None","722.001970746","328","455089.465449","447355.89669","448122.803595","448889.249831","449655.846326","450422.450241","451189.243679","451956.179337","455855.837175","456622.993273","442756.075949","443522.62514","444289.215761","445055.968078","445822.798926","446589.58278","455865.126902","Mapping"
"Mixed","both","done","48","F_jaw.wav","space","579.859282821","328","455089.465449","447355.89669","448122.803595","448889.249831","449655.846326","450422.450241","451189.243679","451956.179337","455855.837175","456622.993273","457389.160944","443522.62514","444289.215761","445055.968078","445822.798926","446589.58278","456632.244662","Mapping"
"Mixed","both","done","48","F_done.wav","None","723.50857174","328","455089.465449","447355.89669","448122.803595","448889.249831","449655.846326","450422.450241","451189.243679","451956.179337","455855.837175","456622.993273","457389.160944","458155.941706","444289.215761","445055.968078","445822.798926","446589.58278","457398.553626","Mapping"
"Mixed","both","done","48","F_park.wav","space","694.901084527","328","455089.465449","447355.89669","448122.803595","448889.249831","449655.846326","450422.450241","451189.243679","451956.179337","455855.837175","456622.993273","457389.160944","458155.941706","458922.734526","445055.968078","445822.798926","446589.58278","458165.161251","Mapping"
"Mixed","both","done","48","M_cling.wav","None","723.861338571","328","455089.465449","447355.89669","448122.803595","448889.249831","449655.846326","450422.450241","451189.243679","451956.179337","455855.837175","456622.993273","457389.160944","458155.941706","458922.734526","459689.808693","445822.798926","446589.58278","458931.958708","Mapping"
"Mixed","both","done","48","M_done.wav","None","724.051479716","328","455089.465449","447355.89669","448122.803595","448889.249831","449655.846326","450422.450241","451189.243679","451956.179337","455855.837175","456622.993273","457389.160944","458155.941706","458922.734526","459689.808693","460456.130333","446589.58278","459699.133666","Mapping"
"Mixed","both","done","48","M_cad.wav","space","634.62467771","328","455089.465449","447355.89669","448122.803595","448889.249831","449655.846326","450422.450241","451189.243679","451956.179337","455855.837175","456622.993273","457389.160944","458155.941706","458922.734526","459689.808693","460456.130333","461222.665611","460465.331946","Mapping"
"Mixed","both","done","48","F_gnash.wav","None","723.913279362","328","455089.465449","461989.116485","448122.803595","448889.249831","449655.846326","450422.450241","451189.243679","451956.179337","455855.837175","456622.993273","457389.160944","458155.941706","458922.734526","459689.808693","460456.130333","461222.665611","461231.985019","Mapping"
"Mixed","both","done","48","M_depth.wav","None","725.232212339","328","455089.465449","461989.116485","462756.145822","448889.249831","449655.846326","450422.450241","451189.243679","451956.179337","455855.837175","456622.993273","457389.160944","458155.941706","458922.734526","459689.808693","460456.130333","461222.665611","461998.349634","Mapping"
"Mixed","both","done","48","F_done.wav","None","726.123867556","328","455089.465449","461989.116485","462756.145822","463522.218268","449655.846326","450422.450241","451189.243679","451956.179337","455855.837175","456622.993273","457389.160944","458155.941706","458922.734526","459689.808693","460456.130333","461222.665611","462763.390987","Mapping"
"Mixed","both","done","48","F_dime.wav","None","725.921977777","328","455089.465449","461989.116485","462756.145822","463522.218268","464289.133211","450422.450241","451189.243679","451956.179337","455855.837175","456622.993273","457389.160944","458155.941706","458922.734526","459689.808693","460456.130333","461222.665611","463531.36052","Mapping"
"Mixed","both","done","48","F_jolt.wav","None","727.075193543","328","455089.465449","461989.116485","462756.145822","463522.218268","464289.133211","465055.811019","451189.243679","451956.179337","455855.837175","456622.993273","457389.160944","458155.941706","458922.734526","459689.808693","460456.130333","461222.665611","464298.271753","Mapping"
"Mixed","both","done","48","M_done.wav","None","729.18499168","328","455089.465449","461989.116485","462756.145822","463522.218268","464289.133211","465055.811019","465822.4239","451956.179337","455855.837175","456622.993273","457389.160944","458155.941706","458922.734526","459689.808693","460456.130333","461222.665611","465065.097963","Mapping"
"Mixed","both","done","48","M_reek.wav","space","668.21201751","328","455089.465449","461989.116485","462756.145822","463522.218268","464289.133211","465055.811019","465822.4239","466589.050384","455855.837175","456622.993273","457389.160944","458155.941706","458922.734526","459689.808693","460456.130333","461222.665611","465831.67127","Mapping"
"Mixed","both","done","43","F_knife.wav","None","728.765443433","328","469722.849415","461989.116485","462756.145822","463522.218268","464289.133211","465055.811019","465822.4239","466589.050384","455855.837175","456622.993273","457389.160944","458155.941706","458922.734526","459689.808693","460456.130333","461222.665611","466598.526852","Mapping"
"Mixed","both","done","43","M_priest.wav","None","723.330178764","328","469722.849415","461989.116485","462756.145822","463522.218268","464289.133211","465055.811019","465822.4239","466589.050384","470489.258241","456622.993273","457389.160944","458155.941706","458922.734526","459689.808693","460456.130333","461222.665611","469732.457899","Mapping"
"Mixed","both","done","43","F_bluff.wav","None","724.166182801","328","469722.849415","461989.116485","462756.145822","463522.218268","464289.133211","465055.811019","465822.4239","466589.050384","470489.258241","471255.836803","457389.160944","458155.941706","458922.734526","459689.808693","460456.130333","461222.665611","470498.43512","Mapping"
"Mixed","both","done","43","M_done.wav","None","724.140830804","328","469722.849415","461989.116485","462756.145822","463522.218268","464289.133211","465055.811019","465822.4239","466589.050384","470489.258241","471255.836803","472022.240374","458155.941706","458922.734526","459689.808693","460456.130333","461222.665611","471264.963287","Mapping"
"Mixed","both","done","43","M_knife.wav","space","612.520648632","328","469722.849415","461989.116485","462756.145822","463522.218268","464289.133211","465055.811019","465822.4239","466589.050384","470489.258241","471255.836803","472022.240374","472789.237248","458922.734526","459689.808693","460456.130333","461222.665611","472031.265449","Mapping"
"Mixed","both","done","43","F_romp.wav","None","723.903076723","328","469722.849415","461989.116485","462756.145822","463522.218268","464289.133211","465055.811019","465822.4239","466589.050384","470489.258241","471255.836803","472022.240374","472789.237248","473555.776546","459689.808693","460456.130333","461222.665611","472798.280873","Mapping"
"Mixed","both","done","43","F_done.wav","None","724.093836732","328","469722.849415","461989.116485","462756.145822","463522.218268","464289.133211","465055.811019","465822.4239","466589.050384","470489.258241","471255.836803","472022.240374","472789.237248","473555.776546","474322.312133","460456.130333","461222.665611","473565.115741","Mapping"
"Mixed","both","done","43","M_greet.wav","None","724.990747869","328","469722.849415","461989.116485","462756.145822","463522.218268","464289.133211","465055.811019","465822.4239","466589.050384","470489.258241","471255.836803","472022.240374","472789.237248","473555.776546","474322.312133","475089.095987","461222.665611","474331.575581","Mapping"
"Mixed","both","done","43","M_done.wav","space","1.55514152721","328","469722.849415","461989.116485","462756.145822","463522.218268","464289.133211","465055.811019","465822.4239","466589.050384","470489.258241","471255.836803","472022.240374","472789.237248","473555.776546","474322.312133","475089.095987","475855.302614","475098.150742","Mapping"
"Mixed","both","done","43","M_greet.wav","space","627.424343023","328","469722.849415","476622.46335","462756.145822","463522.218268","464289.133211","465055.811019","465822.4239","466589.050384","470489.258241","471255.836803","472022.240374","472789.237248","473555.776546","474322.312133","475089.095987","475855.302614","475864.276057","Mapping"
"Mixed","both","done","43","M_jolt.wav","None","723.63162227","328","469722.849415","476622.46335","477388.810651","463522.218268","464289.133211","465055.811019","465822.4239","466589.050384","470489.258241","471255.836803","472022.240374","472789.237248","473555.776546","474322.312133","475089.095987","475855.302614","476631.790487","Mapping"
"Mixed","both","done","43","M_cling.wav","None","722.765628714","328","469722.849415","476622.46335","477388.810651","478156.08238","464289.133211","465055.811019","465822.4239","466589.050384","470489.258241","471255.836803","472022.240374","472789.237248","473555.776546","474322.312133","475089.095987","475855.302614","477398.62319","Mapping"
"Mixed","both","done","43","F_lash.wav","None","723.31812093","328","469722.849415","476622.46335","477388.810651","478156.08238","478922.269838","465055.811019","465822.4239","466589.050384","470489.258241","471255.836803","472022.240374","472789.237248","473555.776546","474322.312133","475089.095987","475855.302614","478166.020443","Mapping"
"Mixed","both","done","43","F_done.wav","None","724.312421866","328","469722.849415","476622.46335","477388.810651","478156.08238","478922.269838","479688.789967","465822.4239","466589.050384","470489.258241","471255.836803","472022.240374","472789.237248","473555.776546","474322.312133","475089.095987","475855.302614","478931.556474","Mapping"
"Mixed","both","done","43","F_reek.wav","space","697.129914071","328","469722.849415","476622.46335","477388.810651","478156.08238","478922.269838","479688.789967","480455.632873","466589.050384","470489.258241","471255.836803","472022.240374","472789.237248","473555.776546","474322.312133","475089.095987","475855.302614","479698.51872","Mapping"
"Mixed","both","done","43","F_reek.wav","None","726.316173561","328","469722.849415","476622.46335","477388.810651","478156.08238","478922.269838","479688.789967","480455.632873","481221.953894","470489.258241","471255.836803","472022.240374","472789.237248","473555.776546","474322.312133","475089.095987","475855.302614","480465.038231","Mapping"
"Mixed","both","cave","23","F_priest.wav","None","727.641289588","328","484355.615652","476622.46335","477388.810651","478156.08238","478922.269838","479688.789967","480455.632873","481221.953894","470489.258241","471255.836803","472022.240374","472789.237248","473555.776546","474322.312133","475089.095987","475855.302614","481230.998138","Mapping"
"Mixed","both","cave","23","M_romp.wav","None","722.353500314","328","484355.615652","476622.46335","477388.810651","478156.08238","478922.269838","479688.789967","480455.632873","481221.953894","485122.172263","471255.836803","472022.240374","472789.237248","473555.776546","474322.312133","475089.095987","475855.302614","484364.643819","Mapping"
"Mixed","both","cave","23","M_gnash.wav","None","722.935364582","328","484355.615652","476622.46335","477388.810651","478156.08238","478922.269838","479688.789967","480455.632873","481221.953894","485122.172263","485888.983015","472022.240374","472789.237248","473555.776546","474322.312133","475089.095987","475855.302614","485131.548868","Mapping"
"Mixed","both","cave","23","M_cave.wav","None","722.908775322","328","484355.615652","476622.46335","477388.810651","478156.08238","478922.269838","479688.789967","480455.632873","481221.953894","485122.172263","485888.983015","486655.514893","472789.237248","473555.776546","474322.312133","475089.095987","475855.302614","485898.187411","Mapping"
"Mixed","both","cave","23","M_romp.wav","space","506.586780306","328","484355.615652","476622.46335","477388.810651","478156.08238","478922.269838","479688.789967","480455.632873","481221.953894","485122.172263","485888.983015","486655.514893","487422.060065","473555.776546","474322.312133","475089.095987","475855.302614","486664.959515","Mapping"
"Mixed","both","cave","23","F_cave.wav","None","723.994901404","328","484355.615652","476622.46335","477388.810651","478156.08238","478922.269838","479688.789967","480455.632873","481221.953894","485122.172263","485888.983015","486655.514893","487422.060065","488188.327908","474322.312133","475089.095987","475855.302614","487430.951576","Mapping"
"Mixed","both","cave","23","F_cad.wav","None","726.153239608","328","484355.615652","476622.46335","477388.810651","478156.08238","478922.269838","479688.789967","480455.632873","481221.953894","485122.172263","485888.983015","486655.514893","487422.060065","488188.327908","488955.250271","475089.095987","475855.302614","488197.381117","Mapping"
"Mixed","both","cave","23","M_bluff.wav","space","63.1285295822","328","484355.615652","476622.46335","477388.810651","478156.08238","478922.269838","479688.789967","480455.632873","481221.953894","485122.172263","485888.983015","486655.514893","487422.060065","488188.327908","488955.250271","489722.333713","475855.302614","488964.379228","Mapping"
"Mixed","both","cave","23","M_greet.wav","None","722.881877329","328","484355.615652","476622.46335","477388.810651","478156.08238","478922.269838","479688.789967","480455.632873","481221.953894","485122.172263","485888.983015","486655.514893","487422.060065","488188.327908","488955.250271","489722.333713","490488.799119","489732.343505","Mapping"
"Mixed","both","cave","23","F_cling.wav","None","724.394353107","328","484355.615652","491255.174245","477388.810651","478156.08238","478922.269838","479688.789967","480455.632873","481221.953894","485122.172263","485888.983015","486655.514893","487422.060065","488188.327908","488955.250271","489722.333713","490488.799119","490498.015881","Mapping"
"Mixed","both","cave","23","M_cave.wav","None","724.910363089","328","484355.615652","491255.174245","492022.358788","478156.08238","478922.269838","479688.789967","480455.632873","481221.953894","485122.172263","485888.983015","486655.514893","487422.060065","488188.327908","488955.250271","489722.333713","490488.799119","491264.479431","Mapping"
"Mixed","both","cave","23","M_gnash.wav","space","579.899166245","328","484355.615652","491255.174245","492022.358788","492788.288395","478922.269838","479688.789967","480455.632873","481221.953894","485122.172263","485888.983015","486655.514893","487422.060065","488188.327908","488955.250271","489722.333713","490488.799119","492031.558236","Mapping"
"Mixed","both","cave","23","F_cling.wav","None","725.061239209","328","484355.615652","491255.174245","492022.358788","492788.288395","493555.187262","479688.789967","480455.632873","481221.953894","485122.172263","485888.983015","486655.514893","487422.060065","488188.327908","488955.250271","489722.333713","490488.799119","492797.343151","Mapping"
"Mixed","both","cave","23","F_cave.wav","None","724.267591722","328","484355.615652","491255.174245","492022.358788","492788.288395","493555.187262","494322.012854","480455.632873","481221.953894","485122.172263","485888.983015","486655.514893","487422.060065","488188.327908","488955.250271","489722.333713","490488.799119","493564.421028","Mapping"
"Mixed","both","cave","23","F_park.wav","None","725.565191824","328","484355.615652","491255.174245","492022.358788","492788.288395","493555.187262","494322.012854","495088.549987","481221.953894","485122.172263","485888.983015","486655.514893","487422.060065","488188.327908","488955.250271","489722.333713","490488.799119","494330.873139","Mapping"
"Mixed","both","cave","23","F_jaw.wav","space","153.736683074","328","484355.615652","491255.174245","492022.358788","492788.288395","493555.187262","494322.012854","495088.549987","495855.227176","485122.172263","485888.983015","486655.514893","487422.060065","488188.327908","488955.250271","489722.333713","490488.799119","495097.666886","Mapping"
"Mixed","both","done","37","F_gnash.wav","None","723.509498872","328","498988.818133","491255.174245","492022.358788","492788.288395","493555.187262","494322.012854","495088.549987","495855.227176","485122.172263","485888.983015","486655.514893","487422.060065","488188.327908","488955.250271","489722.333713","490488.799119","495864.411784","Mapping"
"Mixed","both","done","37","F_cling.wav","None","723.380574025","328","498988.818133","491255.174245","492022.358788","492788.288395","493555.187262","494322.012854","495088.549987","495855.227176","499755.049803","485888.983015","486655.514893","487422.060065","488188.327908","488955.250271","489722.333713","490488.799119","498998.182062","Mapping"
"Mixed","both","done","37","M_done.wav","None","725.077316631","328","498988.818133","491255.174245","492022.358788","492788.288395","493555.187262","494322.012854","495088.549987","495855.227176","499755.049803","500521.678761","486655.514893","487422.060065","488188.327908","488955.250271","489722.333713","490488.799119","499764.126819","Mapping"
"Mixed","both","done","37","F_jaw.wav","space","528.312999289","328","498988.818133","491255.174245","492022.358788","492788.288395","493555.187262","494322.012854","495088.549987","495855.227176","499755.049803","500521.678761","501288.885564","487422.060065","488188.327908","488955.250271","489722.333713","490488.799119","500530.985802","Mapping"
"Mixed","both","done","37","F_park.wav","None","722.871365491","328","498988.818133","491255.174245","492022.358788","492788.288395","493555.187262","494322.012854","495088.549987","495855.227176","499755.049803","500521.678761","501288.885564","502055.020772","488188.327908","488955.250271","489722.333713","490488.799119","501298.705523","Mapping"
"Mixed","both","done","37","M_jolt.wav","None","724.989511538","328","498988.818133","491255.174245","492022.358788","492788.288395","493555.187262","494322.012854","495088.549987","495855.227176","499755.049803","500521.678761","501288.885564","502055.020772","502821.741554","488955.250271","489722.333713","490488.799119","502064.214655","Mapping"
"Mixed","both","done","37","M_romp.wav","None","724.49174244","328","498988.818133","491255.174245","492022.358788","492788.288395","493555.187262","494322.012854","495088.549987","495855.227176","499755.049803","500521.678761","501288.885564","502055.020772","502821.741554","503588.377932","489722.333713","490488.799119","502831.181848","Mapping"
"Mixed","both","done","37","F_cling.wav","None","724.846363999","328","498988.818133","491255.174245","492022.358788","492788.288395","493555.187262","494322.012854","495088.549987","495855.227176","499755.049803","500521.678761","501288.885564","502055.020772","502821.741554","503588.377932","504354.961751","490488.799119","503598.40411","Mapping"
"Mixed","both","done","37","F_done.wav","None","725.675257389","328","498988.818133","491255.174245","492022.358788","492788.288395","493555.187262","494322.012854","495088.549987","495855.227176","499755.049803","500521.678761","501288.885564","502055.020772","502821.741554","503588.377932","504354.961751","505121.729218","504364.167074","Mapping"
"Mixed","both","done","37","M_depth.wav","space","656.306684949","328","498988.818133","505888.758864","492022.358788","492788.288395","493555.187262","494322.012854","495088.549987","495855.227176","499755.049803","500521.678761","501288.885564","502055.020772","502821.741554","503588.377932","504354.961751","505121.729218","505130.932686","Mapping"
"Mixed","both","done","37","M_done.wav","None","722.583216149","328","498988.818133","505888.758864","506655.666696","492788.288395","493555.187262","494322.012854","495088.549987","495855.227176","499755.049803","500521.678761","501288.885564","502055.020772","502821.741554","503588.377932","504354.961751","505121.729218","505898.569239","Mapping"
"Mixed","both","done","37","M_lash.wav","None","721.139686648","328","498988.818133","505888.758864","506655.666696","507422.419942","493555.187262","494322.012854","495088.549987","495855.227176","499755.049803","500521.678761","501288.885564","502055.020772","502821.741554","503588.377932","504354.961751","505121.729218","506665.828292","Mapping"
"Mixed","both","done","37","F_done.wav","space","66.2505608052","328","498988.818133","505888.758864","506655.666696","507422.419942","508188.455906","494322.012854","495088.549987","495855.227176","499755.049803","500521.678761","501288.885564","502055.020772","502821.741554","503588.377932","504354.961751","505121.729218","507432.984081","Mapping"
"Mixed","both","done","37","F_reek.wav","space","635.054737795","328","498988.818133","505888.758864","506655.666696","507422.419942","508188.455906","508955.459272","495088.549987","495855.227176","499755.049803","500521.678761","501288.885564","502055.020772","502821.741554","503588.377932","504354.961751","505121.729218","508192.117135","Mapping"
"Mixed","both","done","37","M_reek.wav","None","719.236725476","328","498988.818133","505888.758864","506655.666696","507422.419942","508188.455906","508955.459272","509722.367413","495855.227176","499755.049803","500521.678761","501288.885564","502055.020772","502821.741554","503588.377932","504354.961751","505121.729218","508966.179544","Mapping"
"Mixed","both","done","37","M_cad.wav","None","719.055240974","328","498988.818133","505888.758864","506655.666696","507422.419942","508188.455906","508955.459272","509722.367413","510489.018632","499755.049803","500521.678761","501288.885564","502055.020772","502821.741554","503588.377932","504354.961751","505121.729218","509733.004827","Mapping"
"Mixed","both","cave","17","F_dime.wav","None","719.757682178","328","513605.630106","505888.758864","506655.666696","507422.419942","508188.455906","508955.459272","509722.367413","510489.018632","499755.049803","500521.678761","501288.885564","502055.020772","502821.741554","503588.377932","504354.961751","505121.729218","510498.974627","Mapping"
"Mixed","both","cave","17","F_cave.wav","None","720.863595139","328","513605.630106","505888.758864","506655.666696","507422.419942","508188.455906","508955.459272","509722.367413","510489.018632","514372.295855","500521.678761","501288.885564","502055.020772","502821.741554","503588.377932","504354.961751","505121.729218","513615.808087","Mapping"
"Mixed","both","cave","17","F_reek.wav","space","419.632745441","328","513605.630106","505888.758864","506655.666696","507422.419942","508188.455906","508955.459272","509722.367413","510489.018632","514372.295855","515121.783324","501288.885564","502055.020772","502821.741554","503588.377932","504354.961751","505121.729218","514383.418052","Mapping"
"Mixed","both","cave","17","M_depth.wav","None","735.860350076","328","513605.630106","505888.758864","506655.666696","507422.419942","508188.455906","508955.459272","509722.367413","510489.018632","514372.295855","515121.783324","515888.277173","502055.020772","502821.741554","503588.377932","504354.961751","505121.729218","515131.361509","Mapping"
"Mixed","both","cave","17","F_cave.wav","None","735.391334631","328","513605.630106","505888.758864","506655.666696","507422.419942","508188.455906","508955.459272","509722.367413","510489.018632","514372.295855","515121.783324","515888.277173","516654.935502","502821.741554","503588.377932","504354.961751","505121.729218","515897.988921","Mapping"
"Mixed","both","cave","17","F_reek.wav","space","434.512324166","328","513605.630106","505888.758864","506655.666696","507422.419942","508188.455906","508955.459272","509722.367413","510489.018632","514372.295855","515121.783324","515888.277173","516654.935502","517421.967312","503588.377932","504354.961751","505121.729218","516664.513997","Mapping"
"Mixed","both","cave","17","M_knife.wav","None","732.217362151","328","513605.630106","505888.758864","506655.666696","507422.419942","508188.455906","508955.459272","509722.367413","510489.018632","514372.295855","515121.783324","515888.277173","516654.935502","517421.967312","518188.534127","504354.961751","505121.729218","517431.811387","Mapping"
"Mixed","both","cave","17","M_reek.wav","None","731.378884986","328","513605.630106","505888.758864","506655.666696","507422.419942","508188.455906","508955.459272","509722.367413","510489.018632","514372.295855","515121.783324","515888.277173","516654.935502","517421.967312","518188.534127","518955.112071","505121.729218","518198.764977","Mapping"
"Mixed","both","cave","17","M_cave.wav","None","731.639208272","328","513605.630106","505888.758864","506655.666696","507422.419942","508188.455906","508955.459272","509722.367413","510489.018632","514372.295855","515121.783324","515888.277173","516654.935502","517421.967312","518188.534127","518955.112071","519721.902726","518964.659339","Mapping"
"Mixed","both","cave","17","F_cad.wav","space","566.414268222","328","513605.630106","520488.514989","506655.666696","507422.419942","508188.455906","508955.459272","509722.367413","510489.018632","514372.295855","515121.783324","515888.277173","516654.935502","517421.967312","518188.534127","518955.112071","519721.902726","519732.557144","Mapping"
"Mixed","both","cave","17","M_cave.wav","None","728.987120558","328","513605.630106","520488.514989","521254.887951","507422.419942","508188.455906","508955.459272","509722.367413","510489.018632","514372.295855","515121.783324","515888.277173","516654.935502","517421.967312","518188.534127","518955.112071","519721.902726","520498.105232","Mapping"
"Mixed","both","cave","17","F_cad.wav","space","554.330851417","328","513605.630106","520488.514989","521254.887951","522021.892863","508188.455906","508955.459272","509722.367413","510489.018632","514372.295855","515121.783324","515888.277173","516654.935502","517421.967312","518188.534127","518955.112071","519721.902726","521264.619796","Mapping"
"Mixed","both","cave","17","M_dime.wav","None","725.965880323","328","513605.630106","520488.514989","521254.887951","522021.892863","522788.438344","508955.459272","509722.367413","510489.018632","514372.295855","515121.783324","515888.277173","516654.935502","517421.967312","518188.534127","518955.112071","519721.902726","522031.641094","Mapping"
"Mixed","both","cave","17","M_depth.wav","None","725.816858932","328","513605.630106","520488.514989","521254.887951","522021.892863","522788.438344","523554.898185","509722.367413","510489.018632","514372.295855","515121.783324","515888.277173","516654.935502","517421.967312","518188.534127","518955.112071","519721.902726","522798.747106","Mapping"
"Mixed","both","cave","17","F_depth.wav","None","726.005763747","328","513605.630106","520488.514989","521254.887951","522021.892863","522788.438344","523554.898185","524321.94329","510489.018632","514372.295855","515121.783324","515888.277173","516654.935502","517421.967312","518188.534127","518955.112071","519721.902726","523564.648271","Mapping"
