"Condition","Talker","Target","Trial","current_stimulus","response_response","response_time_response","subject_nr","time_Audio1","time_Audio10","time_Audio11","time_Audio12","time_Audio13","time_Audio14","time_Audio15","time_Audio16","time_Audio2","time_Audio3","time_Audio4","time_Audio5","time_Audio6","time_Audio7","time_Audio8","time_Audio9","time_response"
"Blocked","Male","ball","1","M_depth.wav","NA","NA","421","38905.2881407","NA","NA","NA","NA","NA","NA","NA","NA","NA","NA","NA","NA","NA","NA","NA","NA"
"Blocked","Male","ball","1","M_ball.wav","None","738.904921704","421","38905.2881407","NA","NA","NA","NA","NA","NA","NA","39671.9685998","NA","NA","NA","NA","NA","NA","NA","38912.6571966"
"Blocked","Male","ball","1","M_gnash.wav","space","625.993966363","421","38905.2881407","NA","NA","NA","NA","NA","NA","NA","39671.9685998","40438.6435069","NA","NA","NA","NA","NA","NA","39677.3912174"
"Blocked","Male","ball","1","M_ball.wav","None","734.075206566","421","38905.2881407","NA","NA","NA","NA","NA","NA","NA","39671.9685998","40438.6435069","41205.2015284","NA","NA","NA","NA","NA","40443.8779387"
"Blocked","Male","ball","1","M_lash.wav","space","588.995858741","421","38905.2881407","NA","NA","NA","NA","NA","NA","NA","39671.9685998","40438.6435069","41205.2015284","41972.3714462","NA","NA","NA","NA","41210.2390078"
"Blocked","Male","ball","1","M_knife.wav","None","726.846705636","421","38905.2881407","NA","NA","NA","NA","NA","NA","NA","39671.9685998","40438.6435069","41205.2015284","41972.3714462","42721.8305579","NA","NA","NA","41977.9381254"
"Blocked","Male","ball","1","M_gnash.wav","None","740.962693606","421","38905.2881407","NA","NA","NA","NA","NA","NA","NA","39671.9685998","40438.6435069","41205.2015284","41972.3714462","42721.8305579","43488.4367947","NA","NA","42727.1655113"
"Blocked","Male","ball","1","M_ball.wav","None","737.923082228","421","38905.2881407","NA","NA","NA","NA","NA","NA","NA","39671.9685998","40438.6435069","41205.2015284","41972.3714462","42721.8305579","43488.4367947","44255.0927079","NA","43493.4812872"
"Blocked","Male","ball","1","M_gnash.wav","space","466.857365608","421","38905.2881407","NA","NA","NA","NA","NA","NA","NA","39671.9685998","40438.6435069","41205.2015284","41972.3714462","42721.8305579","43488.4367947","44255.0927079","45021.7176463","44260.1918444"
"Blocked","Male","ball","1","M_cad.wav","None","731.34563438","421","38905.2881407","45788.5599921","NA","NA","NA","NA","NA","NA","39671.9685998","40438.6435069","41205.2015284","41972.3714462","42721.8305579","43488.4367947","44255.0927079","45021.7176463","45026.7384695"
"Blocked","Male","ball","1","M_gnash.wav","None","727.929943416","421","38905.2881407","45788.5599921","46538.2902785","NA","NA","NA","NA","NA","39671.9685998","40438.6435069","41205.2015284","41972.3714462","42721.8305579","43488.4367947","44255.0927079","45021.7176463","45793.6316606"
"Blocked","Male","ball","1","M_gnash.wav","None","741.503874175","421","38905.2881407","45788.5599921","46538.2902785","47304.866125","NA","NA","NA","NA","39671.9685998","40438.6435069","41205.2015284","41972.3714462","42721.8305579","43488.4367947","44255.0927079","45021.7176463","46543.4992876"
"Blocked","Male","ball","1","M_park.wav","None","738.776055273","421","38905.2881407","45788.5599921","46538.2902785","47304.866125","48071.558565","NA","NA","NA","39671.9685998","40438.6435069","41205.2015284","41972.3714462","42721.8305579","43488.4367947","44255.0927079","45021.7176463","47310.0365618"
"Blocked","Male","ball","1","M_romp.wav","None","735.553810063","421","38905.2881407","45788.5599921","46538.2902785","47304.866125","48071.558565","48838.1799969","NA","NA","39671.9685998","40438.6435069","41205.2015284","41972.3714462","42721.8305579","43488.4367947","44255.0927079","45021.7176463","48076.6103628"
"Blocked","Male","ball","1","M_ball.wav","None","732.471535422","421","38905.2881407","45788.5599921","46538.2902785","47304.866125","48071.558565","48838.1799969","49604.7587655","NA","39671.9685998","40438.6435069","41205.2015284","41972.3714462","42721.8305579","43488.4367947","44255.0927079","45021.7176463","48843.1973135"
"Blocked","Male","ball","1","M_lash.wav","space","548.584397869","421","38905.2881407","45788.5599921","46538.2902785","47304.866125","48071.558565","48838.1799969","49604.7587655","50354.7809738","39671.9685998","40438.6435069","41205.2015284","41972.3714462","42721.8305579","43488.4367947","44255.0927079","45021.7176463","49609.9815087"
"Blocked","Male","done","24","M_priest.wav","None","742.184440883","421","53471.3513267","45788.5599921","46538.2902785","47304.866125","48071.558565","48838.1799969","49604.7587655","50354.7809738","39671.9685998","40438.6435069","41205.2015284","41972.3714462","42721.8305579","43488.4367947","44255.0927079","45021.7176463","50359.9102084"
"Blocked","Male","done","24","M_done.wav","None","740.905711851","421","53471.3513267","45788.5599921","46538.2902785","47304.866125","48071.558565","48838.1799969","49604.7587655","50354.7809738","54238.0054866","40438.6435069","41205.2015284","41972.3714462","42721.8305579","43488.4367947","44255.0927079","45021.7176463","53476.4209496"
"Blocked","Male","done","24","M_cad.wav","space","486.618053924","421","53471.3513267","45788.5599921","46538.2902785","47304.866125","48071.558565","48838.1799969","49604.7587655","50354.7809738","54238.0054866","55004.5696446","41205.2015284","41972.3714462","42721.8305579","43488.4367947","44255.0927079","45021.7176463","54239.621723"
"Blocked","Male","done","24","M_cad.wav","None","734.007997316","421","53471.3513267","45788.5599921","46538.2902785","47304.866125","48071.558565","48838.1799969","49604.7587655","50354.7809738","54238.0054866","55004.5696446","55771.135848","41972.3714462","42721.8305579","43488.4367947","44255.0927079","45021.7176463","55009.6027407"
"Blocked","Male","done","24","M_done.wav","None","730.926599317","421","53471.3513267","45788.5599921","46538.2902785","47304.866125","48071.558565","48838.1799969","49604.7587655","50354.7809738","54238.0054866","55004.5696446","55771.135848","56538.07404","42721.8305579","43488.4367947","44255.0927079","45021.7176463","55776.050013"
"Blocked","Male","done","24","M_cling.wav","None","726.806964515","421","53471.3513267","45788.5599921","46538.2902785","47304.866125","48071.558565","48838.1799969","49604.7587655","50354.7809738","54238.0054866","55004.5696446","55771.135848","56538.07404","57287.8326712","43488.4367947","44255.0927079","45021.7176463","56543.5679579"
"Blocked","Male","done","24","M_bluff.wav","space","40.8188073693","421","53471.3513267","45788.5599921","46538.2902785","47304.866125","48071.558565","48838.1799969","49604.7587655","50354.7809738","54238.0054866","55004.5696446","55771.135848","56538.07404","57287.8326712","58054.3819262","44255.0927079","45021.7176463","57293.1758065"
"Blocked","Male","done","24","M_done.wav","None","737.554892424","421","53471.3513267","45788.5599921","46538.2902785","47304.866125","48071.558565","48838.1799969","49604.7587655","50354.7809738","54238.0054866","55004.5696446","55771.135848","56538.07404","57287.8326712","58054.3819262","58821.0544956","45021.7176463","58059.4822316"
"Blocked","Male","done","24","M_cad.wav","None","734.313653296","421","53471.3513267","45788.5599921","46538.2902785","47304.866125","48071.558565","48838.1799969","49604.7587655","50354.7809738","54238.0054866","55004.5696446","55771.135848","56538.07404","57287.8326712","58054.3819262","58821.0544956","59587.7074866","58826.0697667"
"Blocked","Male","done","24","M_jaw.wav","space","0.0210394173337","421","53471.3513267","60354.5989244","46538.2902785","47304.866125","48071.558565","48838.1799969","49604.7587655","50354.7809738","54238.0054866","55004.5696446","55771.135848","56538.07404","57287.8326712","58054.3819262","58821.0544956","59587.7074866","59592.7031794"
"Blocked","Male","done","24","M_bluff.wav","None","726.801412446","421","53471.3513267","60354.5989244","61104.2608327","47304.866125","48071.558565","48838.1799969","49604.7587655","50354.7809738","54238.0054866","55004.5696446","55771.135848","56538.07404","57287.8326712","58054.3819262","58821.0544956","59587.7074866","60360.0095612"
"Blocked","Male","done","24","M_reek.wav","None","740.644472419","421","53471.3513267","60354.5989244","61104.2608327","61870.8597641","48071.558565","48838.1799969","49604.7587655","50354.7809738","54238.0054866","55004.5696446","55771.135848","56538.07404","57287.8326712","58054.3819262","58821.0544956","59587.7074866","61109.5262391"
"Blocked","Male","done","24","M_jolt.wav","None","737.645771019","421","53471.3513267","60354.5989244","61104.2608327","61870.8597641","62637.5469442","48838.1799969","49604.7587655","50354.7809738","54238.0054866","55004.5696446","55771.135848","56538.07404","57287.8326712","58054.3819262","58821.0544956","59587.7074866","61875.9860766"
"Blocked","Male","done","24","M_cling.wav","None","734.375018264","421","53471.3513267","60354.5989244","61104.2608327","61870.8597641","62637.5469442","63404.1175309","49604.7587655","50354.7809738","54238.0054866","55004.5696446","55771.135848","56538.07404","57287.8326712","58054.3819262","58821.0544956","59587.7074866","62642.6279635"
"Blocked","Male","done","24","M_done.wav","None","731.317581823","421","53471.3513267","60354.5989244","61104.2608327","61870.8597641","62637.5469442","63404.1175309","64171.1597511","50354.7809738","54238.0054866","55004.5696446","55771.135848","56538.07404","57287.8326712","58054.3819262","58821.0544956","59587.7074866","63409.1918292"
"Blocked","Male","done","24","M_knife.wav","space","596.376603233","421","53471.3513267","60354.5989244","61104.2608327","61870.8597641","62637.5469442","63404.1175309","64171.1597511","64920.7272742","54238.0054866","55004.5696446","55771.135848","56538.07404","57287.8326712","58054.3819262","58821.0544956","59587.7074866","64176.9420843"
"Blocked","Male","done","21","M_jaw.wav","None","741.575758851","421","68037.2307101","60354.5989244","61104.2608327","61870.8597641","62637.5469442","63404.1175309","64171.1597511","64920.7272742","54238.0054866","55004.5696446","55771.135848","56538.07404","57287.8326712","58054.3819262","58821.0544956","59587.7074866","64925.600237"
"Blocked","Male","done","21","M_knife.wav","None","741.951546222","421","68037.2307101","60354.5989244","61104.2608327","61870.8597641","62637.5469442","63404.1175309","64171.1597511","64920.7272742","68803.9336697","55004.5696446","55771.135848","56538.07404","57287.8326712","58054.3819262","58821.0544956","59587.7074866","68042.1314332"
"Blocked","Male","done","21","M_done.wav","None","738.484133357","421","68037.2307101","60354.5989244","61104.2608327","61870.8597641","62637.5469442","63404.1175309","64171.1597511","64920.7272742","68803.9336697","69570.53377","55771.135848","56538.07404","57287.8326712","58054.3819262","58821.0544956","59587.7074866","68808.9994939"
"Blocked","Male","done","21","M_bluff.wav","space","549.299445845","421","68037.2307101","60354.5989244","61104.2608327","61870.8597641","62637.5469442","63404.1175309","64171.1597511","64920.7272742","68803.9336697","69570.53377","70337.122474","56538.07404","57287.8326712","58054.3819262","58821.0544956","59587.7074866","69575.7302139"
"Blocked","Male","done","21","M_greet.wav","None","731.992304249","421","68037.2307101","60354.5989244","61104.2608327","61870.8597641","62637.5469442","63404.1175309","64171.1597511","64920.7272742","68803.9336697","69570.53377","70337.122474","71103.9011171","57287.8326712","58054.3819262","58821.0544956","59587.7074866","70342.2984628"
"Blocked","Male","done","21","M_done.wav","None","728.526352455","421","68037.2307101","60354.5989244","61104.2608327","61870.8597641","62637.5469442","63404.1175309","64171.1597511","64920.7272742","68803.9336697","69570.53377","70337.122474","71103.9011171","71853.7529645","58054.3819262","58821.0544956","59587.7074866","71108.9754154"
"Blocked","Male","done","21","M_dime.wav","None","742.313891743","421","68037.2307101","60354.5989244","61104.2608327","61870.8597641","62637.5469442","63404.1175309","64171.1597511","64920.7272742","68803.9336697","69570.53377","70337.122474","71103.9011171","71853.7529645","72620.4258261","58821.0544956","59587.7074866","71858.673266"
"Blocked","Male","done","21","M_priest.wav","space","123.144294168","421","68037.2307101","60354.5989244","61104.2608327","61870.8597641","62637.5469442","63404.1175309","64171.1597511","64920.7272742","68803.9336697","69570.53377","70337.122474","71103.9011171","71853.7529645","72620.4258261","73387.0215432","59587.7074866","72625.6497381"
"Blocked","Male","done","21","M_cling.wav","None","735.481925387","421","68037.2307101","60354.5989244","61104.2608327","61870.8597641","62637.5469442","63404.1175309","64171.1597511","64920.7272742","68803.9336697","69570.53377","70337.122474","71103.9011171","71853.7529645","72620.4258261","73387.0215432","74153.6397608","73392.1753238"
"Blocked","Male","done","21","M_gnash.wav","None","732.153606448","421","68037.2307101","74920.2980117","61104.2608327","61870.8597641","62637.5469442","63404.1175309","64171.1597511","64920.7272742","68803.9336697","69570.53377","70337.122474","71103.9011171","71853.7529645","72620.4258261","73387.0215432","74153.6397608","74158.900784"
"Blocked","Male","done","21","M_done.wav","None","729.323804815","421","68037.2307101","74920.2980117","75670.2176528","61870.8597641","62637.5469442","63404.1175309","64171.1597511","64920.7272742","68803.9336697","69570.53377","70337.122474","71103.9011171","71853.7529645","72620.4258261","73387.0215432","74153.6397608","74925.2405215"
"Blocked","Male","done","21","M_lash.wav","space","657.24071548","421","68037.2307101","74920.2980117","75670.2176528","76436.8273961","62637.5469442","63404.1175309","64171.1597511","64920.7272742","68803.9336697","69570.53377","70337.122474","71103.9011171","71853.7529645","72620.4258261","73387.0215432","74153.6397608","75675.2896134"
"Blocked","Male","done","21","M_depth.wav","None","738.833037028","421","68037.2307101","74920.2980117","75670.2176528","76436.8273961","77203.4681142","63404.1175309","64171.1597511","64920.7272742","68803.9336697","69570.53377","70337.122474","71103.9011171","71853.7529645","72620.4258261","73387.0215432","74153.6397608","76442.2979369"
"Blocked","Male","done","21","M_done.wav","None","736.214213997","421","68037.2307101","74920.2980117","75670.2176528","76436.8273961","77203.4681142","77970.1804247","64171.1597511","64920.7272742","68803.9336697","69570.53377","70337.122474","71103.9011171","71853.7529645","72620.4258261","73387.0215432","74153.6397608","77208.5611142"
"Blocked","Male","done","21","M_jaw.wav","None","733.105055655","421","68037.2307101","74920.2980117","75670.2176528","76436.8273961","77203.4681142","77970.1804247","78736.7401994","64920.7272742","68803.9336697","69570.53377","70337.122474","71103.9011171","71853.7529645","72620.4258261","73387.0215432","74153.6397608","77975.2412812"
"Blocked","Male","done","21","M_dime.wav","space","54.4932597886","421","68037.2307101","74920.2980117","75670.2176528","76436.8273961","77203.4681142","77970.1804247","78736.7401994","79486.6899386","68803.9336697","69570.53377","70337.122474","71103.9011171","71853.7529645","72620.4258261","73387.0215432","74153.6397608","78741.8419659"
"Blocked","Male","done","20","M_dime.wav","space","696.117467743","421","82603.2567849","74920.2980117","75670.2176528","76436.8273961","77203.4681142","77970.1804247","78736.7401994","79486.6899386","68803.9336697","69570.53377","70337.122474","71103.9011171","71853.7529645","72620.4258261","73387.0215432","74153.6397608","79492.108173"
"Blocked","Male","done","20","M_knife.wav","None","741.519361524","421","82603.2567849","74920.2980117","75670.2176528","76436.8273961","77203.4681142","77970.1804247","78736.7401994","79486.6899386","83369.9463027","69570.53377","70337.122474","71103.9011171","71853.7529645","72620.4258261","73387.0215432","74153.6397608","82608.4032602"
"Blocked","Male","done","20","M_done.wav","None","738.494068638","421","82603.2567849","74920.2980117","75670.2176528","76436.8273961","77203.4681142","77970.1804247","78736.7401994","79486.6899386","83369.9463027","84136.4599076","70337.122474","71103.9011171","71853.7529645","72620.4258261","73387.0215432","74153.6397608","83374.9200794"
"Blocked","Male","done","20","M_cad.wav","None","735.505302518","421","82603.2567849","74920.2980117","75670.2176528","76436.8273961","77203.4681142","77970.1804247","78736.7401994","79486.6899386","83369.9463027","84136.4599076","84903.1368602","71103.9011171","71853.7529645","72620.4258261","73387.0215432","74153.6397608","84141.6697934"
"Blocked","Male","done","20","M_done.wav","space","55.4134420836","421","82603.2567849","74920.2980117","75670.2176528","76436.8273961","77203.4681142","77970.1804247","78736.7401994","79486.6899386","83369.9463027","84136.4599076","84903.1368602","85669.8155661","71853.7529645","72620.4258261","73387.0215432","74153.6397608","84908.421845"
"Blocked","Male","done","20","M_priest.wav","space","608.806807888","421","82603.2567849","74920.2980117","75670.2176528","76436.8273961","77203.4681142","77970.1804247","78736.7401994","79486.6899386","83369.9463027","84136.4599076","84903.1368602","85669.8155661","86419.6931284","72620.4258261","73387.0215432","74153.6397608","85674.9339888"
"Blocked","Male","done","20","M_romp.wav","None","742.466719732","421","82603.2567849","74920.2980117","75670.2176528","76436.8273961","77203.4681142","77970.1804247","78736.7401994","79486.6899386","83369.9463027","84136.4599076","84903.1368602","85669.8155661","86419.6931284","87186.3879061","73387.0215432","74153.6397608","86424.6812236"
"Blocked","Male","done","20","M_cad.wav","None","739.224019534","421","82603.2567849","74920.2980117","75670.2176528","76436.8273961","77203.4681142","77970.1804247","78736.7401994","79486.6899386","83369.9463027","84136.4599076","84903.1368602","85669.8155661","86419.6931284","87186.3879061","87952.9786555","74153.6397608","87191.6211689"
"Blocked","Male","done","20","M_gnash.wav","None","736.581234944","421","82603.2567849","74920.2980117","75670.2176528","76436.8273961","77203.4681142","77970.1804247","78736.7401994","79486.6899386","83369.9463027","84136.4599076","84903.1368602","85669.8155661","86419.6931284","87186.3879061","87952.9786555","88719.5986264","87958.013505"
"Blocked","Male","done","20","M_depth.wav","None","733.405159566","421","82603.2567849","89486.2875597","75670.2176528","76436.8273961","77203.4681142","77970.1804247","78736.7401994","79486.6899386","83369.9463027","84136.4599076","84903.1368602","85669.8155661","86419.6931284","87186.3879061","87952.9786555","88719.5986264","88724.6594829"
"Blocked","Male","done","20","M_done.wav","None","730.639937256","421","82603.2567849","89486.2875597","90253.2076345","76436.8273961","77203.4681142","77970.1804247","78736.7401994","79486.6899386","83369.9463027","84136.4599076","84903.1368602","85669.8155661","86419.6931284","87186.3879061","87952.9786555","88719.5986264","89491.3051686"
"Blocked","Male","done","20","M_jaw.wav","space","616.642821994","421","82603.2567849","89486.2875597","90253.2076345","91002.8467501","77203.4681142","77970.1804247","78736.7401994","79486.6899386","83369.9463027","84136.4599076","84903.1368602","85669.8155661","86419.6931284","87186.3879061","87952.9786555","88719.5986264","90258.6992146"
"Blocked","Male","done","20","M_cling.wav","None","740.781228632","421","82603.2567849","89486.2875597","90253.2076345","91002.8467501","91769.4258109","77970.1804247","78736.7401994","79486.6899386","83369.9463027","84136.4599076","84903.1368602","85669.8155661","86419.6931284","87186.3879061","87952.9786555","88719.5986264","91008.1554041"
"Blocked","Male","done","20","M_done.wav","None","738.156853532","421","82603.2567849","89486.2875597","90253.2076345","91002.8467501","91769.4258109","92536.0989647","78736.7401994","79486.6899386","83369.9463027","84136.4599076","84903.1368602","85669.8155661","86419.6931284","87186.3879061","87952.9786555","88719.5986264","91774.4720567"
"Blocked","Male","done","20","M_priest.wav","space","694.017617005","421","82603.2567849","89486.2875597","90253.2076345","91002.8467501","91769.4258109","92536.0989647","93302.6844543","79486.6899386","83369.9463027","84136.4599076","84903.1368602","85669.8155661","86419.6931284","87186.3879061","87952.9786555","88719.5986264","92541.1083916"
"Blocked","Male","done","20","M_jaw.wav","None","731.835677475","421","82603.2567849","89486.2875597","90253.2076345","91002.8467501","91769.4258109","92536.0989647","93302.6844543","94069.8797948","83369.9463027","84136.4599076","84903.1368602","85669.8155661","86419.6931284","87186.3879061","87952.9786555","88719.5986264","93307.6614454"
"Blocked","Male","ball","5","M_lash.wav","None","727.93870984","421","97152.5880821","89486.2875597","90253.2076345","91002.8467501","91769.4258109","92536.0989647","93302.6844543","94069.8797948","83369.9463027","84136.4599076","84903.1368602","85669.8155661","86419.6931284","87186.3879061","87952.9786555","88719.5986264","94075.2620869"
"Blocked","Male","ball","5","M_romp.wav","None","741.031363927","421","97152.5880821","89486.2875597","90253.2076345","91002.8467501","91769.4258109","92536.0989647","93302.6844543","94069.8797948","97919.225878","84136.4599076","84903.1368602","85669.8155661","86419.6931284","87186.3879061","87952.9786555","88719.5986264","97157.7050437"
"Blocked","Male","ball","5","M_greet.wav","None","737.866392687","421","97152.5880821","89486.2875597","90253.2076345","91002.8467501","91769.4258109","92536.0989647","93302.6844543","94069.8797948","97919.225878","98685.807861","84903.1368602","85669.8155661","86419.6931284","87186.3879061","87952.9786555","88719.5986264","97924.3489761"
"Blocked","Male","ball","5","M_reek.wav","None","735.176269407","421","97152.5880821","89486.2875597","90253.2076345","91002.8467501","91769.4258109","92536.0989647","93302.6844543","94069.8797948","97919.225878","98685.807861","99452.4140978","85669.8155661","86419.6931284","87186.3879061","87952.9786555","88719.5986264","98690.8380351"
"Blocked","Male","ball","5","M_ball.wav","None","732.237471904","421","97152.5880821","89486.2875597","90253.2076345","91002.8467501","91769.4258109","92536.0989647","93302.6844543","94069.8797948","97919.225878","98685.807861","99452.4140978","100219.090758","86419.6931284","87186.3879061","87952.9786555","88719.5986264","99457.418557"
"Blocked","Male","ball","5","M_cling.wav","space","522.295353679","421","97152.5880821","89486.2875597","90253.2076345","91002.8467501","91769.4258109","92536.0989647","93302.6844543","94069.8797948","97919.225878","98685.807861","99452.4140978","100219.090758","100969.083745","87186.3879061","87952.9786555","88719.5986264","100224.27376"
"Blocked","Male","ball","5","M_gnash.wav","None","742.299281037","421","97152.5880821","89486.2875597","90253.2076345","91002.8467501","91769.4258109","92536.0989647","93302.6844543","94069.8797948","97919.225878","98685.807861","99452.4140978","100219.090758","100969.083745","101735.634169","87952.9786555","88719.5986264","100974.274345"
"Blocked","Male","ball","5","M_cad.wav","None","739.492856533","421","97152.5880821","89486.2875597","90253.2076345","91002.8467501","91769.4258109","92536.0989647","93302.6844543","94069.8797948","97919.225878","98685.807861","99452.4140978","100219.090758","100969.083745","101735.634169","102502.283069","88719.5986264","101740.694733"
"Blocked","Male","ball","5","M_cling.wav","None","736.612501855","421","97152.5880821","89486.2875597","90253.2076345","91002.8467501","91769.4258109","92536.0989647","93302.6844543","94069.8797948","97919.225878","98685.807861","99452.4140978","100219.090758","100969.083745","101735.634169","102502.283069","103268.882585","102507.314704"
"Blocked","Male","ball","5","M_ball.wav","None","733.300254694","421","97152.5880821","104035.534115","90253.2076345","91002.8467501","91769.4258109","92536.0989647","93302.6844543","94069.8797948","97919.225878","98685.807861","99452.4140978","100219.090758","100969.083745","101735.634169","102502.283069","103268.882585","103274.272474"
"Blocked","Male","ball","5","M_park.wav","space","529.586096218","421","97152.5880821","104035.534115","104802.470261","91002.8467501","91769.4258109","92536.0989647","93302.6844543","94069.8797948","97919.225878","98685.807861","99452.4140978","100219.090758","100969.083745","101735.634169","102502.283069","103268.882585","104040.672116"
"Blocked","Male","ball","5","M_ball.wav","None","726.874465979","421","97152.5880821","104035.534115","104802.470261","105552.199671","91769.4258109","92536.0989647","93302.6844543","94069.8797948","97919.225878","98685.807861","99452.4140978","100219.090758","100969.083745","101735.634169","102502.283069","103268.882585","104807.593652"
"Blocked","Male","ball","5","M_priest.wav","space","732.66877996","421","97152.5880821","104035.534115","104802.470261","105552.199671","106318.749511","92536.0989647","93302.6844543","94069.8797948","97919.225878","98685.807861","99452.4140978","100219.090758","100969.083745","101735.634169","102502.283069","103268.882585","105557.337964"
"Blocked","Male","ball","5","M_romp.wav","None","737.453201907","421","97152.5880821","104035.534115","104802.470261","105552.199671","106318.749511","107085.412729","93302.6844543","94069.8797948","97919.225878","98685.807861","99452.4140978","100219.090758","100969.083745","101735.634169","102502.283069","103268.882585","106323.965533"
"Blocked","Male","ball","5","M_ball.wav","None","734.533106108","421","97152.5880821","104035.534115","104802.470261","105552.199671","106318.749511","107085.412729","107852.086175","94069.8797948","97919.225878","98685.807861","99452.4140978","100219.090758","100969.083745","101735.634169","102502.283069","103268.882585","107090.593393"
"Blocked","Male","ball","5","M_greet.wav","space","432.804484201","421","97152.5880821","104035.534115","104802.470261","105552.199671","106318.749511","107085.412729","107852.086175","108618.999529","97919.225878","98685.807861","99452.4140978","100219.090758","100969.083745","101735.634169","102502.283069","103268.882585","107857.128038"
"Blocked","Male","tile","16","M_bluff.wav","None","727.261941915","421","111718.543733","104035.534115","104802.470261","105552.199671","106318.749511","107085.412729","107852.086175","108618.999529","97919.225878","98685.807861","99452.4140978","100219.090758","100969.083745","101735.634169","102502.283069","103268.882585","108624.659717"
"Blocked","Male","tile","16","M_tile.wav","None","741.358351538","421","111718.543733","104035.534115","104802.470261","105552.199671","106318.749511","107085.412729","107852.086175","108618.999529","112485.130392","98685.807861","99452.4140978","100219.090758","100969.083745","101735.634169","102502.283069","103268.882585","111723.527738"
"Blocked","Male","tile","16","M_jolt.wav","None","738.302083954","421","111718.543733","104035.534115","104802.470261","105552.199671","106318.749511","107085.412729","107852.086175","108618.999529","112485.130392","113251.751824","99452.4140978","100219.090758","100969.083745","101735.634169","102502.283069","103268.882585","112490.377389"
"Blocked","Male","tile","16","M_tile.wav","None","735.832874557","421","111718.543733","104035.534115","104802.470261","105552.199671","106318.749511","107085.412729","107852.086175","108618.999529","112485.130392","113251.751824","114018.518194","100219.090758","100969.083745","101735.634169","102502.283069","103268.882585","113256.69521"
"Blocked","Male","tile","16","M_knife.wav","space","0.0216238458815","421","111718.543733","104035.534115","104802.470261","105552.199671","106318.749511","107085.412729","107852.086175","108618.999529","112485.130392","113251.751824","114018.518194","114785.059559","100969.083745","101735.634169","102502.283069","103268.882585","114023.446677"
"Blocked","Male","tile","16","M_dime.wav","space","0.0213316316222","421","111718.543733","104035.534115","104802.470261","105552.199671","106318.749511","107085.412729","107852.086175","108618.999529","112485.130392","113251.751824","114018.518194","114785.059559","115534.994688","101735.634169","102502.283069","103268.882585","114790.319706"
"Blocked","Male","tile","16","M_tile.wav","None","742.624223149","421","111718.543733","104035.534115","104802.470261","105552.199671","106318.749511","107085.412729","107852.086175","108618.999529","112485.130392","113251.751824","114018.518194","114785.059559","115534.994688","116301.591281","102502.283069","103268.882585","115540.140286"
"Blocked","Male","tile","16","M_dime.wav","space","710.591418022","421","111718.543733","104035.534115","104802.470261","105552.199671","106318.749511","107085.412729","107852.086175","108618.999529","112485.130392","113251.751824","114018.518194","114785.059559","115534.994688","116301.591281","117068.261221","103268.882585","116306.683405"
"Blocked","Male","tile","16","M_priest.wav","None","736.111939051","421","111718.543733","104035.534115","104802.470261","105552.199671","106318.749511","107085.412729","107852.086175","108618.999529","112485.130392","113251.751824","114018.518194","114785.059559","115534.994688","116301.591281","117068.261221","117834.852847","117073.599681"
"Blocked","Male","tile","16","M_priest.wav","None","734.169299516","421","111718.543733","118601.514896","104802.470261","105552.199671","106318.749511","107085.412729","107852.086175","108618.999529","112485.130392","113251.751824","114018.518194","114785.059559","115534.994688","116301.591281","117068.261221","117834.852847","117839.928022"
"Blocked","Male","tile","16","M_gnash.wav","None","731.201865027","421","111718.543733","118601.514896","119368.367762","105552.199671","106318.749511","107085.412729","107852.086175","108618.999529","112485.130392","113251.751824","114018.518194","114785.059559","115534.994688","116301.591281","117068.261221","117834.852847","118606.674814"
"Blocked","Male","tile","16","M_knife.wav","None","728.158747079","421","111718.543733","118601.514896","119368.367762","120118.130192","106318.749511","107085.412729","107852.086175","108618.999529","112485.130392","113251.751824","114018.518194","114785.059559","115534.994688","116301.591281","117068.261221","117834.852847","119373.511315"
"Blocked","Male","tile","16","M_tile.wav","None","742.827311969","421","111718.543733","118601.514896","119368.367762","120118.130192","120884.817664","107085.412729","107852.086175","108618.999529","112485.130392","113251.751824","114018.518194","114785.059559","115534.994688","116301.591281","117068.261221","117834.852847","120122.85734"
"Blocked","Male","tile","16","M_depth.wav","None","739.515357021","421","111718.543733","118601.514896","119368.367762","120118.130192","120884.817664","121651.347925","107852.086175","108618.999529","112485.130392","113251.751824","114018.518194","114785.059559","115534.994688","116301.591281","117068.261221","117834.852847","120889.911249"
"Blocked","Male","tile","16","M_gnash.wav","space","496.446091753","421","111718.543733","118601.514896","119368.367762","120118.130192","120884.817664","121651.347925","122417.997118","108618.999529","112485.130392","113251.751824","114018.518194","114785.059559","115534.994688","116301.591281","117068.261221","117834.852847","121656.401476"
"Blocked","Male","tile","16","M_romp.wav","None","733.651203864","421","111718.543733","118601.514896","119368.367762","120118.130192","120884.817664","121651.347925","122417.997118","123184.686635","112485.130392","113251.751824","114018.518194","114785.059559","115534.994688","116301.591281","117068.261221","117834.852847","122423.044532"
"Blocked","Male","cave","7","M_jaw.wav","None","731.12209057","421","126301.632191","118601.514896","119368.367762","120118.130192","120884.817664","121651.347925","122417.997118","123184.686635","112485.130392","113251.751824","114018.518194","114785.059559","115534.994688","116301.591281","117068.261221","117834.852847","123189.672977"
"Blocked","Male","cave","7","M_cave.wav","None","724.066288191","421","126301.632191","118601.514896","119368.367762","120118.130192","120884.817664","121651.347925","122417.997118","123184.686635","127051.121109","113251.751824","114018.518194","114785.059559","115534.994688","116301.591281","117068.261221","117834.852847","126307.387056"
"Blocked","Male","cave","7","M_greet.wav","space","416.133960308","421","126301.632191","118601.514896","119368.367762","120118.130192","120884.817664","121651.347925","122417.997118","123184.686635","127051.121109","127817.789587","114018.518194","114785.059559","115534.994688","116301.591281","117068.261221","117834.852847","127056.267876"
"Blocked","Male","cave","7","M_jolt.wav","None","735.415008351","421","126301.632191","118601.514896","119368.367762","120118.130192","120884.817664","121651.347925","122417.997118","123184.686635","127051.121109","127817.789587","128584.420078","114785.059559","115534.994688","116301.591281","117068.261221","117834.852847","127822.891938"
"Blocked","Male","cave","7","M_priest.wav","None","732.319584074","421","126301.632191","118601.514896","119368.367762","120118.130192","120884.817664","121651.347925","122417.997118","123184.686635","127051.121109","127817.789587","128584.420078","129351.071315","115534.994688","116301.591281","117068.261221","117834.852847","128589.727271"
"Blocked","Male","cave","7","M_cling.wav","None","729.635889506","421","126301.632191","118601.514896","119368.367762","120118.130192","120884.817664","121651.347925","122417.997118","123184.686635","127051.121109","127817.789587","128584.420078","129351.071315","130101.024561","116301.591281","117068.261221","117834.852847","129356.144153"
"Blocked","Male","cave","7","M_knife.wav","None","743.575087927","421","126301.632191","118601.514896","119368.367762","120118.130192","120884.817664","121651.347925","122417.997118","123184.686635","127051.121109","127817.789587","128584.420078","129351.071315","130101.024561","130867.623785","117068.261221","117834.852847","130105.9735"
"Blocked","Male","cave","7","M_knife.wav","None","740.720155879","421","126301.632191","118601.514896","119368.367762","120118.130192","120884.817664","121651.347925","122417.997118","123184.686635","127051.121109","127817.789587","128584.420078","129351.071315","130101.024561","130867.623785","131634.255736","117834.852847","130872.81906"
"Blocked","Male","cave","7","M_romp.wav","None","738.003733328","421","126301.632191","118601.514896","119368.367762","120118.130192","120884.817664","121651.347925","122417.997118","123184.686635","127051.121109","127817.789587","128584.420078","129351.071315","130101.024561","130867.623785","131634.255736","132400.870447","131639.310164"
"Blocked","Male","cave","7","M_dime.wav","None","735.154645562","421","126301.632191","133167.515841","119368.367762","120118.130192","120884.817664","121651.347925","122417.997118","123184.686635","127051.121109","127817.789587","128584.420078","129351.071315","130101.024561","130867.623785","131634.255736","132400.870447","132406.276993"
"Blocked","Male","cave","7","M_cave.wav","None","732.322506215","421","126301.632191","133167.515841","133934.148669","120118.130192","120884.817664","121651.347925","122417.997118","123184.686635","127051.121109","127817.789587","128584.420078","129351.071315","130101.024561","130867.623785","131634.255736","132400.870447","133172.738"
"Blocked","Male","cave","7","M_cling.wav","space","516.536982036","421","126301.632191","133167.515841","133934.148669","134684.091687","120884.817664","121651.347925","122417.997118","123184.686635","127051.121109","127817.789587","128584.420078","129351.071315","130101.024561","130867.623785","131634.255736","132400.870447","133939.296313"
"Blocked","Male","cave","7","M_cave.wav","None","743.008776944","421","126301.632191","133167.515841","133934.148669","134684.091687","135450.806628","121651.347925","122417.997118","123184.686635","127051.121109","127817.789587","128584.420078","129351.071315","130101.024561","130867.623785","131634.255736","132400.870447","134689.203389"
"Blocked","Male","cave","7","M_depth.wav","None","740.408655617","421","126301.632191","133167.515841","133934.148669","134684.091687","135450.806628","136217.310298","122417.997118","123184.686635","127051.121109","127817.789587","128584.420078","129351.071315","130101.024561","130867.623785","131634.255736","132400.870447","135455.73891"
"Blocked","Male","cave","7","M_cave.wav","space","0.0207472034963","421","126301.632191","133167.515841","133934.148669","134684.091687","135450.806628","136217.310298","136983.94634","123184.686635","127051.121109","127817.789587","128584.420078","129351.071315","130101.024561","130867.623785","131634.255736","132400.870447","136218.923027"
"Blocked","Male","cave","7","M_greet.wav","space","602.470728911","421","126301.632191","133167.515841","133934.148669","134684.091687","135450.806628","136217.310298","136983.94634","137750.632059","127051.121109","127817.789587","128584.420078","129351.071315","130101.024561","130867.623785","131634.255736","132400.870447","136989.159732"
"Blocked","Male","tile","14","M_gnash.wav","None","733.421815772","421","140850.481627","133167.515841","133934.148669","134684.091687","135450.806628","136217.310298","136983.94634","137750.632059","127051.121109","127817.789587","128584.420078","129351.071315","130101.024561","130867.623785","131634.255736","132400.870447","137755.719799"
"Blocked","Male","tile","14","M_depth.wav","None","741.748457402","421","140850.481627","133167.515841","133934.148669","134684.091687","135450.806628","136217.310298","136983.94634","137750.632059","141617.100429","127817.789587","128584.420078","129351.071315","130101.024561","130867.623785","131634.255736","132400.870447","140855.876192"
"Blocked","Male","tile","14","M_jaw.wav","None","739.458959695","421","140850.481627","133167.515841","133934.148669","134684.091687","135450.806628","136217.310298","136983.94634","137750.632059","141617.100429","142383.73881","128584.420078","129351.071315","130101.024561","130867.623785","131634.255736","132400.870447","141622.203072"
"Blocked","Male","tile","14","M_tile.wav","None","737.004945432","421","140850.481627","133167.515841","133934.148669","134684.091687","135450.806628","136217.310298","136983.94634","137750.632059","141617.100429","142383.73881","143150.371346","129351.071315","130101.024561","130867.623785","131634.255736","132400.870447","142388.757295"
"Blocked","Male","tile","14","M_cad.wav","space","355.559724477","421","140850.481627","133167.515841","133934.148669","134684.091687","135450.806628","136217.310298","136983.94634","137750.632059","141617.100429","142383.73881","143150.371346","143916.986641","130101.024561","130867.623785","131634.255736","132400.870447","143155.568666"
"Blocked","Male","tile","14","M_tile.wav","None","731.014847985","421","140850.481627","133167.515841","133934.148669","134684.091687","135450.806628","136217.310298","136983.94634","137750.632059","141617.100429","142383.73881","143150.371346","143916.986641","144683.952009","130867.623785","131634.255736","132400.870447","143922.021783"
"Blocked","Male","tile","14","M_cling.wav","None","727.510323925","421","140850.481627","133167.515841","133934.148669","134684.091687","135450.806628","136217.310298","136983.94634","137750.632059","141617.100429","142383.73881","143150.371346","143916.986641","144683.952009","145433.602229","131634.255736","132400.870447","144689.566611"
"Blocked","Male","tile","14","M_tile.wav","space","0.0169484192156","421","140850.481627","133167.515841","133934.148669","134684.091687","135450.806628","136217.310298","136983.94634","137750.632059","141617.100429","142383.73881","143150.371346","143916.986641","144683.952009","145433.602229","146200.23155","132400.870447","145438.552628"
"Blocked","Male","tile","14","M_priest.wav","space","489.617339752","421","140850.481627","133167.515841","133934.148669","134684.091687","135450.806628","136217.310298","136983.94634","137750.632059","141617.100429","142383.73881","143150.371346","143916.986641","144683.952009","145433.602229","146200.23155","146966.929542","146205.287439"
"Blocked","Male","tile","14","M_cling.wav","None","735.142372568","421","140850.481627","147733.494285","133934.148669","134684.091687","135450.806628","136217.310298","136983.94634","137750.632059","141617.100429","142383.73881","143150.371346","143916.986641","144683.952009","145433.602229","146200.23155","146966.929542","146972.303068"
"Blocked","Male","tile","14","M_cad.wav","None","733.025573412","421","140850.481627","147733.494285","148500.092924","134684.091687","135450.806628","136217.310298","136983.94634","137750.632059","141617.100429","142383.73881","143150.371346","143916.986641","144683.952009","145433.602229","146200.23155","146966.929542","147738.653033"
"Blocked","Male","tile","14","M_tile.wav","None","730.778738967","421","140850.481627","147733.494285","148500.092924","149267.079916","135450.806628","136217.310298","136983.94634","137750.632059","141617.100429","142383.73881","143150.371346","143916.986641","144683.952009","145433.602229","146200.23155","146966.929542","148505.277095"
"Blocked","Male","tile","14","M_depth.wav","space","334.120558199","421","140850.481627","147733.494285","148500.092924","149267.079916","150016.743577","136217.310298","136983.94634","137750.632059","141617.100429","142383.73881","143150.371346","143916.986641","144683.952009","145433.602229","146200.23155","146966.929542","149272.535554"
"Blocked","Male","tile","14","M_greet.wav","None","742.147621903","421","140850.481627","147733.494285","148500.092924","149267.079916","150016.743577","150783.324392","136983.94634","137750.632059","141617.100429","142383.73881","143150.371346","143916.986641","144683.952009","145433.602229","146200.23155","146966.929542","150021.464297"
"Blocked","Male","tile","14","M_park.wav","None","738.933558689","421","140850.481627","147733.494285","148500.092924","149267.079916","150016.743577","150783.324392","151549.978259","137750.632059","141617.100429","142383.73881","143150.371346","143916.986641","144683.952009","145433.602229","146200.23155","146966.929542","150788.704346"
"Blocked","Male","tile","14","M_reek.wav","None","736.786077049","421","140850.481627","147733.494285","148500.092924","149267.079916","150016.743577","150783.324392","151549.978259","152316.613133","141617.100429","142383.73881","143150.371346","143916.986641","144683.952009","145433.602229","146200.23155","146966.929542","151555.155417"
"Blocked","Male","done","22","M_cad.wav","None","734.502423624","421","155416.410687","147733.494285","148500.092924","149267.079916","150016.743577","150783.324392","151549.978259","152316.613133","141617.100429","142383.73881","143150.371346","143916.986641","144683.952009","145433.602229","146200.23155","146966.929542","152321.621975"
"Blocked","Male","done","22","M_done.wav","None","741.477574903","421","155416.410687","147733.494285","148500.092924","149267.079916","150016.743577","150783.324392","151549.978259","152316.613133","156183.221182","142383.73881","143150.371346","143916.986641","144683.952009","145433.602229","146200.23155","146966.929542","155421.678431"
"Blocked","Male","done","22","M_gnash.wav","space","481.823404481","421","155416.410687","147733.494285","148500.092924","149267.079916","150016.743577","150783.324392","151549.978259","152316.613133","156183.221182","156949.719299","143150.371346","143916.986641","144683.952009","145433.602229","146200.23155","146966.929542","156188.243466"
"Blocked","Male","done","22","M_jolt.wav","None","735.777061659","421","155416.410687","147733.494285","148500.092924","149267.079916","150016.743577","150783.324392","151549.978259","152316.613133","156183.221182","156949.719299","157716.347744","143916.986641","144683.952009","145433.602229","146200.23155","146966.929542","156954.924509"
"Blocked","Male","done","22","M_depth.wav","None","733.127263929","421","155416.410687","147733.494285","148500.092924","149267.079916","150016.743577","150783.324392","151549.978259","152316.613133","156183.221182","156949.719299","157716.347744","158482.994891","144683.952009","145433.602229","146200.23155","146966.929542","157721.485453"
"Blocked","Male","done","22","M_reek.wav","None","730.435679579","421","155416.410687","147733.494285","148500.092924","149267.079916","150016.743577","150783.324392","151549.978259","152316.613133","156183.221182","156949.719299","157716.347744","158482.994891","159249.987143","145433.602229","146200.23155","146966.929542","158488.309097"
"Blocked","Male","done","22","M_cad.wav","None","727.058853095","421","155416.410687","147733.494285","148500.092924","149267.079916","150016.743577","150783.324392","151549.978259","152316.613133","156183.221182","156949.719299","157716.347744","158482.994891","159249.987143","159999.635317","146200.23155","146966.929542","159255.648791"
"Blocked","Male","done","22","M_priest.wav","None","742.080120439","421","155416.410687","147733.494285","148500.092924","149267.079916","150016.743577","150783.324392","151549.978259","152316.613133","156183.221182","156949.719299","157716.347744","158482.994891","159249.987143","159999.635317","160766.253242","146966.929542","160004.759876"
"Blocked","Male","done","22","M_cad.wav","None","739.472109331","421","155416.410687","147733.494285","148500.092924","149267.079916","150016.743577","150783.324392","151549.978259","152316.613133","156183.221182","156949.719299","157716.347744","158482.994891","159249.987143","159999.635317","160766.253242","161532.83581","160771.362606"
"Blocked","Male","done","22","M_done.wav","None","736.949424747","421","155416.410687","162299.426851","148500.092924","149267.079916","150016.743577","150783.324392","151549.978259","152316.613133","156183.221182","156949.719299","157716.347744","158482.994891","159249.987143","159999.635317","160766.253242","161532.83581","161537.963875"
"Blocked","Male","done","22","M_priest.wav","None","734.284724097","421","155416.410687","162299.426851","163066.055296","149267.079916","150016.743577","150783.324392","151549.978259","152316.613133","156183.221182","156949.719299","157716.347744","158482.994891","159249.987143","159999.635317","160766.253242","161532.83581","162304.561638"
"Blocked","Male","done","22","M_gnash.wav","None","731.808209347","421","155416.410687","162299.426851","163066.055296","163832.682865","150016.743577","150783.324392","151549.978259","152316.613133","156183.221182","156949.719299","157716.347744","158482.994891","159249.987143","159999.635317","160766.253242","161532.83581","163071.148881"
"Blocked","Male","done","22","M_done.wav","None","729.677091698","421","155416.410687","162299.426851","163066.055296","163832.682865","164582.66504","150783.324392","151549.978259","152316.613133","156183.221182","156949.719299","157716.347744","158482.994891","159249.987143","159999.635317","160766.253242","161532.83581","163837.680311"
"Blocked","Male","done","22","M_romp.wav","space","673.469996038","421","155416.410687","162299.426851","163066.055296","163832.682865","164582.66504","165349.340531","151549.978259","152316.613133","156183.221182","156949.719299","157716.347744","158482.994891","159249.987143","159999.635317","160766.253242","161532.83581","164587.959375"
"Blocked","Male","done","22","M_done.wav","None","740.278912543","421","155416.410687","162299.426851","163066.055296","163832.682865","164582.66504","165349.340531","166115.914624","152316.613133","156183.221182","156949.719299","157716.347744","158482.994891","159249.987143","159999.635317","160766.253242","161532.83581","165354.32775"
"Blocked","Male","done","22","M_cling.wav","space","540.119246742","421","155416.410687","162299.426851","163066.055296","163832.682865","164582.66504","165349.340531","166115.914624","166882.619045","156183.221182","156949.719299","157716.347744","158482.994891","159249.987143","159999.635317","160766.253242","161532.83581","166121.153732"
"Blocked","Male","cave","10","M_jaw.wav","None","734.047446223","421","169965.796921","162299.426851","163066.055296","163832.682865","164582.66504","165349.340531","166115.914624","166882.619045","156183.221182","156949.719299","157716.347744","158482.994891","159249.987143","159999.635317","160766.253242","161532.83581","166887.655356"
"Blocked","Male","cave","10","M_depth.wav","None","741.060293125","421","169965.796921","162299.426851","163066.055296","163832.682865","164582.66504","165349.340531","166115.914624","166882.619045","170732.401696","156949.719299","157716.347744","158482.994891","159249.987143","159999.635317","160766.253242","161532.83581","169970.973494"
"Blocked","Male","cave","10","M_cling.wav","None","738.452574231","421","169965.796921","162299.426851","163066.055296","163832.682865","164582.66504","165349.340531","166115.914624","166882.619045","170732.401696","171498.977251","157716.347744","158482.994891","159249.987143","159999.635317","160766.253242","161532.83581","170737.570672"
"Blocked","Male","cave","10","M_romp.wav","None","735.969922984","421","169965.796921","162299.426851","163066.055296","163832.682865","164582.66504","165349.340531","166115.914624","166882.619045","170732.401696","171498.977251","172265.660047","158482.994891","159249.987143","159999.635317","160766.253242","161532.83581","171504.076972"
"Blocked","Male","cave","10","M_cave.wav","None","733.340872458","421","169965.796921","162299.426851","163066.055296","163832.682865","164582.66504","165349.340531","166115.914624","166882.619045","170732.401696","171498.977251","172265.660047","173032.313623","159249.987143","159999.635317","160766.253242","161532.83581","172270.703956"
"Blocked","Male","cave","10","M_greet.wav","None","730.861435566","421","169965.796921","162299.426851","163066.055296","163832.682865","164582.66504","165349.340531","166115.914624","166882.619045","170732.401696","171498.977251","172265.660047","173032.313623","173799.155969","159999.635317","160766.253242","161532.83581","173037.392889"
"Blocked","Male","cave","10","M_cave.wav","space","368.305228179","421","169965.796921","162299.426851","163066.055296","163832.682865","164582.66504","165349.340531","166115.914624","166882.619045","170732.401696","171498.977251","172265.660047","173032.313623","173799.155969","174548.899989","160766.253242","161532.83581","173804.396245"
"Blocked","Male","cave","10","M_bluff.wav","space","514.630869267","421","169965.796921","162299.426851","163066.055296","163832.682865","164582.66504","165349.340531","166115.914624","166882.619045","170732.401696","171498.977251","172265.660047","173032.313623","173799.155969","174548.899989","175315.647073","161532.83581","174554.022211"
"Blocked","Male","cave","10","M_cave.wav","None","737.976265199","421","169965.796921","162299.426851","163066.055296","163832.682865","164582.66504","165349.340531","166115.914624","166882.619045","170732.401696","171498.977251","172265.660047","173032.313623","173799.155969","174548.899989","175315.647073","176082.104281","175321.002481"
"Blocked","Male","cave","10","M_greet.wav","space","437.381434117","421","169965.796921","176848.827695","163066.055296","163832.682865","164582.66504","165349.340531","166115.914624","166882.619045","170732.401696","171498.977251","172265.660047","173032.313623","173799.155969","174548.899989","175315.647073","176082.104281","176087.165429"
"Blocked","Male","cave","10","M_jolt.wav","None","732.372767046","421","169965.796921","176848.827695","177615.394191","163832.682865","164582.66504","165349.340531","166115.914624","166882.619045","170732.401696","171498.977251","172265.660047","173032.313623","173799.155969","174548.899989","175315.647073","176082.104281","176853.893812"
"Blocked","Male","cave","10","M_romp.wav","None","729.938915558","421","169965.796921","176848.827695","177615.394191","178382.432612","164582.66504","165349.340531","166115.914624","166882.619045","170732.401696","171498.977251","172265.660047","173032.313623","173799.155969","174548.899989","175315.647073","176082.104281","177620.421735"
"Blocked","Male","cave","10","M_romp.wav","None","726.302310713","421","169965.796921","176848.827695","177615.394191","178382.432612","179132.057702","165349.340531","166115.914624","166882.619045","170732.401696","171498.977251","172265.660047","173032.313623","173799.155969","174548.899989","175315.647073","176082.104281","178388.207933"
"Blocked","Male","cave","10","M_lash.wav","None","741.115521596","421","169965.796921","176848.827695","177615.394191","178382.432612","179132.057702","179898.632087","166115.914624","166882.619045","170732.401696","171498.977251","172265.660047","173032.313623","173799.155969","174548.899989","175315.647073","176082.104281","179137.431812"
"Blocked","Male","cave","10","M_cave.wav","None","739.000475725","421","169965.796921","176848.827695","177615.394191","178382.432612","179132.057702","179898.632087","180665.225174","166882.619045","170732.401696","171498.977251","172265.660047","173032.313623","173799.155969","174548.899989","175315.647073","176082.104281","179903.647066"
"Blocked","Male","cave","10","M_cad.wav","space","573.88137509","421","169965.796921","176848.827695","177615.394191","178382.432612","179132.057702","179898.632087","180665.225174","181431.923459","170732.401696","171498.977251","172265.660047","173032.313623","173799.155969","174548.899989","175315.647073","176082.104281","180670.224081"
"Blocked","Male","cave","12","M_dime.wav","None","732.583161219","421","184531.794066","176848.827695","177615.394191","178382.432612","179132.057702","179898.632087","180665.225174","181431.923459","170732.401696","171498.977251","172265.660047","173032.313623","173799.155969","174548.899989","175315.647073","176082.104281","181437.039544"
"Blocked","Male","cave","12","M_cave.wav","None","740.948959542","421","184531.794066","176848.827695","177615.394191","178382.432612","179132.057702","179898.632087","180665.225174","181431.923459","185298.364361","171498.977251","172265.660047","173032.313623","173799.155969","174548.899989","175315.647073","176082.104281","184536.836513"
"Blocked","Male","cave","12","M_romp.wav","space","652.226905441","421","184531.794066","176848.827695","177615.394191","178382.432612","179132.057702","179898.632087","180665.225174","181431.923459","185298.364361","186065.010631","172265.660047","173032.313623","173799.155969","174548.899989","175315.647073","176082.104281","185303.552038"
"Blocked","Male","cave","12","M_reek.wav","None","734.993927791","421","184531.794066","176848.827695","177615.394191","178382.432612","179132.057702","179898.632087","180665.225174","181431.923459","185298.364361","186065.010631","186831.591153","173032.313623","173799.155969","174548.899989","175315.647073","176082.104281","186070.041974"
"Blocked","Male","cave","12","M_knife.wav","None","732.33770135","421","184531.794066","176848.827695","177615.394191","178382.432612","179132.057702","179898.632087","180665.225174","181431.923459","185298.364361","186065.010631","186831.591153","187598.211416","173799.155969","174548.899989","175315.647073","176082.104281","186836.663698"
"Blocked","Male","cave","12","M_dime.wav","None","729.507607503","421","184531.794066","176848.827695","177615.394191","178382.432612","179132.057702","179898.632087","180665.225174","181431.923459","185298.364361","186065.010631","186831.591153","187598.211416","188365.232889","174548.899989","175315.647073","176082.104281","187603.576759"
"Blocked","Male","cave","12","M_bluff.wav","None","726.299680785","421","184531.794066","176848.827695","177615.394191","178382.432612","179132.057702","179898.632087","180665.225174","181431.923459","185298.364361","186065.010631","186831.591153","187598.211416","188365.232889","189114.896258","175315.647073","176082.104281","188370.88957"
"Blocked","Male","cave","12","M_cave.wav","None","741.391079521","421","184531.794066","176848.827695","177615.394191","178382.432612","179132.057702","179898.632087","180665.225174","181431.923459","185298.364361","186065.010631","186831.591153","187598.211416","188365.232889","189114.896258","189881.491391","176082.104281","189120.073416"
"Blocked","Male","cave","12","M_gnash.wav","space","460.863469377","421","184531.794066","176848.827695","177615.394191","178382.432612","179132.057702","179898.632087","180665.225174","181431.923459","185298.364361","186065.010631","186831.591153","187598.211416","188365.232889","189114.896258","189881.491391","190648.140875","189886.515136"
"Blocked","Male","cave","12","M_romp.wav","None","735.595304469","421","184531.794066","191414.75208","177615.394191","178382.432612","179132.057702","179898.632087","180665.225174","181431.923459","185298.364361","186065.010631","186831.591153","187598.211416","188365.232889","189114.896258","189881.491391","190648.140875","190653.238259"
"Blocked","Male","cave","12","M_cave.wav","None","732.707352225","421","184531.794066","191414.75208","192181.329095","178382.432612","179132.057702","179898.632087","180665.225174","181431.923459","185298.364361","186065.010631","186831.591153","187598.211416","188365.232889","189114.896258","189881.491391","190648.140875","191420.167684"
"Blocked","Male","cave","12","M_dime.wav","space","640.929322753","421","184531.794066","191414.75208","192181.329095","192931.307763","179132.057702","179898.632087","180665.225174","181431.923459","185298.364361","186065.010631","186831.591153","187598.211416","188365.232889","189114.896258","189881.491391","190648.140875","192186.292644"
"Blocked","Male","cave","12","M_cave.wav","None","743.740481125","421","184531.794066","191414.75208","192181.329095","192931.307763","193698.013937","179898.632087","180665.225174","181431.923459","185298.364361","186065.010631","186831.591153","187598.211416","188365.232889","189114.896258","189881.491391","190648.140875","192936.449855"
"Blocked","Male","cave","12","M_romp.wav","space","523.818373723","421","184531.794066","191414.75208","192181.329095","192931.307763","193698.013937","194464.64998","180665.225174","181431.923459","185298.364361","186065.010631","186831.591153","187598.211416","188365.232889","189114.896258","189881.491391","190648.140875","193703.310319"
"Blocked","Male","cave","12","M_cling.wav","None","737.81993064","421","184531.794066","191414.75208","192181.329095","192931.307763","193698.013937","194464.64998","195231.282224","181431.923459","185298.364361","186065.010631","186831.591153","187598.211416","188365.232889","189114.896258","189881.491391","190648.140875","194469.617036"
"Blocked","Male","cave","12","M_jolt.wav","space","414.656817882","421","184531.794066","191414.75208","192181.329095","192931.307763","193698.013937","194464.64998","195231.282224","195997.90687","185298.364361","186065.010631","186831.591153","187598.211416","188365.232889","189114.896258","189881.491391","190648.140875","195236.351555"
"Blocked","Male","cave","8","M_romp.wav","None","731.752980877","421","199097.78829","191414.75208","192181.329095","192931.307763","193698.013937","194464.64998","195231.282224","195997.90687","185298.364361","186065.010631","186831.591153","187598.211416","188365.232889","189114.896258","189881.491391","190648.140875","196003.010974"
"Blocked","Male","cave","8","M_knife.wav","None","740.616712077","421","199097.78829","191414.75208","192181.329095","192931.307763","193698.013937","194464.64998","195231.282224","195997.90687","199864.353324","186065.010631","186831.591153","187598.211416","188365.232889","189114.896258","189881.491391","190648.140875","199103.025644"
"Blocked","Male","cave","8","M_knife.wav","None","738.430073743","421","199097.78829","191414.75208","192181.329095","192931.307763","193698.013937","194464.64998","195231.282224","195997.90687","199864.353324","200630.936476","186831.591153","187598.211416","188365.232889","189114.896258","189881.491391","190648.140875","199869.488695"
"Blocked","Male","cave","8","M_cave.wav","None","736.257169473","421","199097.78829","191414.75208","192181.329095","192931.307763","193698.013937","194464.64998","195231.282224","195997.90687","199864.353324","200630.936476","201397.579532","187598.211416","188365.232889","189114.896258","189881.491391","190648.140875","200635.961975"
"Blocked","Male","cave","8","M_reek.wav","space","456.024987815","421","199097.78829","191414.75208","192181.329095","192931.307763","193698.013937","194464.64998","195231.282224","195997.90687","199864.353324","200630.936476","201397.579532","202164.288628","188365.232889","189114.896258","189881.491391","190648.140875","201402.473242"
"Blocked","Male","cave","8","M_romp.wav","None","730.395354029","421","199097.78829","191414.75208","192181.329095","192931.307763","193698.013937","194464.64998","195231.282224","195997.90687","199864.353324","200630.936476","201397.579532","202164.288628","202931.265977","189114.896258","189881.491391","190648.140875","202169.385135"
"Blocked","Male","cave","8","M_cave.wav","None","727.319800313","421","199097.78829","191414.75208","192181.329095","192931.307763","193698.013937","194464.64998","195231.282224","195997.90687","199864.353324","200630.936476","201397.579532","202164.288628","202931.265977","203680.852786","189881.491391","190648.140875","202936.617586"
"Blocked","Male","cave","8","M_park.wav","None","742.677698335","421","199097.78829","191414.75208","192181.329095","192931.307763","193698.013937","194464.64998","195231.282224","195997.90687","199864.353324","200630.936476","201397.579532","202164.288628","202931.265977","203680.852786","204447.435646","190648.140875","203685.748249"
"Blocked","Male","cave","8","M_lash.wav","space","261.687104123","421","199097.78829","191414.75208","192181.329095","192931.307763","193698.013937","194464.64998","195231.282224","195997.90687","199864.353324","200630.936476","201397.579532","202164.288628","202931.265977","203680.852786","204447.435646","205214.106754","204452.571893"
"Blocked","Male","cave","8","M_gnash.wav","None","736.425777027","421","199097.78829","205980.74981","192181.329095","192931.307763","193698.013937","194464.64998","195231.282224","195997.90687","199864.353324","200630.936476","201397.579532","202164.288628","202931.265977","203680.852786","204447.435646","205214.106754","205219.470929"
"Blocked","Male","cave","8","M_cave.wav","None","734.511482262","421","199097.78829","205980.74981","206747.408353","192931.307763","193698.013937","194464.64998","195231.282224","195997.90687","199864.353324","200630.936476","201397.579532","202164.288628","202931.265977","203680.852786","204447.435646","205214.106754","205985.808036"
"Blocked","Male","cave","8","M_cling.wav","None","732.021233448","421","199097.78829","205980.74981","206747.408353","207514.036798","193698.013937","194464.64998","195231.282224","195997.90687","199864.353324","200630.936476","201397.579532","202164.288628","202931.265977","203680.852786","204447.435646","205214.106754","206752.424501"
"Blocked","Male","cave","8","M_depth.wav","space","67.0958707806","421","199097.78829","205980.74981","206747.408353","207514.036798","208263.953809","194464.64998","195231.282224","195997.90687","199864.353324","200630.936476","201397.579532","202164.288628","202931.265977","203680.852786","204447.435646","205214.106754","207518.951547"
"Blocked","Male","cave","8","M_cave.wav","None","743.149039726","421","199097.78829","205980.74981","206747.408353","207514.036798","208263.953809","209030.641281","195231.282224","195997.90687","199864.353324","200630.936476","201397.579532","202164.288628","202931.265977","203680.852786","204447.435646","205214.106754","208268.908007"
"Blocked","Male","cave","8","M_knife.wav","None","740.388200627","421","199097.78829","205980.74981","206747.408353","207514.036798","208263.953809","209030.641281","209797.186445","195997.90687","199864.353324","200630.936476","201397.579532","202164.288628","202931.265977","203680.852786","204447.435646","205214.106754","209036.051334"
"Blocked","Male","cave","8","M_reek.wav","space","215.483959198","421","199097.78829","205980.74981","206747.408353","207514.036798","208263.953809","209030.641281","209797.186445","210563.802325","199864.353324","200630.936476","201397.579532","202164.288628","202931.265977","203680.852786","204447.435646","205214.106754","209802.360973"
"Blocked","Male","done","23","M_priest.wav","None","735.130684003","421","213680.32534","205980.74981","206747.408353","207514.036798","208263.953809","209030.641281","209797.186445","210563.802325","199864.353324","200630.936476","201397.579532","202164.288628","202931.265977","203680.852786","204447.435646","205214.106754","210568.734608"
"Blocked","Male","done","23","M_cad.wav","None","740.974089957","421","213680.32534","205980.74981","206747.408353","207514.036798","208263.953809","209030.641281","209797.186445","210563.802325","214446.988558","200630.936476","201397.579532","202164.288628","202931.265977","203680.852786","204447.435646","205214.106754","213685.71669"
"Blocked","Male","done","23","M_depth.wav","None","738.87277815","421","213680.32534","205980.74981","206747.408353","207514.036798","208263.953809","209030.641281","209797.186445","210563.802325","214446.988558","215213.625185","201397.579532","202164.288628","202931.265977","203680.852786","204447.435646","205214.106754","214452.152274"
"Blocked","Male","done","23","M_lash.wav","None","736.760362206","421","213680.32534","205980.74981","206747.408353","207514.036798","208263.953809","209030.641281","209797.186445","210563.802325","214446.988558","215213.625185","215980.274962","202164.288628","202931.265977","203680.852786","204447.435646","205214.106754","215218.81257"
"Blocked","Male","done","23","M_done.wav","None","734.628367914","421","213680.32534","205980.74981","206747.408353","207514.036798","208263.953809","209030.641281","209797.186445","210563.802325","214446.988558","215213.625185","215980.274962","216746.900777","202931.265977","203680.852786","204447.435646","205214.106754","215985.230037"
"Blocked","Male","done","23","M_knife.wav","space","577.1573877","421","213680.32534","205980.74981","206747.408353","207514.036798","208263.953809","209030.641281","209797.186445","210563.802325","214446.988558","215213.625185","215980.274962","216746.900777","217514.030369","203680.852786","204447.435646","205214.106754","216752.098682"
"Blocked","Male","done","23","M_jolt.wav","None","727.88143587","421","213680.32534","205980.74981","206747.408353","207514.036798","208263.953809","209030.641281","209797.186445","210563.802325","214446.988558","215213.625185","215980.274962","216746.900777","217514.030369","218263.450909","204447.435646","205214.106754","217519.296944"
"Blocked","Male","done","23","M_greet.wav","None","742.862377665","421","213680.32534","205980.74981","206747.408353","207514.036798","208263.953809","209030.641281","209797.186445","210563.802325","214446.988558","215213.625185","215980.274962","216746.900777","217514.030369","218263.450909","219030.155914","205214.106754","218268.611702"
"Blocked","Male","done","23","M_done.wav","None","740.586906235","421","213680.32534","205980.74981","206747.408353","207514.036798","208263.953809","209030.641281","209797.186445","210563.802325","214446.988558","215213.625185","215980.274962","216746.900777","217514.030369","218263.450909","219030.155914","219796.693772","219035.276674"
"Blocked","Male","done","23","M_depth.wav","space","671.22082388","421","213680.32534","220563.420109","206747.408353","207514.036798","208263.953809","209030.641281","209797.186445","210563.802325","214446.988558","215213.625185","215980.274962","216746.900777","217514.030369","218263.450909","219030.155914","219796.693772","219801.737388"
"Blocked","Male","done","23","M_gnash.wav","None","734.735026072","421","213680.32534","220563.420109","221329.976377","207514.036798","208263.953809","209030.641281","209797.186445","210563.802325","214446.988558","215213.625185","215980.274962","216746.900777","217514.030369","218263.450909","219030.155914","219796.693772","220568.744543"
"Blocked","Male","done","23","M_done.wav","None","732.961870731","421","213680.32534","220563.420109","221329.976377","222096.601316","208263.953809","209030.641281","209797.186445","210563.802325","214446.988558","215213.625185","215980.274962","216746.900777","217514.030369","218263.450909","219030.155914","219796.693772","221334.933498"
"Blocked","Male","done","23","M_gnash.wav","None","730.471914131","421","213680.32534","220563.420109","221329.976377","222096.601316","222863.630387","209030.641281","209797.186445","210563.802325","214446.988558","215213.625185","215980.274962","216746.900777","217514.030369","218263.450909","219030.155914","219796.693772","222101.773214"
"Blocked","Male","done","23","M_done.wav","space","35.6410652021","421","213680.32534","220563.420109","221329.976377","222096.601316","222863.630387","223613.214858","209797.186445","210563.802325","214446.988558","215213.625185","215980.274962","216746.900777","217514.030369","218263.450909","219030.155914","219796.693772","222869.185669"
"Blocked","Male","done","23","M_park.wav","space","662.317059344","421","213680.32534","220563.420109","221329.976377","222096.601316","222863.630387","223613.214858","224379.909636","210563.802325","214446.988558","215213.625185","215980.274962","216746.900777","217514.030369","218263.450909","219030.155914","219796.693772","223618.386171"
"Blocked","Male","done","23","M_lash.wav","None","738.297700742","421","213680.32534","220563.420109","221329.976377","222096.601316","222863.630387","223613.214858","224379.909636","225146.497463","214446.988558","215213.625185","215980.274962","216746.900777","217514.030369","218263.450909","219030.155914","219796.693772","224384.95442"
"Blocked","Male","cave","11","M_romp.wav","None","736.249571906","421","228246.38122","220563.420109","221329.976377","222096.601316","222863.630387","223613.214858","224379.909636","225146.497463","214446.988558","215213.625185","215980.274962","216746.900777","217514.030369","218263.450909","219030.155914","219796.693772","225151.484682"
"Blocked","Male","cave","11","M_cave.wav","None","741.16461357","421","228246.38122","220563.420109","221329.976377","222096.601316","222863.630387","223613.214858","224379.909636","225146.497463","229012.970801","215213.625185","215980.274962","216746.900777","217514.030369","218263.450909","219030.155914","219796.693772","228251.312334"
"Blocked","Male","cave","11","M_depth.wav","None","738.466892723","421","228246.38122","220563.420109","221329.976377","222096.601316","222863.630387","223613.214858","224379.909636","225146.497463","229012.970801","229779.544894","215980.274962","216746.900777","217514.030369","218263.450909","219030.155914","219796.693772","229018.374132"
"Blocked","Male","cave","11","M_cad.wav","space","143.566847489","421","228246.38122","220563.420109","221329.976377","222096.601316","222863.630387","223613.214858","224379.909636","225146.497463","229012.970801","229779.544894","230546.206067","216746.900777","217514.030369","218263.450909","219030.155914","219796.693772","229784.661271"
"Blocked","Male","cave","11","M_cave.wav","None","733.407205065","421","228246.38122","220563.420109","221329.976377","222096.601316","222863.630387","223613.214858","224379.909636","225146.497463","229012.970801","229779.544894","230546.206067","231312.911364","217514.030369","218263.450909","219030.155914","219796.693772","230551.119063"
"Blocked","Male","cave","11","M_priest.wav","None","731.105142151","421","228246.38122","220563.420109","221329.976377","222096.601316","222863.630387","223613.214858","224379.909636","225146.497463","229012.970801","229779.544894","230546.206067","231312.911364","232079.822673","218263.450909","219030.155914","219796.693772","231317.994137"
"Blocked","Male","cave","11","M_cave.wav","None","728.045952425","421","228246.38122","220563.420109","221329.976377","222096.601316","222863.630387","223613.214858","224379.909636","225146.497463","229012.970801","229779.544894","230546.206067","231312.911364","232079.822673","232829.416203","219030.155914","219796.693772","232085.377663"
"Blocked","Male","cave","11","M_romp.wav","None","742.748706368","421","228246.38122","220563.420109","221329.976377","222096.601316","222863.630387","223613.214858","224379.909636","225146.497463","229012.970801","229779.544894","230546.206067","231312.911364","232079.822673","232829.416203","233596.125007","219796.693772","232834.946648"
"Blocked","Male","cave","11","M_depth.wav","space","382.767782106","421","228246.38122","220563.420109","221329.976377","222096.601316","222863.630387","223613.214858","224379.909636","225146.497463","229012.970801","229779.544894","230546.206067","231312.911364","232079.822673","232829.416203","233596.125007","234362.725399","233601.172422"
"Blocked","Male","cave","11","M_dime.wav","None","737.31469241","421","228246.38122","235129.372254","221329.976377","222096.601316","222863.630387","223613.214858","224379.909636","225146.497463","229012.970801","229779.544894","230546.206067","231312.911364","232079.822673","232829.416203","233596.125007","234362.725399","234367.895544"
"Blocked","Male","cave","11","M_cling.wav","None","735.162243129","421","228246.38122","235129.372254","235895.951023","222096.601316","222863.630387","223613.214858","224379.909636","225146.497463","229012.970801","229779.544894","230546.206067","231312.911364","232079.822673","232829.416203","233596.125007","234362.725399","235134.569574"
"Blocked","Male","cave","11","M_cave.wav","None","732.922421824","421","228246.38122","235129.372254","235895.951023","236662.710964","222863.630387","223613.214858","224379.909636","225146.497463","229012.970801","229779.544894","230546.206067","231312.911364","232079.822673","232829.416203","233596.125007","234362.725399","235901.135778"
"Blocked","Male","cave","11","M_dime.wav","space","604.183980354","421","228246.38122","235129.372254","235895.951023","236662.710964","237429.715781","223613.214858","224379.909636","225146.497463","229012.970801","229779.544894","230546.206067","231312.911364","232079.822673","232829.416203","233596.125007","234362.725399","236667.498016"
"Blocked","Male","cave","11","M_lash.wav","None","726.402247945","421","228246.38122","235129.372254","235895.951023","236662.710964","237429.715781","238179.195347","224379.909636","225146.497463","229012.970801","229779.544894","230546.206067","231312.911364","232079.822673","232829.416203","233596.125007","234362.725399","237435.442886"
"Blocked","Male","cave","11","M_lash.wav","None","742.406523622","421","228246.38122","235129.372254","235895.951023","236662.710964","237429.715781","238179.195347","238945.856521","225146.497463","229012.970801","229779.544894","230546.206067","231312.911364","232079.822673","232829.416203","233596.125007","234362.725399","238184.26234"
"Blocked","Male","cave","11","M_priest.wav","None","739.896112032","421","228246.38122","235129.372254","235895.951023","236662.710964","237429.715781","238179.195347","238945.856521","239712.499284","229012.970801","229779.544894","230546.206067","231312.911364","232079.822673","232829.416203","233596.125007","234362.725399","238951.261021"
"Blocked","Male","tile","13","M_jolt.wav","None","737.98766155","421","242812.31817","235129.372254","235895.951023","236662.710964","237429.715781","238179.195347","238945.856521","239712.499284","229012.970801","229779.544894","230546.206067","231312.911364","232079.822673","232829.416203","233596.125007","234362.725399","239717.601635"
"Blocked","Male","tile","13","M_priest.wav","None","740.93464105","421","242812.31817","235129.372254","235895.951023","236662.710964","237429.715781","238179.195347","238945.856521","239712.499284","243578.95918","229779.544894","230546.206067","231312.911364","232079.822673","232829.416203","233596.125007","234362.725399","242817.4363"
"Blocked","Male","tile","13","M_priest.wav","None","738.829238244","421","242812.31817","235129.372254","235895.951023","236662.710964","237429.715781","238179.195347","238945.856521","239712.499284","243578.95918","244345.58032","230546.206067","231312.911364","232079.822673","232829.416203","233596.125007","234362.725399","243584.031141"
"Blocked","Male","tile","13","M_tile.wav","None","736.855039583","421","242812.31817","235129.372254","235895.951023","236662.710964","237429.715781","238179.195347","238945.856521","239712.499284","243578.95918","244345.58032","245112.206135","231312.911364","232079.822673","232829.416203","233596.125007","234362.725399","244350.739945"
"Blocked","Male","tile","13","M_romp.wav","None","734.95214117","421","242812.31817","235129.372254","235895.951023","236662.710964","237429.715781","238179.195347","238945.856521","239712.499284","243578.95918","244345.58032","245112.206135","245878.784027","232079.822673","232829.416203","233596.125007","234362.725399","245117.340922"
"Blocked","Male","tile","13","M_gnash.wav","space","203.056968898","421","242812.31817","235129.372254","235895.951023","236662.710964","237429.715781","238179.195347","238945.856521","239712.499284","243578.95918","244345.58032","245112.206135","245878.784027","246645.48874","232829.416203","233596.125007","234362.725399","245883.881118"
"Blocked","Male","tile","13","M_tile.wav","None","729.498548864","421","242812.31817","235129.372254","235895.951023","236662.710964","237429.715781","238179.195347","238945.856521","239712.499284","243578.95918","244345.58032","245112.206135","245878.784027","246645.48874","247412.447679","233596.125007","234362.725399","246650.677002"
"Blocked","Male","tile","13","M_park.wav","None","726.681604653","421","242812.31817","235129.372254","235895.951023","236662.710964","237429.715781","238179.195347","238945.856521","239712.499284","243578.95918","244345.58032","245112.206135","245878.784027","246645.48874","247412.447679","248162.054359","234362.725399","247417.993903"
"Blocked","Male","tile","13","M_tile.wav","None","742.121614845","421","242812.31817","235129.372254","235895.951023","236662.710964","237429.715781","238179.195347","238945.856521","239712.499284","243578.95918","244345.58032","245112.206135","245878.784027","246645.48874","247412.447679","248162.054359","248928.724883","248167.096514"
"Blocked","Male","tile","13","M_bluff.wav","None","743.54206773","421","242812.31817","249695.320892","235895.951023","236662.710964","237429.715781","238179.195347","238945.856521","239712.499284","243578.95918","244345.58032","245112.206135","245878.784027","246645.48874","247412.447679","248162.054359","248928.724883","248930.377354"
"Blocked","Male","tile","13","M_bluff.wav","space","306.175536534","421","242812.31817","249695.320892","250461.92596","236662.710964","237429.715781","238179.195347","238945.856521","239712.499284","243578.95918","244345.58032","245112.206135","245878.784027","246645.48874","247412.447679","248162.054359","248928.724883","249700.506816"
"Blocked","Male","tile","13","M_depth.wav","None","734.408330674","421","242812.31817","249695.320892","250461.92596","251228.615186","237429.715781","238179.195347","238945.856521","239712.499284","243578.95918","244345.58032","245112.206135","245878.784027","246645.48874","247412.447679","248162.054359","248928.724883","250467.368156"
"Blocked","Male","tile","13","M_reek.wav","None","733.016806988","421","242812.31817","249695.320892","250461.92596","251228.615186","251995.254443","238179.195347","238945.856521","239712.499284","243578.95918","244345.58032","245112.206135","245878.784027","246645.48874","247412.447679","248162.054359","248928.724883","251233.377399"
"Blocked","Male","tile","13","M_tile.wav","None","731.247158218","421","242812.31817","249695.320892","250461.92596","251228.615186","251995.254443","252761.82386","238945.856521","239712.499284","243578.95918","244345.58032","245112.206135","245878.784027","246645.48874","247412.447679","248162.054359","248928.724883","252000.162471"
"Blocked","Male","tile","13","M_depth.wav","None","729.358578297","421","242812.31817","249695.320892","250461.92596","251228.615186","251995.254443","252761.82386","253528.838028","239712.499284","243578.95918","244345.58032","245112.206135","245878.784027","246645.48874","247412.447679","248162.054359","248928.724883","252766.911308"
"Blocked","Male","tile","13","M_bluff.wav","space","0.021623845445","421","242812.31817","249695.320892","250461.92596","251228.615186","251995.254443","252761.82386","253528.838028","254278.468085","243578.95918","244345.58032","245112.206135","245878.784027","246645.48874","247412.447679","248162.054359","248928.724883","253534.433052"
"Blocked","Male","ball","4","M_jolt.wav","None","740.325082375","421","257394.954865","249695.320892","250461.92596","251228.615186","251995.254443","252761.82386","253528.838028","254278.468085","243578.95918","244345.58032","245112.206135","245878.784027","246645.48874","247412.447679","248162.054359","248928.724883","254283.601411"
"Blocked","Male","ball","4","M_reek.wav","None","741.009155653","421","257394.954865","249695.320892","250461.92596","251228.615186","251995.254443","252761.82386","253528.838028","254278.468085","258161.591492","244345.58032","245112.206135","245878.784027","246645.48874","247412.447679","248162.054359","248928.724883","257399.989714"
"Blocked","Male","ball","4","M_bluff.wav","None","738.927422192","421","257394.954865","249695.320892","250461.92596","251228.615186","251995.254443","252761.82386","253528.838028","254278.468085","258161.591492","258928.267568","245112.206135","245878.784027","246645.48874","247412.447679","248162.054359","248928.724883","258166.660822"
"Blocked","Male","ball","4","M_ball.wav","None","736.61776171","421","257394.954865","249695.320892","250461.92596","251228.615186","251995.254443","252761.82386","253528.838028","254278.468085","258161.591492","258928.267568","259694.912961","245878.784027","246645.48874","247412.447679","248162.054359","248928.724883","258933.531513"
"Blocked","Male","ball","4","M_jolt.wav","space","449.886445589","421","257394.954865","249695.320892","250461.92596","251228.615186","251995.254443","252761.82386","253528.838028","254278.468085","258161.591492","258928.267568","259694.912961","260461.495236","246645.48874","247412.447679","248162.054359","248928.724883","259699.985214"
"Blocked","Male","ball","4","M_greet.wav","None","731.338036812","421","257394.954865","249695.320892","250461.92596","251228.615186","251995.254443","252761.82386","253528.838028","254278.468085","258161.591492","258928.267568","259694.912961","260461.495236","261228.059686","247412.447679","248162.054359","248928.724883","260466.740772"
"Blocked","Male","ball","4","M_ball.wav","None","729.465528668","421","257394.954865","249695.320892","250461.92596","251228.615186","251995.254443","252761.82386","253528.838028","254278.468085","258161.591492","258928.267568","259694.912961","260461.495236","261228.059686","261995.000216","248162.054359","248928.724883","261233.199149"
"Blocked","Male","ball","4","M_dime.wav","space","717.130293605","421","257394.954865","249695.320892","250461.92596","251228.615186","251995.254443","252761.82386","253528.838028","254278.468085","258161.591492","258928.267568","259694.912961","260461.495236","261228.059686","261995.000216","262744.655988","248928.724883","262000.530661"
"Blocked","Male","ball","4","M_cad.wav","None","740.627524","421","257394.954865","249695.320892","250461.92596","251228.615186","251995.254443","252761.82386","253528.838028","254278.468085","258161.591492","258928.267568","259694.912961","260461.495236","261228.059686","261995.000216","262744.655988","263511.378818","262749.902108"
"Blocked","Male","ball","4","M_ball.wav","None","738.638422418","421","257394.954865","264277.894469","250461.92596","251228.615186","251995.254443","252761.82386","253528.838028","254278.468085","258161.591492","258928.267568","259694.912961","260461.495236","261228.059686","261995.000216","262744.655988","263511.378818","263516.503962"
"Blocked","Male","ball","4","M_depth.wav","space","605.936972919","421","257394.954865","264277.894469","265044.56996","251228.615186","251995.254443","252761.82386","253528.838028","254278.468085","258161.591492","258928.267568","259694.912961","260461.495236","261228.059686","261995.000216","262744.655988","263511.378818","264279.53905"
"Blocked","Male","ball","4","M_jolt.wav","None","733.5030513","421","257394.954865","264277.894469","265044.56996","265811.233179","251995.254443","252761.82386","253528.838028","254278.468085","258161.591492","258928.267568","259694.912961","260461.495236","261228.059686","261995.000216","262744.655988","263511.378818","265049.857575"
"Blocked","Male","ball","4","M_gnash.wav","None","731.774020294","421","257394.954865","264277.894469","265044.56996","265811.233179","266577.895521","252761.82386","253528.838028","254278.468085","258161.591492","258928.267568","259694.912961","260461.495236","261228.059686","261995.000216","262744.655988","263511.378818","265816.239391"
"Blocked","Male","ball","4","M_bluff.wav","space","134.156383652","421","257394.954865","264277.894469","265044.56996","265811.233179","266577.895521","267327.817499","253528.838028","254278.468085","258161.591492","258928.267568","259694.912961","260461.495236","261228.059686","261995.000216","262744.655988","263511.378818","266583.184596"
"Blocked","Male","ball","4","M_ball.wav","None","742.786986419","421","257394.954865","264277.894469","265044.56996","265811.233179","266577.895521","267327.817499","268094.422275","254278.468085","258161.591492","258928.267568","259694.912961","260461.495236","261228.059686","261995.000216","262744.655988","263511.378818","267333.057775"
"Blocked","Male","ball","4","M_reek.wav","None","740.803144692","421","257394.954865","264277.894469","265044.56996","265811.233179","266577.895521","267327.817499","268094.422275","268861.146566","258161.591492","258928.267568","259694.912961","260461.495236","261228.059686","261995.000216","262744.655988","263511.378818","268099.60966"
"Blocked","Male","tile","17","M_romp.wav","space","90.7453447366","421","271977.676302","264277.894469","265044.56996","265811.233179","266577.895521","267327.817499","268094.422275","268861.146566","258161.591492","258928.267568","259694.912961","260461.495236","261228.059686","261995.000216","262744.655988","263511.378818","268866.370186"
"Blocked","Male","tile","17","M_tile.wav","None","741.177763206","421","271977.676302","264277.894469","265044.56996","265811.233179","266577.895521","267327.817499","268094.422275","268861.146566","272744.26822","258928.267568","259694.912961","260461.495236","261228.059686","261995.000216","262744.655988","263511.378818","271982.836219"
"Blocked","Male","tile","17","M_knife.wav","None","739.318404698","421","271977.676302","264277.894469","265044.56996","265811.233179","266577.895521","267327.817499","268094.422275","268861.146566","272744.26822","273510.877087","259694.912961","260461.495236","261228.059686","261995.000216","262744.655988","263511.378818","272749.488917"
"Blocked","Male","tile","17","M_tile.wav","space","368.503641572","421","271977.676302","264277.894469","265044.56996","265811.233179","266577.895521","267327.817499","268094.422275","268861.146566","272744.26822","273510.877087","274277.521603","260461.495236","261228.059686","261995.000216","262744.655988","263511.378818","273516.254119"
"Blocked","Male","tile","17","M_romp.wav","space","346.14575407","421","271977.676302","264277.894469","265044.56996","265811.233179","266577.895521","267327.817499","268094.422275","268861.146566","272744.26822","273510.877087","274277.521603","275044.065891","261228.059686","261995.000216","262744.655988","263511.378818","274282.570479"
"Blocked","Male","tile","17","M_greet.wav","None","731.241313935","421","271977.676302","264277.894469","265044.56996","265811.233179","266577.895521","267327.817499","268094.422275","268861.146566","272744.26822","273510.877087","274277.521603","275044.065891","275810.77674","261995.000216","262744.655988","263511.378818","275049.136975"
"Blocked","Male","tile","17","M_jaw.wav","None","729.065779738","421","271977.676302","264277.894469","265044.56996","265811.233179","266577.895521","267327.817499","268094.422275","268861.146566","272744.26822","273510.877087","274277.521603","275044.065891","275810.77674","276577.710549","262744.655988","263511.378818","275815.971431"
"Blocked","Male","tile","17","M_greet.wav","None","726.456891987","421","271977.676302","264277.894469","265044.56996","265811.233179","266577.895521","267327.817499","268094.422275","268861.146566","272744.26822","273510.877087","274277.521603","275044.065891","275810.77674","276577.710549","277327.325995","263511.378818","276583.387393"
"Blocked","Male","tile","17","M_bluff.wav","None","741.769496819","421","271977.676302","264277.894469","265044.56996","265811.233179","266577.895521","267327.817499","268094.422275","268861.146566","272744.26822","273510.877087","274277.521603","275044.065891","275810.77674","276577.710549","277327.325995","278093.997396","277332.7416"
"Blocked","Male","tile","17","M_cling.wav","None","740.105629563","421","271977.676302","278860.644835","265044.56996","265811.233179","266577.895521","267327.817499","268094.422275","268861.146566","272744.26822","273510.877087","274277.521603","275044.065891","275810.77674","276577.710549","277327.325995","278093.997396","278099.141241"
"Blocked","Male","tile","17","M_tile.wav","None","738.271985899","421","271977.676302","278860.644835","279627.318281","265811.233179","266577.895521","267327.817499","268094.422275","268861.146566","272744.26822","273510.877087","274277.521603","275044.065891","275810.77674","276577.710549","277327.325995","278093.997396","278865.727315"
"Blocked","Male","tile","17","M_priest.wav","space","683.930385243","421","271977.676302","278860.644835","279627.318281","280393.863737","266577.895521","267327.817499","268094.422275","268861.146566","272744.26822","273510.877087","274277.521603","275044.065891","275810.77674","276577.710549","277327.325995","278093.997396","279632.300824"
"Blocked","Male","tile","17","M_depth.wav","None","733.142459064","421","271977.676302","278860.644835","279627.318281","280393.863737","281160.457409","267327.817499","268094.422275","268861.146566","272744.26822","273510.877087","274277.521603","275044.065891","275810.77674","276577.710549","277327.325995","278093.997396","280399.12213"
"Blocked","Male","tile","17","M_tile.wav","None","732.038181867","421","271977.676302","278860.644835","279627.318281","280393.863737","281160.457409","281927.13027","268094.422275","268861.146566","272744.26822","273510.877087","274277.521603","275044.065891","275810.77674","276577.710549","277327.325995","278093.997396","281165.441121"
"Blocked","Male","tile","17","M_depth.wav","None","730.326975923","421","271977.676302","278860.644835","279627.318281","280393.863737","281160.457409","281927.13027","282694.082781","268861.146566","272744.26822","273510.877087","274277.521603","275044.065891","275810.77674","276577.710549","277327.325995","278093.997396","281931.988622"
"Blocked","Male","tile","17","M_dime.wav","None","727.353697152","421","271977.676302","278860.644835","279627.318281","280393.863737","281160.457409","281927.13027","282694.082781","283443.687707","272744.26822","273510.877087","274277.521603","275044.065891","275810.77674","276577.710549","277327.325995","278093.997396","282699.891998"
"Blocked","Male","done","19","M_dime.wav","None","743.424305436","421","286543.610037","278860.644835","279627.318281","280393.863737","281160.457409","281927.13027","282694.082781","283443.687707","272744.26822","273510.877087","274277.521603","275044.065891","275810.77674","276577.710549","277327.325995","278093.997396","283448.769311"
"Blocked","Male","done","19","M_gnash.wav","None","740.935225478","421","286543.610037","278860.644835","279627.318281","280393.863737","281160.457409","281927.13027","282694.082781","283443.687707","287310.16572","273510.877087","274277.521603","275044.065891","275810.77674","276577.710549","277327.325995","278093.997396","286548.678783"
"Blocked","Male","done","19","M_gnash.wav","None","738.853492017","421","286543.610037","278860.644835","279627.318281","280393.863737","281160.457409","281927.13027","282694.082781","283443.687707","287310.16572","288076.831569","274277.521603","275044.065891","275810.77674","276577.710549","277327.325995","278093.997396","287315.44866"
"Blocked","Male","done","19","M_gnash.wav","None","737.380440589","421","286543.610037","278860.644835","279627.318281","280393.863737","281160.457409","281927.13027","282694.082781","283443.687707","287310.16572","288076.831569","288843.47404","275044.065891","275810.77674","276577.710549","277327.325995","278093.997396","288081.857068"
"Blocked","Male","done","19","M_done.wav","None","735.404488643","421","286543.610037","278860.644835","279627.318281","280393.863737","281160.457409","281927.13027","282694.082781","283443.687707","287310.16572","288076.831569","288843.47404","289610.097225","275810.77674","276577.710549","277327.325995","278093.997396","288848.673406"
"Blocked","Male","done","19","M_bluff.wav","space","516.197429217","421","286543.610037","278860.644835","279627.318281","280393.863737","281160.457409","281927.13027","282694.082781","283443.687707","287310.16572","288076.831569","288843.47404","289610.097225","290376.674533","276577.710549","277327.325995","278093.997396","289615.269123"
"Blocked","Male","done","19","M_done.wav","None","730.15340073","421","286543.610037","278860.644835","279627.318281","280393.863737","281160.457409","281927.13027","282694.082781","283443.687707","287310.16572","288076.831569","288843.47404","289610.097225","290376.674533","291143.627628","277327.325995","278093.997396","290381.828898"
"Blocked","Male","done","19","M_reek.wav","space","685.87097928","421","286543.610037","278860.644835","279627.318281","280393.863737","281160.457409","281927.13027","282694.082781","283443.687707","287310.16572","288076.831569","288843.47404","289610.097225","290376.674533","291143.627628","291893.331615","278093.997396","291149.466359"
"Blocked","Male","done","19","M_park.wav","None","741.369455675","421","286543.610037","278860.644835","279627.318281","280393.863737","281160.457409","281927.13027","282694.082781","283443.687707","287310.16572","288076.831569","288843.47404","289610.097225","290376.674533","291143.627628","291893.331615","292659.951294","291898.285521"
"Blocked","Male","done","19","M_done.wav","None","739.333599833","421","286543.610037","293426.57331","279627.318281","280393.863737","281160.457409","281927.13027","282694.082781","283443.687707","287310.16572","288076.831569","288843.47404","289610.097225","290376.674533","291143.627628","291893.331615","292659.951294","292665.082282"
"Blocked","Male","done","19","M_reek.wav","None","737.739571754","421","286543.610037","293426.57331","294193.172242","280393.863737","281160.457409","281927.13027","282694.082781","283443.687707","287310.16572","288076.831569","288843.47404","289610.097225","290376.674533","291143.627628","291893.331615","292659.951294","293431.52634"
"Blocked","Male","done","19","M_cling.wav","space","692.762265104","421","286543.610037","293426.57331","294193.172242","294959.829908","281160.457409","281927.13027","282694.082781","283443.687707","287310.16572","288076.831569","288843.47404","289610.097225","290376.674533","291143.627628","291893.331615","292659.951294","294198.305275"
"Blocked","Male","done","19","M_done.wav","None","732.189841","421","286543.610037","293426.57331","294193.172242","294959.829908","295726.432638","281927.13027","282694.082781","283443.687707","287310.16572","288076.831569","288843.47404","289610.097225","290376.674533","291143.627628","291893.331615","292659.951294","294965.190284"
"Blocked","Male","done","19","M_park.wav","None","730.871955275","421","286543.610037","293426.57331","294193.172242","294959.829908","295726.432638","296493.064298","282694.082781","283443.687707","287310.16572","288076.831569","288843.47404","289610.097225","290376.674533","291143.627628","291893.331615","292659.951294","295731.522424"
"Blocked","Male","done","19","M_park.wav","None","729.622447655","421","286543.610037","293426.57331","294193.172242","294959.829908","295726.432638","296493.064298","297260.211423","283443.687707","287310.16572","288076.831569","288843.47404","289610.097225","290376.674533","291143.627628","291893.331615","292659.951294","296498.122816"
"Blocked","Male","done","19","M_knife.wav","None","726.833556001","421","286543.610037","293426.57331","294193.172242","294959.829908","295726.432638","296493.064298","297260.211423","298009.720211","287310.16572","288076.831569","288843.47404","289610.097225","290376.674533","291143.627628","291893.331615","292659.951294","297265.81083"
"Blocked","Male","ball","3","M_knife.wav","space","188.11752151","421","301109.650138","293426.57331","294193.172242","294959.829908","295726.432638","296493.064298","297260.211423","298009.720211","287310.16572","288076.831569","288843.47404","289610.097225","290376.674533","291143.627628","291893.331615","292659.951294","298014.685513"
"Blocked","Male","ball","3","M_depth.wav","None","740.801391407","421","301109.650138","293426.57331","294193.172242","294959.829908","295726.432638","296493.064298","297260.211423","298009.720211","301876.141827","288076.831569","288843.47404","289610.097225","290376.674533","291143.627628","291893.331615","292659.951294","301114.692877"
"Blocked","Male","ball","3","M_ball.wav","None","738.921577909","421","301109.650138","293426.57331","294193.172242","294959.829908","295726.432638","296493.064298","297260.211423","298009.720211","301876.141827","302642.813227","288843.47404","289610.097225","290376.674533","291143.627628","291893.331615","292659.951294","301881.342654"
"Blocked","Male","ball","3","M_lash.wav","None","737.575347413","421","301109.650138","293426.57331","294193.172242","294959.829908","295726.432638","296493.064298","297260.211423","298009.720211","301876.141827","302642.813227","303409.439627","289610.097225","290376.674533","291143.627628","291893.331615","292659.951294","302647.86298"
"Blocked","Male","ball","3","M_ball.wav","None","735.797224434","421","301109.650138","293426.57331","294193.172242","294959.829908","295726.432638","296493.064298","297260.211423","298009.720211","301876.141827","302642.813227","303409.439627","304176.046156","290376.674533","291143.627628","291893.331615","292659.951294","303414.527659"
"Blocked","Male","ball","3","M_jaw.wav","None","734.27361996","421","301109.650138","293426.57331","294193.172242","294959.829908","295726.432638","296493.064298","297260.211423","298009.720211","301876.141827","302642.813227","303409.439627","304176.046156","304942.643918","291143.627628","291893.331615","292659.951294","304181.241431"
"Blocked","Male","ball","3","M_priest.wav","None","732.238932974","421","301109.650138","293426.57331","294193.172242","294959.829908","295726.432638","296493.064298","297260.211423","298009.720211","301876.141827","302642.813227","303409.439627","304176.046156","304942.643918","305709.343956","291893.331615","292659.951294","304948.12118"
