"Condition","Talker","Target","Trial","current_stimulus","response_response","response_time_response","subject_nr","time_Audio1","time_Audio10","time_Audio11","time_Audio12","time_Audio13","time_Audio14","time_Audio15","time_Audio16","time_Audio2","time_Audio3","time_Audio4","time_Audio5","time_Audio6","time_Audio7","time_Audio8","time_Audio9","time_response"
"Blocked","Female","done","22","F_bluff.wav","NA","NA","410","99353.1829064","NA","NA","NA","NA","NA","NA","NA","NA","NA","NA","NA","NA","NA","NA","NA","NA"
"Blocked","Female","done","22","F_reek.wav","None","739.678260992","410","99353.1829064","NA","NA","NA","NA","NA","NA","NA","100119.881505","NA","NA","NA","NA","NA","NA","NA","99360.0670855"
"Blocked","Female","done","22","F_gnash.wav","None","737.319632579","410","99353.1829064","NA","NA","NA","NA","NA","NA","NA","100119.881505","100886.60845","NA","NA","NA","NA","NA","NA","100125.359157"
"Blocked","Female","done","22","F_done.wav","None","733.685983008","410","99353.1829064","NA","NA","NA","NA","NA","NA","NA","100119.881505","100886.60845","101653.19103","NA","NA","NA","NA","NA","100891.944368"
"Blocked","Female","done","22","F_knife.wav","space","473.721062894","410","99353.1829064","NA","NA","NA","NA","NA","NA","NA","100119.881505","100886.60845","101653.19103","102403.239541","NA","NA","NA","NA","101658.441032"
"Blocked","Female","done","22","F_reek.wav","None","742.614930167","410","99353.1829064","NA","NA","NA","NA","NA","NA","NA","100119.881505","100886.60845","101653.19103","102403.239541","103169.945738","NA","NA","NA","102408.733267"
"Blocked","Female","done","22","F_done.wav","None","739.357386999","410","99353.1829064","NA","NA","NA","NA","NA","NA","NA","100119.881505","100886.60845","101653.19103","102403.239541","103169.945738","103936.631478","NA","NA","103175.082352"
"Blocked","Female","done","22","F_greet.wav","space","686.293361824","410","99353.1829064","NA","NA","NA","NA","NA","NA","NA","100119.881505","100886.60845","101653.19103","102403.239541","103169.945738","103936.631478","104703.304359","NA","103941.856347"
"Blocked","Female","done","22","F_done.wav","None","731.32647789","410","99353.1829064","NA","NA","NA","NA","NA","NA","NA","100119.881505","100886.60845","101653.19103","102403.239541","103169.945738","103936.631478","104703.304359","105470.264508","104708.716843"
"Blocked","Female","done","22","F_dime.wav","space","536.178688824","410","99353.1829064","106219.97578","NA","NA","NA","NA","NA","NA","100119.881505","100886.60845","101653.19103","102403.239541","103169.945738","103936.631478","104703.304359","105470.264508","105475.992021"
"Blocked","Female","done","22","F_depth.wav","None","740.667768587","410","99353.1829064","106219.97578","106986.68519","NA","NA","NA","NA","NA","100119.881505","100886.60845","101653.19103","102403.239541","103169.945738","103936.631478","104703.304359","105470.264508","106224.997253"
"Blocked","Female","done","22","F_knife.wav","space","340.26495191","410","99353.1829064","106219.97578","106986.68519","107753.368592","NA","NA","NA","NA","100119.881505","100886.60845","101653.19103","102403.239541","103169.945738","103936.631478","104703.304359","105470.264508","106991.850151"
"Blocked","Female","done","22","F_done.wav","None","732.862757108","410","99353.1829064","106219.97578","106986.68519","107753.368592","108520.124761","NA","NA","NA","100119.881505","100886.60845","101653.19103","102403.239541","103169.945738","103936.631478","104703.304359","105470.264508","107758.487965"
"Blocked","Female","done","22","F_depth.wav","space","670.693859325","410","99353.1829064","106219.97578","106986.68519","107753.368592","108520.124761","109270.164505","NA","NA","100119.881505","100886.60845","101653.19103","102403.239541","103169.945738","103936.631478","104703.304359","105470.264508","108525.413922"
"Blocked","Female","done","22","F_lash.wav","None","741.723905755","410","99353.1829064","106219.97578","106986.68519","107753.368592","108520.124761","109270.164505","110036.730136","NA","100119.881505","100886.60845","101653.19103","102403.239541","103169.945738","103936.631478","104703.304359","105470.264508","109275.316023"
"Blocked","Female","done","22","F_dime.wav","None","738.497047258","410","99353.1829064","106219.97578","106986.68519","107753.368592","108520.124761","109270.164505","110036.730136","110803.521957","100119.881505","100886.60845","101653.19103","102403.239541","103169.945738","103936.631478","104703.304359","105470.264508","110041.710404"
"Blocked","Female","cave","9","F_reek.wav","space","435.537642201","410","113936.855914","106219.97578","106986.68519","107753.368592","108520.124761","109270.164505","110036.730136","110803.521957","100119.881505","100886.60845","101653.19103","102403.239541","103169.945738","103936.631478","104703.304359","105470.264508","110808.591065"
"Blocked","Female","cave","9","F_cave.wav","None","740.608737124","410","113936.855914","106219.97578","106986.68519","107753.368592","108520.124761","109270.164505","110036.730136","110803.521957","114703.557142","100886.60845","101653.19103","102403.239541","103169.945738","103936.631478","104703.304359","105470.264508","113942.046007"
"Blocked","Female","cave","9","F_dime.wav","space","551.278177295","410","113936.855914","106219.97578","106986.68519","107753.368592","108520.124761","109270.164505","110036.730136","110803.521957","114703.557142","115470.204307","101653.19103","102403.239541","103169.945738","103936.631478","104703.304359","105470.264508","114708.798961"
"Blocked","Female","cave","9","F_romp.wav","None","732.998646368","410","113936.855914","106219.97578","106986.68519","107753.368592","108520.124761","109270.164505","110036.730136","110803.521957","114703.557142","115470.204307","116236.885664","102403.239541","103169.945738","103936.631478","104703.304359","105470.264508","115475.349104"
"Blocked","Female","cave","9","F_cave.wav","None","729.111921316","410","113936.855914","106219.97578","106986.68519","107753.368592","108520.124761","109270.164505","110036.730136","110803.521957","114703.557142","115470.204307","116236.885664","116986.931252","103169.945738","103936.631478","104703.304359","105470.264508","116242.181838"
"Blocked","Female","cave","9","F_cling.wav","space","684.149526112","410","113936.855914","106219.97578","106986.68519","107753.368592","108520.124761","109270.164505","110036.730136","110803.521957","114703.557142","115470.204307","116236.885664","116986.931252","117753.631604","103936.631478","104703.304359","105470.264508","116991.885219"
"Blocked","Female","cave","9","F_greet.wav","None","738.331057797","410","113936.855914","106219.97578","106986.68519","107753.368592","108520.124761","109270.164505","110036.730136","110803.521957","114703.557142","115470.204307","116236.885664","116986.931252","117753.631604","118520.250422","104703.304359","105470.264508","117758.819651"
"Blocked","Female","cave","9","F_knife.wav","None","735.103907065","410","113936.855914","106219.97578","106986.68519","107753.368592","108520.124761","109270.164505","110036.730136","110803.521957","114703.557142","115470.204307","116236.885664","116986.931252","117753.631604","118520.250422","119287.0288","105470.264508","118525.422104"
"Blocked","Female","cave","9","F_cave.wav","None","731.536302596","410","113936.855914","106219.97578","106986.68519","107753.368592","108520.124761","109270.164505","110036.730136","110803.521957","114703.557142","115470.204307","116236.885664","116986.931252","117753.631604","118520.250422","119287.0288","120054.188545","119292.065762"
"Blocked","Female","cave","9","F_dime.wav","space","528.004584582","410","113936.855914","120803.663399","106986.68519","107753.368592","108520.124761","109270.164505","110036.730136","110803.521957","114703.557142","115470.204307","116236.885664","116986.931252","117753.631604","118520.250422","119287.0288","120054.188545","120060.021263"
"Blocked","Female","cave","9","F_romp.wav","None","740.841940627","410","113936.855914","120803.663399","121570.351477","107753.368592","108520.124761","109270.164505","110036.730136","110803.521957","114703.557142","115470.204307","116236.885664","116986.931252","117753.631604","118520.250422","119287.0288","120054.188545","120808.673475"
"Blocked","Female","cave","9","F_cave.wav","None","737.457275248","410","113936.855914","120803.663399","121570.351477","122337.08339","108520.124761","109270.164505","110036.730136","110803.521957","114703.557142","115470.204307","116236.885664","116986.931252","117753.631604","118520.250422","119287.0288","120054.188545","121575.431397"
"Blocked","Female","cave","9","F_romp.wav","space","581.896803651","410","113936.855914","120803.663399","121570.351477","122337.08339","123103.796308","109270.164505","110036.730136","110803.521957","114703.557142","115470.204307","116236.885664","116986.931252","117753.631604","118520.250422","119287.0288","120054.188545","122342.141685"
"Blocked","Female","cave","9","F_priest.wav","None","729.805979361","410","113936.855914","120803.663399","121570.351477","122337.08339","123103.796308","123853.767961","110036.730136","110803.521957","114703.557142","115470.204307","116236.885664","116986.931252","117753.631604","118520.250422","119287.0288","120054.188545","123109.100664"
"Blocked","Female","cave","9","F_park.wav","None","743.404841281","410","113936.855914","120803.663399","121570.351477","122337.08339","123103.796308","123853.767961","124620.417756","110803.521957","114703.557142","115470.204307","116236.885664","116986.931252","117753.631604","118520.250422","119287.0288","120054.188545","123858.836192"
"Blocked","Female","cave","9","F_dime.wav","None","739.682644516","410","113936.855914","120803.663399","121570.351477","122337.08339","123103.796308","123853.767961","124620.417756","125387.144993","114703.557142","115470.204307","116236.885664","116986.931252","117753.631604","118520.250422","119287.0288","120054.188545","124625.590607"
"Blocked","Female","cave","8","F_greet.wav","None","736.685190467","410","128470.503556","120803.663399","121570.351477","122337.08339","123103.796308","123853.767961","124620.417756","125387.144993","114703.557142","115470.204307","116236.885664","116986.931252","117753.631604","118520.250422","119287.0288","120054.188545","125392.14864"
"Blocked","Female","cave","8","F_jaw.wav","None","740.837557103","410","128470.503556","120803.663399","121570.351477","122337.08339","123103.796308","123853.767961","124620.417756","125387.144993","129237.215305","115470.204307","116236.885664","116986.931252","117753.631604","118520.250422","119287.0288","120054.188545","128475.63228"
"Blocked","Female","cave","8","F_cave.wav","None","737.070940623","410","128470.503556","120803.663399","121570.351477","122337.08339","123103.796308","123853.767961","124620.417756","125387.144993","129237.215305","130003.967382","116236.885664","116986.931252","117753.631604","118520.250422","119287.0288","120054.188545","129242.490146"
"Blocked","Female","cave","8","F_knife.wav","space","594.960291113","410","128470.503556","120803.663399","121570.351477","122337.08339","123103.796308","123853.767961","124620.417756","125387.144993","129237.215305","130003.967382","130770.608702","116986.931252","117753.631604","118520.250422","119287.0288","120054.188545","130009.044672"
"Blocked","Female","cave","8","F_cave.wav","None","729.645542365","410","128470.503556","120803.663399","121570.351477","122337.08339","123103.796308","123853.767961","124620.417756","125387.144993","129237.215305","130003.967382","130770.608702","131520.563113","117753.631604","118520.250422","119287.0288","120054.188545","130775.873023"
"Blocked","Female","cave","8","F_bluff.wav","space","694.21526729","410","128470.503556","120803.663399","121570.351477","122337.08339","123103.796308","123853.767961","124620.417756","125387.144993","129237.215305","130003.967382","130770.608702","131520.563113","132287.287721","118520.250422","119287.0288","120054.188545","131525.755252"
"Blocked","Female","cave","8","F_cling.wav","None","739.270593214","410","128470.503556","120803.663399","121570.351477","122337.08339","123103.796308","123853.767961","124620.417756","125387.144993","129237.215305","130003.967382","130770.608702","131520.563113","132287.287721","133054.033661","119287.0288","120054.188545","132292.320591"
"Blocked","Female","cave","8","F_knife.wav","None","735.369840884","410","128470.503556","120803.663399","121570.351477","122337.08339","123103.796308","123853.767961","124620.417756","125387.144993","129237.215305","130003.967382","130770.608702","131520.563113","132287.287721","133054.033661","133820.679072","120054.188545","133059.172905"
"Blocked","Female","cave","8","F_cave.wav","None","731.911824528","410","128470.503556","120803.663399","121570.351477","122337.08339","123103.796308","123853.767961","124620.417756","125387.144993","129237.215305","130003.967382","130770.608702","131520.563113","132287.287721","133054.033661","133820.679072","134587.637175","133825.734737"
"Blocked","Female","cave","8","F_bluff.wav","space","530.654279021","410","128470.503556","135337.360136","121570.351477","122337.08339","123103.796308","123853.767961","124620.417756","125387.144993","129237.215305","130003.967382","130770.608702","131520.563113","132287.287721","133054.033661","133820.679072","134587.637175","134593.258607"
"Blocked","Female","cave","8","F_greet.wav","None","740.938085931","410","128470.503556","135337.360136","136104.071301","122337.08339","123103.796308","123853.767961","124620.417756","125387.144993","129237.215305","130003.967382","130770.608702","131520.563113","132287.287721","133054.033661","133820.679072","134587.637175","135342.528312"
"Blocked","Female","cave","8","F_bluff.wav","None","737.34973278","410","128470.503556","135337.360136","136104.071301","136870.739214","123103.796308","123853.767961","124620.417756","125387.144993","129237.215305","130003.967382","130770.608702","131520.563113","132287.287721","133054.033661","133820.679072","134587.637175","136109.136317"
"Blocked","Female","cave","8","F_cad.wav","None","733.992829723","410","128470.503556","135337.360136","136104.071301","136870.739214","137637.403913","123853.767961","124620.417756","125387.144993","129237.215305","130003.967382","130770.608702","131520.563113","132287.287721","133054.033661","133820.679072","134587.637175","136875.80803"
"Blocked","Female","cave","8","F_cling.wav","None","730.223290893","410","128470.503556","135337.360136","136104.071301","136870.739214","137637.403913","138387.430799","124620.417756","125387.144993","129237.215305","130003.967382","130770.608702","131520.563113","132287.287721","133054.033661","133820.679072","134587.637175","137642.652745"
"Blocked","Female","cave","8","F_cave.wav","None","743.554757819","410","128470.503556","135337.360136","136104.071301","136870.739214","137637.403913","138387.430799","139154.117123","125387.144993","129237.215305","130003.967382","130770.608702","131520.563113","132287.287721","133054.033661","133820.679072","134587.637175","138392.462208"
"Blocked","Female","cave","8","F_reek.wav","space","684.346492479","410","128470.503556","135337.360136","136104.071301","136870.739214","137637.403913","138387.430799","139154.117123","139920.846406","129237.215305","130003.967382","130770.608702","131520.563113","132287.287721","133054.033661","133820.679072","134587.637175","139159.505351"
"Blocked","Female","ball","5","F_dime.wav","None","736.134619791","410","143020.864408","135337.360136","136104.071301","136870.739214","137637.403913","138387.430799","139154.117123","139920.846406","129237.215305","130003.967382","130770.608702","131520.563113","132287.287721","133054.033661","133820.679072","134587.637175","139925.776118"
"Blocked","Female","ball","5","F_reek.wav","None","741.322959382","410","143020.864408","135337.360136","136104.071301","136870.739214","137637.403913","138387.430799","139154.117123","139920.846406","143787.624667","130003.967382","130770.608702","131520.563113","132287.287721","133054.033661","133820.679072","134587.637175","143025.916274"
"Blocked","Female","ball","5","F_ball.wav","None","737.575630409","410","143020.864408","135337.360136","136104.071301","136870.739214","137637.403913","138387.430799","139154.117123","139920.846406","143787.624667","144554.233842","130770.608702","131520.563113","132287.287721","133054.033661","133820.679072","134587.637175","143792.78203"
"Blocked","Female","ball","5","F_depth.wav","None","733.880319261","410","143020.864408","135337.360136","136104.071301","136870.739214","137637.403913","138387.430799","139154.117123","139920.846406","143787.624667","144554.233842","145320.924257","131520.563113","132287.287721","133054.033661","133820.679072","134587.637175","144559.722014"
"Blocked","Female","ball","5","F_ball.wav","None","730.574849558","410","143020.864408","135337.360136","136104.071301","136870.739214","137637.403913","138387.430799","139154.117123","139920.846406","143787.624667","144554.233842","145320.924257","146070.948221","132287.287721","133054.033661","133820.679072","134587.637175","145326.103245"
"Blocked","Female","ball","5","F_gnash.wav","None","743.811047885","410","143020.864408","135337.360136","136104.071301","136870.739214","137637.403913","138387.430799","139154.117123","139920.846406","143787.624667","144554.233842","145320.924257","146070.948221","146837.643896","133054.033661","133820.679072","134587.637175","146075.994534"
"Blocked","Female","ball","5","F_knife.wav","None","740.049107164","410","143020.864408","135337.360136","136104.071301","136870.739214","137637.403913","138387.430799","139154.117123","139920.846406","143787.624667","144554.233842","145320.924257","146070.948221","146837.643896","147604.323792","133820.679072","134587.637175","146842.978061"
"Blocked","Female","ball","5","F_gnash.wav","space","82.3135307128","410","143020.864408","135337.360136","136104.071301","136870.739214","137637.403913","138387.430799","139154.117123","139920.846406","143787.624667","144554.233842","145320.924257","146070.948221","146837.643896","147604.323792","148370.97271","134587.637175","147609.506287"
"Blocked","Female","ball","5","F_jolt.wav","None","732.830319027","410","143020.864408","135337.360136","136104.071301","136870.739214","137637.403913","138387.430799","139154.117123","139920.846406","143787.624667","144554.233842","145320.924257","146070.948221","146837.643896","147604.323792","148370.97271","149137.764823","148376.097342"
"Blocked","Female","ball","5","F_priest.wav","None","729.514913335","410","143020.864408","149887.831745","136104.071301","136870.739214","137637.403913","138387.430799","139154.117123","139920.846406","143787.624667","144554.233842","145320.924257","146070.948221","146837.643896","147604.323792","148370.97271","149137.764823","149142.875428"
"Blocked","Female","ball","5","F_priest.wav","None","742.94340227","410","143020.864408","149887.831745","150654.378381","136870.739214","137637.403913","138387.430799","139154.117123","139920.846406","143787.624667","144554.233842","145320.924257","146070.948221","146837.643896","147604.323792","148370.97271","149137.764823","149892.819027"
"Blocked","Female","ball","5","F_ball.wav","None","739.470774166","410","143020.864408","149887.831745","150654.378381","151421.069673","137637.403913","138387.430799","139154.117123","139920.846406","143787.624667","144554.233842","145320.924257","146070.948221","146837.643896","147604.323792","148370.97271","149137.764823","150659.601497"
"Blocked","Female","ball","5","F_knife.wav","space","601.545513843","410","143020.864408","149887.831745","150654.378381","151421.069673","152187.7484","138387.430799","139154.117123","139920.846406","143787.624667","144554.233842","145320.924257","146070.948221","146837.643896","147604.323792","148370.97271","149137.764823","151426.205995"
"Blocked","Female","ball","5","F_ball.wav","None","732.63510607","410","143020.864408","149887.831745","150654.378381","151421.069673","152187.7484","152954.446998","139154.117123","139920.846406","143787.624667","144554.233842","145320.924257","146070.948221","146837.643896","147604.323792","148370.97271","149137.764823","152192.718148"
"Blocked","Female","ball","5","F_jaw.wav","space","658.142659759","410","143020.864408","149887.831745","150654.378381","151421.069673","152187.7484","152954.446998","153704.524732","139920.846406","143787.624667","144554.233842","145320.924257","146070.948221","146837.643896","147604.323792","148370.97271","149137.764823","152961.626627"
"Blocked","Female","ball","5","F_jaw.wav","None","741.440730073","410","143020.864408","149887.831745","150654.378381","151421.069673","152187.7484","152954.446998","153704.524732","154471.176281","143787.624667","144554.233842","145320.924257","146070.948221","146837.643896","147604.323792","148370.97271","149137.764823","153709.61605"
"Blocked","Female","tile","13","F_gnash.wav","None","737.767336547","410","157587.880899","149887.831745","150654.378381","151421.069673","152187.7484","152954.446998","153704.524732","154471.176281","143787.624667","144554.233842","145320.924257","146070.948221","146837.643896","147604.323792","148370.97271","149137.764823","154476.584673"
"Blocked","Female","tile","13","F_cad.wav","None","741.450958297","410","157587.880899","149887.831745","150654.378381","151421.069673","152187.7484","152954.446998","153704.524732","154471.176281","158354.629762","144554.233842","145320.924257","146070.948221","146837.643896","147604.323792","148370.97271","149137.764823","157593.008746"
"Blocked","Female","tile","13","F_tile.wav","None","738.116849567","410","157587.880899","149887.831745","150654.378381","151421.069673","152187.7484","152954.446998","153704.524732","154471.176281","158354.629762","159121.292707","145320.924257","146070.948221","146837.643896","147604.323792","148370.97271","149137.764823","158359.595126"
"Blocked","Female","tile","13","F_cad.wav","None","734.438780281","410","157587.880899","149887.831745","150654.378381","151421.069673","152187.7484","152954.446998","153704.524732","154471.176281","158354.629762","159121.292707","159887.940164","146070.948221","146837.643896","147604.323792","148370.97271","149137.764823","159126.535403"
"Blocked","Female","tile","13","F_reek.wav","space","0.0210409179854","410","157587.880899","149887.831745","150654.378381","151421.069673","152187.7484","152954.446998","153704.524732","154471.176281","158354.629762","159121.292707","159887.940164","160655.089389","146837.643896","147604.323792","148370.97271","149137.764823","159892.983555"
"Blocked","Female","tile","13","F_dime.wav","None","726.598700607","410","157587.880899","149887.831745","150654.378381","151421.069673","152187.7484","152954.446998","153704.524732","154471.176281","158354.629762","159121.292707","159887.940164","160655.089389","161404.654251","147604.323792","148370.97271","149137.764823","160660.632794"
"Blocked","Female","tile","13","F_depth.wav","None","740.843694037","410","157587.880899","149887.831745","150654.378381","151421.069673","152187.7484","152954.446998","153704.524732","154471.176281","158354.629762","159121.292707","159887.940164","160655.089389","161404.654251","162171.350219","148370.97271","149137.764823","161409.778591"
"Blocked","Female","tile","13","F_romp.wav","None","737.502571668","410","157587.880899","149887.831745","150654.378381","151421.069673","152187.7484","152954.446998","153704.524732","154471.176281","158354.629762","159121.292707","159887.940164","160655.089389","161404.654251","162171.350219","162938.023977","149137.764823","162176.524531"
"Blocked","Female","tile","13","F_tile.wav","None","734.127550042","410","157587.880899","149887.831745","150654.378381","151421.069673","152187.7484","152954.446998","153704.524732","154471.176281","158354.629762","159121.292707","159887.940164","160655.089389","161404.654251","162171.350219","162938.023977","163704.750046","162943.304079"
"Blocked","Female","tile","13","F_knife.wav","space","509.850656243","410","157587.880899","164471.81686","150654.378381","151421.069673","152187.7484","152954.446998","153704.524732","154471.176281","158354.629762","159121.292707","159887.940164","160655.089389","161404.654251","162171.350219","162938.023977","163704.750046","163709.833765"
"Blocked","Female","tile","13","F_tile.wav","None","726.424236332","410","157587.880899","164471.81686","165221.421758","151421.069673","152187.7484","152954.446998","153704.524732","154471.176281","158354.629762","159121.292707","159887.940164","160655.089389","161404.654251","162171.350219","162938.023977","163704.750046","164477.32432"
"Blocked","Female","tile","13","F_romp.wav","None","740.451222478","410","157587.880899","164471.81686","165221.421758","165988.06074","152187.7484","152954.446998","153704.524732","154471.176281","158354.629762","159121.292707","159887.940164","160655.089389","161404.654251","162171.350219","162938.023977","163704.750046","165226.601331"
"Blocked","Female","tile","13","F_tile.wav","None","737.925727899","410","157587.880899","164471.81686","165221.421758","165988.06074","166754.783594","152954.446998","153704.524732","154471.176281","158354.629762","159121.292707","159887.940164","160655.089389","161404.654251","162171.350219","162938.023977","163704.750046","165992.99805"
"Blocked","Female","tile","13","F_dime.wav","None","734.738321122","410","157587.880899","164471.81686","165221.421758","165988.06074","166754.783594","167521.478978","153704.524732","154471.176281","158354.629762","159121.292707","159887.940164","160655.089389","161404.654251","162171.350219","162938.023977","163704.750046","166759.674146"
"Blocked","Female","tile","13","F_park.wav","None","731.228579177","410","157587.880899","164471.81686","165221.421758","165988.06074","166754.783594","167521.478978","168288.49056","154471.176281","158354.629762","159121.292707","159887.940164","160655.089389","161404.654251","162171.350219","162938.023977","163704.750046","167526.59835"
"Blocked","Female","tile","13","F_bluff.wav","None","727.04669681","410","157587.880899","164471.81686","165221.421758","165988.06074","166754.783594","167521.478978","168288.49056","169038.208261","158354.629762","159121.292707","159887.940164","160655.089389","161404.654251","162171.350219","162938.023977","163704.750046","168294.157288"
"Blocked","Female","tile","14","F_dime.wav","None","741.187070123","410","172138.256947","164471.81686","165221.421758","165988.06074","166754.783594","167521.478978","168288.49056","169038.208261","158354.629762","159121.292707","159887.940164","160655.089389","161404.654251","162171.350219","162938.023977","163704.750046","169043.41355"
"Blocked","Female","tile","14","F_romp.wav","None","740.694654204","410","172138.256947","164471.81686","165221.421758","165988.06074","166754.783594","167521.478978","168288.49056","169038.208261","172904.914925","159121.292707","159887.940164","160655.089389","161404.654251","162171.350219","162938.023977","163704.750046","172143.427168"
"Blocked","Female","tile","14","F_tile.wav","None","737.537055394","410","172138.256947","164471.81686","165221.421758","165988.06074","166754.783594","167521.478978","168288.49056","169038.208261","172904.914925","173671.571733","159887.940164","160655.089389","161404.654251","162171.350219","162938.023977","163704.750046","172909.978772"
"Blocked","Female","tile","14","F_jaw.wav","space","687.013428781","410","172138.256947","164471.81686","165221.421758","165988.06074","166754.783594","167521.478978","168288.49056","169038.208261","172904.914925","173671.571733","174438.361509","160655.089389","161404.654251","162171.350219","162938.023977","163704.750046","173676.58444"
"Blocked","Female","tile","14","F_greet.wav","None","730.269756253","410","172138.256947","164471.81686","165221.421758","165988.06074","166754.783594","167521.478978","168288.49056","169038.208261","172904.914925","173671.571733","174438.361509","175205.264379","161404.654251","162171.350219","162938.023977","163704.750046","174443.70561"
"Blocked","Female","tile","14","F_gnash.wav","None","726.734882101","410","172138.256947","164471.81686","165221.421758","165988.06074","166754.783594","167521.478978","168288.49056","169038.208261","172904.914925","173671.571733","174438.361509","175205.264379","175955.02124","162171.350219","162938.023977","163704.750046","175210.69352"
"Blocked","Female","tile","14","F_cad.wav","None","740.644097555","410","172138.256947","164471.81686","165221.421758","165988.06074","166754.783594","167521.478978","168288.49056","169038.208261","172904.914925","173671.571733","174438.361509","175205.264379","175955.02124","176721.708733","162938.023977","163704.750046","175960.166036"
"Blocked","Female","tile","14","F_tile.wav","None","737.18082097","410","172138.256947","164471.81686","165221.421758","165988.06074","166754.783594","167521.478978","168288.49056","169038.208261","172904.914925","173671.571733","174438.361509","175205.264379","175955.02124","176721.708733","177488.377523","163704.750046","176727.065692"
"Blocked","Female","tile","14","F_bluff.wav","space","694.126135625","410","172138.256947","164471.81686","165221.421758","165988.06074","166754.783594","167521.478978","168288.49056","169038.208261","172904.914925","173671.571733","174438.361509","175205.264379","175955.02124","176721.708733","177488.377523","178255.054496","177493.448677"
"Blocked","Female","tile","14","F_tile.wav","None","730.347782989","410","172138.256947","179022.034224","165221.421758","165988.06074","166754.783594","167521.478978","168288.49056","169038.208261","172904.914925","173671.571733","174438.361509","175205.264379","175955.02124","176721.708733","177488.377523","178255.054496","178260.292516"
"Blocked","Female","tile","14","F_depth.wav","space","648.400130453","410","172138.256947","179022.034224","179771.762738","165988.06074","166754.783594","167521.478978","168288.49056","169038.208261","172904.914925","173671.571733","174438.361509","175205.264379","175955.02124","176721.708733","177488.377523","178255.054496","179027.151551"
"Blocked","Female","tile","14","F_tile.wav","None","740.110768741","410","172138.256947","179022.034224","179771.762738","180538.485884","166754.783594","167521.478978","168288.49056","169038.208261","172904.914925","173671.571733","174438.361509","175205.264379","175955.02124","176721.708733","177488.377523","178255.054496","179776.801745"
"Blocked","Female","tile","14","F_romp.wav","None","736.714706199","410","172138.256947","179022.034224","179771.762738","180538.485884","181305.166656","167521.478978","168288.49056","169038.208261","172904.914925","173671.571733","174438.361509","175205.264379","175955.02124","176721.708733","177488.377523","178255.054496","180543.72741"
"Blocked","Female","tile","14","F_park.wav","space","101.150996638","410","172138.256947","179022.034224","179771.762738","180538.485884","181305.166656","182071.827556","168288.49056","169038.208261","172904.914925","173671.571733","174438.361509","175205.264379","175955.02124","176721.708733","177488.377523","178255.054496","181310.3661"
"Blocked","Female","tile","14","F_priest.wav","None","729.742856608","410","172138.256947","179022.034224","179771.762738","180538.485884","181305.166656","182071.827556","182821.816158","169038.208261","172904.914925","173671.571733","174438.361509","175205.264379","175955.02124","176721.708733","177488.377523","178255.054496","182076.978197"
"Blocked","Female","tile","14","F_romp.wav","None","743.578721086","410","172138.256947","179022.034224","179771.762738","180538.485884","181305.166656","182071.827556","182821.816158","183588.521186","172904.914925","173671.571733","174438.361509","175205.264379","175955.02124","176721.708733","177488.377523","178255.054496","182826.744701"
"Blocked","Female","done","19","F_park.wav","None","740.589157381","410","186722.311906","179022.034224","179771.762738","180538.485884","181305.166656","182071.827556","182821.816158","183588.521186","172904.914925","173671.571733","174438.361509","175205.264379","175955.02124","176721.708733","177488.377523","178255.054496","183593.545289"
"Blocked","Female","done","19","F_depth.wav","None","723.05885846","410","186722.311906","179022.034224","179771.762738","180538.485884","181305.166656","182071.827556","182821.816158","183588.521186","187471.989863","173671.571733","174438.361509","175205.264379","175955.02124","176721.708733","177488.377523","178255.054496","186727.933922"
"Blocked","Female","done","19","F_reek.wav","None","737.44032562","410","186722.311906","179022.034224","179771.762738","180538.485884","181305.166656","182071.827556","182821.816158","183588.521186","187471.989863","188238.620955","174438.361509","175205.264379","175955.02124","176721.708733","177488.377523","178255.054496","187477.039099"
"Blocked","Female","done","19","F_done.wav","None","734.084299268","410","186722.311906","179022.034224","179771.762738","180538.485884","181305.166656","182071.827556","182821.816158","183588.521186","187471.989863","188238.620955","189005.328612","175205.264379","175955.02124","176721.708733","177488.377523","178255.054496","188243.881477"
"Blocked","Female","done","19","F_depth.wav","space","657.098211989","410","186722.311906","179022.034224","179771.762738","180538.485884","181305.166656","182071.827556","182821.816158","183588.521186","187471.989863","188238.620955","189005.328612","189772.411207","175955.02124","176721.708733","177488.377523","178255.054496","189010.348625"
"Blocked","Female","done","19","F_done.wav","None","726.260876985","410","186722.311906","179022.034224","179771.762738","180538.485884","181305.166656","182071.827556","182821.816158","183588.521186","187471.989863","188238.620955","189005.328612","189772.411207","190522.058187","176721.708733","177488.377523","178255.054496","189777.999617"
"Blocked","Female","done","19","F_cad.wav","None","740.398912418","410","186722.311906","179022.034224","179771.762738","180538.485884","181305.166656","182071.827556","182821.816158","183588.521186","187471.989863","188238.620955","189005.328612","189772.411207","190522.058187","191288.717334","177488.377523","178255.054496","190527.235714"
"Blocked","Female","done","19","F_done.wav","space","0.0210409175488","410","186722.311906","179022.034224","179771.762738","180538.485884","181305.166656","182071.827556","182821.816158","183588.521186","187471.989863","188238.620955","189005.328612","189772.411207","190522.058187","191288.717334","192055.45363","178255.054496","191293.837583"
"Blocked","Female","done","19","F_romp.wav","None","733.256689843","410","186722.311906","179022.034224","179771.762738","180538.485884","181305.166656","182071.827556","182821.816158","183588.521186","187471.989863","188238.620955","189005.328612","189772.411207","190522.058187","191288.717334","192055.45363","192822.059882","192060.823156"
"Blocked","Female","done","19","F_priest.wav","space","160.333253066","410","186722.311906","193572.146676","179771.762738","180538.485884","181305.166656","182071.827556","182821.816158","183588.521186","187471.989863","188238.620955","189005.328612","189772.411207","190522.058187","191288.717334","192055.45363","192822.059882","192827.078726"
"Blocked","Female","done","19","F_done.wav","None","743.145628866","410","186722.311906","193572.146676","194338.754682","180538.485884","181305.166656","182071.827556","182821.816158","183588.521186","187471.989863","188238.620955","189005.328612","189772.411207","190522.058187","191288.717334","192055.45363","192822.059882","193577.27803"
"Blocked","Female","done","19","F_romp.wav","None","739.889546872","410","186722.311906","193572.146676","194338.754682","195105.505882","181305.166656","182071.827556","182821.816158","183588.521186","187471.989863","188238.620955","189005.328612","189772.411207","190522.058187","191288.717334","192055.45363","192822.059882","194344.002929"
"Blocked","Female","done","19","F_jaw.wav","space","156.775000117","410","186722.311906","193572.146676","194338.754682","195105.505882","195872.189284","182071.827556","182821.816158","183588.521186","187471.989863","188238.620955","189005.328612","189772.411207","190522.058187","191288.717334","192055.45363","192822.059882","195110.677857"
"Blocked","Female","done","19","F_gnash.wav","None","733.062061355","410","186722.311906","193572.146676","194338.754682","195105.505882","195872.189284","196638.791737","182821.816158","183588.521186","187471.989863","188238.620955","189005.328612","189772.411207","190522.058187","191288.717334","192055.45363","192822.059882","195877.405094"
"Blocked","Female","done","19","F_lash.wav","None","734.75760863","410","186722.311906","193572.146676","194338.754682","195105.505882","195872.189284","196638.791737","197405.719155","183588.521186","187471.989863","188238.620955","189005.328612","189772.411207","190522.058187","191288.717334","192055.45363","192822.059882","196640.402828"
"Blocked","Female","done","19","F_dime.wav","None","728.548784537","410","186722.311906","193572.146676","194338.754682","195105.505882","195872.189284","196638.791737","197405.719155","198155.511084","187471.989863","188238.620955","189005.328612","189772.411207","190522.058187","191288.717334","192055.45363","192822.059882","197410.784464"
"Blocked","Female","cave","11","F_jaw.wav","None","742.475534089","410","201272.315646","193572.146676","194338.754682","195105.505882","195872.189284","196638.791737","197405.719155","198155.511084","187471.989863","188238.620955","189005.328612","189772.411207","190522.058187","191288.717334","192055.45363","192822.059882","198160.88207"
"Blocked","Female","cave","11","F_cave.wav","None","740.56139506","410","201272.315646","193572.146676","194338.754682","195105.505882","195872.189284","196638.791737","197405.719155","198155.511084","202039.000217","188238.620955","189005.328612","189772.411207","190522.058187","191288.717334","192055.45363","192822.059882","201277.422745"
"Blocked","Female","cave","11","F_knife.wav","None","737.239267963","410","201272.315646","193572.146676","194338.754682","195105.505882","195872.189284","196638.791737","197405.719155","198155.511084","202039.000217","202805.646506","189005.328612","189772.411207","190522.058187","191288.717334","192055.45363","192822.059882","202044.106439"
"Blocked","Female","cave","11","F_dime.wav","space","64.3857922373","410","201272.315646","193572.146676","194338.754682","195105.505882","195872.189284","196638.791737","197405.719155","198155.511084","202039.000217","202805.646506","203572.337506","189772.411207","190522.058187","191288.717334","192055.45363","192822.059882","202810.973949"
"Blocked","Female","cave","11","F_park.wav","None","730.260989204","410","201272.315646","193572.146676","194338.754682","195105.505882","195872.189284","196638.791737","197405.719155","198155.511084","202039.000217","202805.646506","203572.337506","204322.357378","190522.058187","191288.717334","192055.45363","192822.059882","203577.439344"
"Blocked","Female","cave","11","F_cad.wav","None","743.612035873","410","201272.315646","193572.146676","194338.754682","195105.505882","195872.189284","196638.791737","197405.719155","198155.511084","202039.000217","202805.646506","203572.337506","204322.357378","205089.058606","191288.717334","192055.45363","192822.059882","204327.485225"
"Blocked","Female","cave","11","F_knife.wav","None","740.356538348","410","201272.315646","193572.146676","194338.754682","195105.505882","195872.189284","196638.791737","197405.719155","198155.511084","202039.000217","202805.646506","203572.337506","204322.357378","205089.058606","205855.722428","192055.45363","192822.059882","205094.228243"
"Blocked","Female","cave","11","F_lash.wav","None","737.404380719","410","201272.315646","193572.146676","194338.754682","195105.505882","195872.189284","196638.791737","197405.719155","198155.511084","202039.000217","202805.646506","203572.337506","204322.357378","205089.058606","205855.722428","206622.405246","192822.059882","205860.790367"
"Blocked","Female","cave","11","F_gnash.wav","None","733.988738433","410","201272.315646","193572.146676","194338.754682","195105.505882","195872.189284","196638.791737","197405.719155","198155.511084","202039.000217","202805.646506","203572.337506","204322.357378","205089.058606","205855.722428","206622.405246","207389.100045","206627.683886"
"Blocked","Female","cave","11","F_cave.wav","None","730.98164063","410","201272.315646","208156.236119","194338.754682","195105.505882","195872.189284","196638.791737","197405.719155","198155.511084","202039.000217","202805.646506","203572.337506","204322.357378","205089.058606","205855.722428","206622.405246","207389.100045","207394.213572"
"Blocked","Female","cave","11","F_jaw.wav","space","697.446801546","410","201272.315646","208156.236119","208905.80215","195105.505882","195872.189284","196638.791737","197405.719155","198155.511084","202039.000217","202805.646506","203572.337506","204322.357378","205089.058606","205855.722428","206622.405246","207389.100045","208161.86398"
"Blocked","Female","cave","11","F_cave.wav","None","740.602307955","410","201272.315646","208156.236119","208905.80215","209672.479123","195872.189284","196638.791737","197405.719155","198155.511084","202039.000217","202805.646506","203572.337506","204322.357378","205089.058606","205855.722428","206622.405246","207389.100045","208910.950453"
"Blocked","Female","cave","11","F_cad.wav","None","737.857344917","410","201272.315646","208156.236119","208905.80215","209672.479123","210439.181812","196638.791737","197405.719155","198155.511084","202039.000217","202805.646506","203572.337506","204322.357378","205089.058606","205855.722428","206622.405246","207389.100045","209677.494459"
"Blocked","Female","cave","11","F_park.wav","space","566.810173517","410","201272.315646","208156.236119","208905.80215","209672.479123","210439.181812","211205.843004","197405.719155","198155.511084","202039.000217","202805.646506","203572.337506","204322.357378","205089.058606","205855.722428","206622.405246","207389.100045","210444.431229"
"Blocked","Female","cave","11","F_cave.wav","None","731.256049264","410","201272.315646","208156.236119","208905.80215","209672.479123","210439.181812","211205.843004","211972.8917","198155.511084","202039.000217","202805.646506","203572.337506","204322.357378","205089.058606","205855.722428","206622.405246","207389.100045","211210.979618"
"Blocked","Female","cave","11","F_jaw.wav","space","720.786731597","410","201272.315646","208156.236119","208905.80215","209672.479123","210439.181812","211205.843004","211972.8917","212722.555922","202039.000217","202805.646506","203572.337506","204322.357378","205089.058606","205855.722428","206622.405246","207389.100045","211978.51284"
"Blocked","Female","tile","18","F_gnash.wav","None","740.588865146","410","215839.291517","208156.236119","208905.80215","209672.479123","210439.181812","211205.843004","211972.8917","212722.555922","202039.000217","202805.646506","203572.337506","204322.357378","205089.058606","205855.722428","206622.405246","207389.100045","212727.981264"
"Blocked","Female","tile","18","F_depth.wav","None","741.584509677","410","215839.291517","208156.236119","208905.80215","209672.479123","210439.181812","211205.843004","211972.8917","212722.555922","216606.052654","202805.646506","203572.337506","204322.357378","205089.058606","205855.722428","206622.405246","207389.100045","215844.278215"
"Blocked","Female","tile","18","F_tile.wav","None","738.447367314","410","215839.291517","208156.236119","208905.80215","209672.479123","210439.181812","211205.843004","211972.8917","212722.555922","216606.052654","217372.661244","203572.337506","204322.357378","205089.058606","205855.722428","206622.405246","207389.100045","216611.093707"
"Blocked","Female","tile","18","F_priest.wav","space","545.277424498","410","215839.291517","208156.236119","208905.80215","209672.479123","210439.181812","211205.843004","211972.8917","212722.555922","216606.052654","217372.661244","218139.401339","204322.357378","205089.058606","205855.722428","206622.405246","207389.100045","217377.932286"
"Blocked","Female","tile","18","F_tile.wav","None","731.797560656","410","215839.291517","208156.236119","208905.80215","209672.479123","210439.181812","211205.843004","211972.8917","212722.555922","216606.052654","217372.661244","218139.401339","218906.043536","205089.058606","205855.722428","206622.405246","207389.100045","218144.533277"
"Blocked","Female","tile","18","F_dime.wav","space","563.738784022","410","215839.291517","208156.236119","208905.80215","209672.479123","210439.181812","211205.843004","211972.8917","212722.555922","216606.052654","217372.661244","218139.401339","218906.043536","219656.056979","205855.722428","206622.405246","207389.100045","218911.439947"
"Blocked","Female","tile","18","F_greet.wav","None","742.152322216","410","215839.291517","208156.236119","208905.80215","209672.479123","210439.181812","211205.843004","211972.8917","212722.555922","216606.052654","217372.661244","218139.401339","218906.043536","219656.056979","220422.765805","206622.405246","207389.100045","219660.913339"
"Blocked","Female","tile","18","F_tile.wav","None","738.764150017","410","215839.291517","208156.236119","208905.80215","209672.479123","210439.181812","211205.843004","211972.8917","212722.555922","216606.052654","217372.661244","218139.401339","218906.043536","219656.056979","220422.765805","221189.420276","207389.100045","220427.945378"
"Blocked","Female","tile","18","F_priest.wav","space","464.74068238","410","215839.291517","208156.236119","208905.80215","209672.479123","210439.181812","211205.843004","211972.8917","212722.555922","216606.052654","217372.661244","218139.401339","218906.043536","219656.056979","220422.765805","221189.420276","221956.148682","221194.442042"
"Blocked","Female","tile","18","F_tile.wav","None","731.810418995","410","215839.291517","222722.749089","208905.80215","209672.479123","210439.181812","211205.843004","211972.8917","212722.555922","216606.052654","217372.661244","218139.401339","218906.043536","219656.056979","220422.765805","221189.420276","221956.148682","221961.514116"
"Blocked","Female","tile","18","F_bluff.wav","space","643.218804501","410","215839.291517","222722.749089","223472.832084","209672.479123","210439.181812","211205.843004","211972.8917","212722.555922","216606.052654","217372.661244","218139.401339","218906.043536","219656.056979","220422.765805","221189.420276","221956.148682","222727.969283"
"Blocked","Female","tile","18","F_cad.wav","None","742.273891962","410","215839.291517","222722.749089","223472.832084","224239.481587","210439.181812","211205.843004","211972.8917","212722.555922","216606.052654","217372.661244","218139.401339","218906.043536","219656.056979","220422.765805","221189.420276","221956.148682","223477.969575"
"Blocked","Female","tile","18","F_reek.wav","None","739.495029668","410","215839.291517","222722.749089","223472.832084","224239.481587","225006.175802","211205.843004","211972.8917","212722.555922","216606.052654","217372.661244","218139.401339","218906.043536","219656.056979","220422.765805","221189.420276","221956.148682","224244.600959"
"Blocked","Female","tile","18","F_knife.wav","None","736.670286484","410","215839.291517","222722.749089","223472.832084","224239.481587","225006.175802","225772.92671","211972.8917","212722.555922","216606.052654","217372.661244","218139.401339","218906.043536","219656.056979","220422.765805","221189.420276","221956.148682","225011.228544"
"Blocked","Female","tile","18","F_jolt.wav","None","733.978510209","410","215839.291517","222722.749089","223472.832084","224239.481587","225006.175802","225772.92671","226539.550496","212722.555922","216606.052654","217372.661244","218139.401339","218906.043536","219656.056979","220422.765805","221189.420276","221956.148682","225777.970393"
"Blocked","Female","tile","18","F_jolt.wav","None","730.883157446","410","215839.291517","222722.749089","223472.832084","224239.481587","225006.175802","225772.92671","226539.550496","227306.746186","216606.052654","217372.661244","218139.401339","218906.043536","219656.056979","220422.765805","221189.420276","221956.148682","226544.742635"
"Blocked","Female","cave","12","F_park.wav","None","727.862324601","410","230389.639511","222722.749089","223472.832084","224239.481587","225006.175802","225772.92671","226539.550496","227306.746186","216606.052654","217372.661244","218139.401339","218906.043536","219656.056979","220422.765805","221189.420276","221956.148682","227312.024826"
"Blocked","Female","cave","12","F_jolt.wav","None","740.677120106","410","230389.639511","222722.749089","223472.832084","224239.481587","225006.175802","225772.92671","226539.550496","227306.746186","231156.310054","217372.661244","218139.401339","218906.043536","219656.056979","220422.765805","221189.420276","221956.148682","230394.948543"
"Blocked","Female","cave","12","F_cave.wav","None","741.277955197","410","230389.639511","222722.749089","223472.832084","224239.481587","225006.175802","225772.92671","226539.550496","227306.746186","231156.310054","231923.076159","218139.401339","218906.043536","219656.056979","220422.765805","221189.420276","221956.148682","231158.013492"
"Blocked","Female","cave","12","F_greet.wav","None","734.837973245","410","230389.639511","222722.749089","223472.832084","224239.481587","225006.175802","225772.92671","226539.550496","227306.746186","231156.310054","231923.076159","232689.686794","218906.043536","219656.056979","220422.765805","221189.420276","221956.148682","231928.09471"
"Blocked","Female","cave","12","F_greet.wav","space","0.0213331523119","410","230389.639511","222722.749089","223472.832084","224239.481587","225006.175802","225772.92671","226539.550496","227306.746186","231156.310054","231923.076159","232689.686794","233456.649281","219656.056979","220422.765805","221189.420276","221956.148682","232694.991151"
"Blocked","Female","cave","12","F_romp.wav","None","727.345360945","410","230389.639511","222722.749089","223472.832084","224239.481587","225006.175802","225772.92671","226539.550496","227306.746186","231156.310054","231923.076159","232689.686794","233456.649281","234206.421922","220422.765805","221189.420276","221956.148682","233462.012669"
"Blocked","Female","cave","12","F_priest.wav","None","741.498592597","410","230389.639511","222722.749089","223472.832084","224239.481587","225006.175802","225772.92671","226539.550496","227306.746186","231156.310054","231923.076159","232689.686794","233456.649281","234206.421922","234973.072886","221189.420276","221956.148682","234211.472034"
"Blocked","Female","cave","12","F_romp.wav","None","738.619201474","410","230389.639511","222722.749089","223472.832084","224239.481587","225006.175802","225772.92671","226539.550496","227306.746186","231156.310054","231923.076159","232689.686794","233456.649281","234206.421922","234973.072886","235739.829639","221956.148682","234978.182614"
"Blocked","Female","cave","12","F_cave.wav","None","735.437931631","410","230389.639511","222722.749089","223472.832084","224239.481587","225006.175802","225772.92671","226539.550496","227306.746186","231156.310054","231923.076159","232689.686794","233456.649281","234206.421922","234973.072886","235739.829639","236506.454886","235744.901377"
"Blocked","Female","cave","12","F_knife.wav","space","707.573327597","410","230389.639511","237273.445135","223472.832084","224239.481587","225006.175802","225772.92671","226539.550496","227306.746186","231156.310054","231923.076159","232689.686794","233456.649281","234206.421922","234973.072886","235739.829639","236506.454886","236511.497985"
"Blocked","Female","cave","12","F_cave.wav","None","727.672371872","410","230389.639511","237273.445135","238023.213685","224239.481587","225006.175802","225772.92671","226539.550496","227306.746186","231156.310054","231923.076159","232689.686794","233456.649281","234206.421922","234973.072886","235739.829639","236506.454886","237279.229634"
"Blocked","Female","cave","12","F_cling.wav","None","742.017309661","410","230389.639511","237273.445135","238023.213685","238789.843608","225006.175802","225772.92671","226539.550496","227306.746186","231156.310054","231923.076159","232689.686794","233456.649281","234206.421922","234973.072886","235739.829639","236506.454886","238028.387412"
"Blocked","Female","cave","12","F_cad.wav","space","207.836631302","410","230389.639511","237273.445135","238023.213685","238789.843608","239556.543375","225772.92671","226539.550496","227306.746186","231156.310054","231923.076159","232689.686794","233456.649281","234206.421922","234973.072886","235739.829639","236506.454886","238795.223653"
"Blocked","Female","cave","12","F_cave.wav","None","735.381238048","410","230389.639511","237273.445135","238023.213685","238789.843608","239556.543375","240323.223562","226539.550496","227306.746186","231156.310054","231923.076159","232689.686794","233456.649281","234206.421922","234973.072886","235739.829639","236506.454886","239561.692555"
"Blocked","Female","cave","12","F_romp.wav","None","732.688292833","410","230389.639511","237273.445135","238023.213685","238789.843608","239556.543375","240323.223562","241089.91164","227306.746186","231156.310054","231923.076159","232689.686794","233456.649281","234206.421922","234973.072886","235739.829639","236506.454886","240328.258771"
"Blocked","Female","cave","12","F_depth.wav","space","84.0961640069","410","230389.639511","237273.445135","238023.213685","238789.843608","239556.543375","240323.223562","241089.91164","241839.935019","231156.310054","231923.076159","232689.686794","233456.649281","234206.421922","234973.072886","235739.829639","236506.454886","241094.912949"
"Blocked","Female","done","24","F_lash.wav","None","742.515570279","410","244956.697207","237273.445135","238023.213685","238789.843608","239556.543375","240323.223562","241089.91164","241839.935019","231156.310054","231923.076159","232689.686794","233456.649281","234206.421922","234973.072886","235739.829639","236506.454886","241844.914702"
"Blocked","Female","done","24","F_done.wav","None","740.387515254","410","244956.697207","237273.445135","238023.213685","238789.843608","239556.543375","240323.223562","241089.91164","241839.935019","245723.366582","231923.076159","232689.686794","233456.649281","234206.421922","234973.072886","235739.829639","236506.454886","244962.134531"
"Blocked","Female","done","24","F_cling.wav","None","737.665638779","410","244956.697207","237273.445135","238023.213685","238789.843608","239556.543375","240323.223562","241089.91164","241839.935019","245723.366582","246490.118075","232689.686794","233456.649281","234206.421922","234973.072886","235739.829639","236506.454886","245728.585314"
"Blocked","Female","done","24","F_lash.wav","space","275.849351706","410","244956.697207","237273.445135","238023.213685","238789.843608","239556.543375","240323.223562","241089.91164","241839.935019","245723.366582","246490.118075","247256.717605","233456.649281","234206.421922","234973.072886","235739.829639","236506.454886","246495.136918"
"Blocked","Female","done","24","F_romp.wav","None","731.212214019","410","244956.697207","237273.445135","238023.213685","238789.843608","239556.543375","240323.223562","241089.91164","241839.935019","245723.366582","246490.118075","247256.717605","248023.698795","234206.421922","234973.072886","235739.829639","236506.454886","247261.823534"
"Blocked","Female","done","24","F_knife.wav","None","727.388903955","410","244956.697207","237273.445135","238023.213685","238789.843608","239556.543375","240323.223562","241089.91164","241839.935019","245723.366582","246490.118075","247256.717605","248023.698795","248773.453902","234973.072886","235739.829639","236506.454886","248029.251551"
"Blocked","Female","done","24","F_done.wav","None","741.783229454","410","244956.697207","237273.445135","238023.213685","238789.843608","239556.543375","240323.223562","241089.91164","241839.935019","245723.366582","246490.118075","247256.717605","248023.698795","248773.453902","249540.116847","235739.829639","236506.454886","248778.683154"
"Blocked","Female","done","24","F_dime.wav","space","705.645453525","410","244956.697207","237273.445135","238023.213685","238789.843608","239556.543375","240323.223562","241089.91164","241839.935019","245723.366582","246490.118075","247256.717605","248023.698795","248773.453902","249540.116847","250306.752615","236506.454886","249545.26895"
"Blocked","Female","done","24","F_park.wav","None","735.175796866","410","244956.697207","237273.445135","238023.213685","238789.843608","239556.543375","240323.223562","241089.91164","241839.935019","245723.366582","246490.118075","247256.717605","248023.698795","248773.453902","249540.116847","250306.752615","251073.438063","250311.760938"
"Blocked","Female","done","24","F_done.wav","None","732.049174962","410","244956.697207","251840.200952","238023.213685","238789.843608","239556.543375","240323.223562","241089.91164","241839.935019","245723.366582","246490.118075","247256.717605","248023.698795","248773.453902","249540.116847","250306.752615","251073.438063","251078.837104"
"Blocked","Female","done","24","F_cad.wav","None","729.471954795","410","244956.697207","251840.200952","252590.172606","238789.843608","239556.543375","240323.223562","241089.91164","241839.935019","245723.366582","246490.118075","247256.717605","248023.698795","248773.453902","249540.116847","250306.752615","251073.438063","251845.26743"
"Blocked","Female","done","24","F_done.wav","space","71.6086716634","410","244956.697207","251840.200952","252590.172606","253356.932865","239556.543375","240323.223562","241089.91164","241839.935019","245723.366582","246490.118075","247256.717605","248023.698795","248773.453902","249540.116847","250306.752615","251073.438063","252595.304836"
"Blocked","Female","done","24","F_priest.wav","None","739.51986964","410","244956.697207","251840.200952","252590.172606","253356.932865","254123.508725","240323.223562","241089.91164","241839.935019","245723.366582","246490.118075","247256.717605","248023.698795","248773.453902","249540.116847","250306.752615","251073.438063","253361.9257"
"Blocked","Female","done","24","F_priest.wav","space","0.0213331522828","410","244956.697207","251840.200952","252590.172606","253356.932865","254123.508725","254890.251158","241089.91164","241839.935019","245723.366582","246490.118075","247256.717605","248023.698795","248773.453902","249540.116847","250306.752615","251073.438063","254128.533413"
"Blocked","Female","done","24","F_park.wav","None","732.571983317","410","244956.697207","251840.200952","252590.172606","253356.932865","254123.508725","254890.251158","255656.928716","241839.935019","245723.366582","246490.118075","247256.717605","248023.698795","248773.453902","249540.116847","250306.752615","251073.438063","254895.522785"
"Blocked","Female","done","24","F_cad.wav","None","730.009959368","410","244956.697207","251840.200952","252590.172606","253356.932865","254123.508725","254890.251158","255656.928716","256424.072388","245723.366582","246490.118075","247256.717605","248023.698795","248773.453902","249540.116847","250306.752615","251073.438063","255661.952235"
"Blocked","Female","cave","7","F_gnash.wav","None","726.413715873","410","259523.731525","251840.200952","252590.172606","253356.932865","254123.508725","254890.251158","255656.928716","256424.072388","245723.366582","246490.118075","247256.717605","248023.698795","248773.453902","249540.116847","250306.752615","251073.438063","256429.693235"
"Blocked","Female","cave","7","F_cave.wav","None","740.222402499","410","259523.731525","251840.200952","252590.172606","253356.932865","254123.508725","254890.251158","255656.928716","256424.072388","260290.341284","246490.118075","247256.717605","248023.698795","248773.453902","249540.116847","250306.752615","251073.438063","259529.125013"
"Blocked","Female","cave","7","F_greet.wav","None","737.907024861","410","259523.731525","251840.200952","252590.172606","253356.932865","254123.508725","254890.251158","255656.928716","256424.072388","260290.341284","261057.040174","247256.717605","248023.698795","248773.453902","249540.116847","250306.752615","251073.438063","260295.397825"
"Blocked","Female","cave","7","F_jolt.wav","None","735.285092744","410","259523.731525","251840.200952","252590.172606","253356.932865","254123.508725","254890.251158","255656.928716","256424.072388","260290.341284","261057.040174","261823.691138","248023.698795","248773.453902","249540.116847","250306.752615","251073.438063","261062.081227"
"Blocked","Female","cave","7","F_dime.wav","None","732.45801168","410","259523.731525","251840.200952","252590.172606","253356.932865","254123.508725","254890.251158","255656.928716","256424.072388","260290.341284","261057.040174","261823.691138","262590.464841","248773.453902","249540.116847","250306.752615","251073.438063","261828.725178"
"Blocked","Female","cave","7","F_gnash.wav","None","729.419060266","410","259523.731525","251840.200952","252590.172606","253356.932865","254123.508725","254890.251158","255656.928716","256424.072388","260290.341284","261057.040174","261823.691138","262590.464841","263340.430941","249540.116847","250306.752615","251073.438063","262595.653472"
"Blocked","Female","cave","7","F_park.wav","None","743.330905835","410","259523.731525","251840.200952","252590.172606","253356.932865","254123.508725","254890.251158","255656.928716","256424.072388","260290.341284","261057.040174","261823.691138","262590.464841","263340.430941","264107.136261","250306.752615","251073.438063","263345.637984"
"Blocked","Female","cave","7","F_depth.wav","None","740.589741852","410","259523.731525","251840.200952","252590.172606","253356.932865","254123.508725","254890.251158","255656.928716","256424.072388","260290.341284","261057.040174","261823.691138","262590.464841","263340.430941","264107.136261","264873.814111","251073.438063","264112.179652"
"Blocked","Female","cave","7","F_cave.wav","None","738.010476039","410","259523.731525","251840.200952","252590.172606","253356.932865","254123.508725","254890.251158","255656.928716","256424.072388","260290.341284","261057.040174","261823.691138","262590.464841","263340.430941","264107.136261","264873.814111","265640.49985","264878.722781"
"Blocked","Female","cave","7","F_jaw.wav","space","549.173501068","410","259523.731525","266407.206047","252590.172606","253356.932865","254123.508725","254890.251158","255656.928716","256424.072388","260290.341284","261057.040174","261823.691138","262590.464841","263340.430941","264107.136261","264873.814111","265640.49985","265645.626528"
"Blocked","Female","cave","7","F_bluff.wav","None","730.786427673","410","259523.731525","266407.206047","267174.29361","253356.932865","254123.508725","254890.251158","255656.928716","256424.072388","260290.341284","261057.040174","261823.691138","262590.464841","263340.430941","264107.136261","264873.814111","265640.49985","266412.621453"
"Blocked","Female","cave","7","F_cave.wav","None","727.360557163","410","259523.731525","266407.206047","267174.29361","267923.883896","254123.508725","254890.251158","255656.928716","256424.072388","260290.341284","261057.040174","261823.691138","262590.464841","263340.430941","264107.136261","264873.814111","265640.49985","267179.935206"
"Blocked","Female","cave","7","F_cad.wav","None","742.384941249","410","259523.731525","266407.206047","267174.29361","267923.883896","268690.565837","254890.251158","255656.928716","256424.072388","260290.341284","261057.040174","261823.691138","262590.464841","263340.430941","264107.136261","264873.814111","265640.49985","267928.922612"
"Blocked","Female","cave","7","F_cave.wav","space","0.0210409175488","410","259523.731525","266407.206047","267174.29361","267923.883896","268690.565837","269457.23112","255656.928716","256424.072388","260290.341284","261057.040174","261823.691138","262590.464841","263340.430941","264107.136261","264873.814111","265640.49985","268695.878961"
"Blocked","Female","cave","7","F_jaw.wav","None","735.728120952","410","259523.731525","266407.206047","267174.29361","267923.883896","268690.565837","269457.23112","270223.930011","256424.072388","260290.341284","261057.040174","261823.691138","262590.464841","263340.430941","264107.136261","264873.814111","265640.49985","269462.342894"
"Blocked","Female","cave","7","F_depth.wav","space","197.706306197","410","259523.731525","266407.206047","267174.29361","267923.883896","268690.565837","269457.23112","270223.930011","270990.647604","260290.341284","261057.040174","261823.691138","262590.464841","263340.430941","264107.136261","264873.814111","265640.49985","270229.08036"
"Blocked","Female","ball","6","F_priest.wav","None","729.142898223","410","274090.744217","266407.206047","267174.29361","267923.883896","268690.565837","269457.23112","270223.930011","270990.647604","260290.341284","261057.040174","261823.691138","262590.464841","263340.430941","264107.136261","264873.814111","265640.49985","270995.582576"
"Blocked","Female","ball","6","F_priest.wav","None","740.564317409","410","274090.744217","266407.206047","267174.29361","267923.883896","268690.565837","269457.23112","270223.930011","270990.647604","274857.437263","261057.040174","261823.691138","262590.464841","263340.430941","264107.136261","264873.814111","265640.49985","274095.769782"
"Blocked","Female","ball","6","F_gnash.wav","None","737.886276178","410","274090.744217","266407.206047","267174.29361","267923.883896","268690.565837","269457.23112","270223.930011","270990.647604","274857.437263","275624.060465","261823.691138","262590.464841","263340.430941","264107.136261","264873.814111","265640.49985","274862.607776"
"Blocked","Female","ball","6","F_ball.wav","None","735.328927989","410","274090.744217","266407.206047","267174.29361","267923.883896","268690.565837","269457.23112","270223.930011","270990.647604","274857.437263","275624.060465","276390.730716","262590.464841","263340.430941","264107.136261","264873.814111","265640.49985","275629.18948"
"Blocked","Female","ball","6","F_jolt.wav","space","566.845241713","410","274090.744217","266407.206047","267174.29361","267923.883896","268690.565837","269457.23112","270223.930011","270990.647604","274857.437263","275624.060465","276390.730716","277157.434574","263340.430941","264107.136261","264873.814111","265640.49985","276395.858855"
"Blocked","Female","ball","6","F_park.wav","None","728.922845293","410","274090.744217","266407.206047","267174.29361","267923.883896","268690.565837","269457.23112","270223.930011","270990.647604","274857.437263","275624.060465","276390.730716","277157.434574","277907.470812","264107.136261","264873.814111","265640.49985","277162.565344"
"Blocked","Female","ball","6","F_park.wav","None","742.85105602","410","274090.744217","266407.206047","267174.29361","267923.883896","268690.565837","269457.23112","270223.930011","270990.647604","274857.437263","275624.060465","276390.730716","277157.434574","277907.470812","278674.136095","264873.814111","265640.49985","277912.60012"
"Blocked","Female","ball","6","F_ball.wav","None","740.34309554","410","274090.744217","266407.206047","267174.29361","267923.883896","268690.565837","269457.23112","270223.930011","270990.647604","274857.437263","275624.060465","276390.730716","277157.434574","277907.470812","278674.136095","279440.855734","265640.49985","278679.301056"
"Blocked","Female","ball","6","F_cad.wav","space","724.693913096","410","274090.744217","266407.206047","267174.29361","267923.883896","268690.565837","269457.23112","270223.930011","270990.647604","274857.437263","275624.060465","276390.730716","277157.434574","277907.470812","278674.136095","279440.855734","280207.499392","279446.01485"
"Blocked","Female","ball","6","F_jaw.wav","None","734.005688061","410","274090.744217","280974.209972","267174.29361","267923.883896","268690.565837","269457.23112","270223.930011","270990.647604","274857.437263","275624.060465","276390.730716","277157.434574","277907.470812","278674.136095","279440.855734","280207.499392","280212.503624"
"Blocked","Female","ball","6","F_ball.wav","None","730.956800659","410","274090.744217","280974.209972","281741.209864","267923.883896","268690.565837","269457.23112","270223.930011","270990.647604","274857.437263","275624.060465","276390.730716","277157.434574","277907.470812","278674.136095","279440.855734","280207.499392","280979.481599"
"Blocked","Female","ball","6","F_depth.wav","None","727.978926352","410","274090.744217","280974.209972","281741.209864","282490.889575","268690.565837","269457.23112","270223.930011","270990.647604","274857.437263","275624.060465","276390.730716","277157.434574","277907.470812","278674.136095","279440.855734","280207.499392","281746.743334"
"Blocked","Female","ball","6","F_jolt.wav","None","742.882325162","410","274090.744217","280974.209972","281741.209864","282490.889575","283257.632593","269457.23112","270223.930011","270990.647604","274857.437263","275624.060465","276390.730716","277157.434574","277907.470812","278674.136095","279440.855734","280207.499392","282495.884163"
"Blocked","Female","ball","6","F_ball.wav","space","0.0230865621124","410","274090.744217","280974.209972","281741.209864","282490.889575","283257.632593","284024.300506","270223.930011","270990.647604","274857.437263","275624.060465","276390.730716","277157.434574","277907.470812","278674.136095","279440.855734","280207.499392","283262.517885"
"Blocked","Female","ball","6","F_dime.wav","None","736.222290281","410","274090.744217","280974.209972","281741.209864","282490.889575","283257.632593","284024.300506","284790.950009","270990.647604","274857.437263","275624.060465","276390.730716","277157.434574","277907.470812","278674.136095","279440.855734","280207.499392","284029.473942"
"Blocked","Female","ball","6","F_romp.wav","space","0.0210409175488","410","274090.744217","280974.209972","281741.209864","282490.889575","283257.632593","284024.300506","284790.950009","285557.664972","274857.437263","275624.060465","276390.730716","277157.434574","277907.470812","278674.136095","279440.855734","280207.499392","284795.972944"
"Blocked","Female","ball","3","F_park.wav","None","730.482503308","410","288657.742298","280974.209972","281741.209864","282490.889575","283257.632593","284024.300506","284790.950009","285557.664972","274857.437263","275624.060465","276390.730716","277157.434574","277907.470812","278674.136095","279440.855734","280207.499392","285562.452658"
"Blocked","Female","ball","3","F_lash.wav","None","741.016404902","410","288657.742298","280974.209972","281741.209864","282490.889575","283257.632593","284024.300506","284790.950009","285557.664972","289424.416641","275624.060465","276390.730716","277157.434574","277907.470812","278674.136095","279440.855734","280207.499392","288663.118545"
"Blocked","Female","ball","3","F_ball.wav","None","738.570398234","410","288657.742298","280974.209972","281741.209864","282490.889575","283257.632593","284024.300506","284790.950009","285557.664972","289424.416641","290191.078125","276390.730716","277157.434574","277907.470812","278674.136095","279440.855734","280207.499392","289429.518479"
"Blocked","Female","ball","3","F_greet.wav","space","598.463603888","410","288657.742298","280974.209972","281741.209864","282490.889575","283257.632593","284024.300506","284790.950009","285557.664972","289424.416641","290191.078125","290957.806531","277157.434574","277907.470812","278674.136095","279440.855734","280207.499392","290196.129699"
"Blocked","Female","ball","3","F_ball.wav","None","732.334980759","410","288657.742298","280974.209972","281741.209864","282490.889575","283257.632593","284024.300506","284790.950009","285557.664972","289424.416641","290191.078125","290957.806531","291724.457495","277907.470812","278674.136095","279440.855734","280207.499392","290962.864826"
"Blocked","Female","ball","3","F_jaw.wav","None","730.38255895","410","288657.742298","280974.209972","281741.209864","282490.889575","283257.632593","284024.300506","284790.950009","285557.664972","289424.416641","290191.078125","290957.806531","291724.457495","292491.519341","278674.136095","279440.855734","280207.499392","291729.355353"
"Blocked","Female","ball","3","F_ball.wav","None","726.263214865","410","288657.742298","280974.209972","281741.209864","282490.889575","283257.632593","284024.300506","284790.950009","285557.664972","289424.416641","290191.078125","290957.806531","291724.457495","292491.519341","293241.161353","279440.855734","280207.499392","292497.421026"
"Blocked","Female","ball","3","F_knife.wav","space","4.18480471673","410","288657.742298","280974.209972","281741.209864","282490.889575","283257.632593","284024.300506","284790.950009","285557.664972","289424.416641","290191.078125","290957.806531","291724.457495","292491.519341","293241.161353","294007.832189","280207.499392","293246.361675"
"Blocked","Female","ball","3","F_reek.wav","None","737.711811903","410","288657.742298","280974.209972","281741.209864","282490.889575","283257.632593","284024.300506","284790.950009","285557.664972","289424.416641","290191.078125","290957.806531","291724.457495","292491.519341","293241.161353","294007.832189","294774.578422","294012.836713"
"Blocked","Female","ball","3","F_bluff.wav","None","735.140728671","410","288657.742298","295541.182336","281741.209864","282490.889575","283257.632593","284024.300506","284790.950009","285557.664972","289424.416641","290191.078125","290957.806531","291724.457495","292491.519341","293241.161353","294007.832189","294774.578422","294779.637301"
"Blocked","Female","ball","3","F_romp.wav","None","732.476130248","410","288657.742298","295541.182336","296307.89613","282490.889575","283257.632593","284024.300506","284790.950009","285557.664972","289424.416641","290191.078125","290957.806531","291724.457495","292491.519341","293241.161353","294007.832189","294774.578422","295546.332977"
"Blocked","Female","ball","3","F_ball.wav","None","729.838125208","410","288657.742298","295541.182336","296307.89613","297074.985154","283257.632593","284024.300506","284790.950009","285557.664972","289424.416641","290191.078125","290957.806531","291724.457495","292491.519341","293241.161353","294007.832189","294774.578422","296313.016379"
"Blocked","Female","ball","3","F_knife.wav","space","650.041906494","410","288657.742298","295541.182336","296307.89613","297074.985154","297824.581578","284024.300506","284790.950009","285557.664972","289424.416641","290191.078125","290957.806531","291724.457495","292491.519341","293241.161353","294007.832189","294774.578422","297080.441474"
"Blocked","Female","ball","3","F_greet.wav","None","740.118074616","410","288657.742298","295541.182336","296307.89613","297074.985154","297824.581578","298591.264103","284790.950009","285557.664972","289424.416641","290191.078125","290957.806531","291724.457495","292491.519341","293241.161353","294007.832189","294774.578422","297829.465116"
"Blocked","Female","ball","3","F_bluff.wav","None","737.270829339","410","288657.742298","295541.182336","296307.89613","297074.985154","297824.581578","298591.264103","299357.960071","285557.664972","289424.416641","290191.078125","290957.806531","291724.457495","292491.519341","293241.161353","294007.832189","294774.578422","298596.424973"
"Blocked","Female","ball","3","F_romp.wav","None","734.602431862","410","288657.742298","295541.182336","296307.89613","297074.985154","297824.581578","298591.264103","299357.960071","300124.705135","289424.416641","290191.078125","290957.806531","291724.457495","292491.519341","293241.161353","294007.832189","294774.578422","299363.151041"
"Blocked","Female","cave","10","F_park.wav","None","732.253447204","410","303208.013141","295541.182336","296307.89613","297074.985154","297824.581578","298591.264103","299357.960071","300124.705135","289424.416641","290191.078125","290957.806531","291724.457495","292491.519341","293241.161353","294007.832189","294774.578422","300129.711704"
"Blocked","Female","cave","10","F_knife.wav","None","740.726800051","410","303208.013141","295541.182336","296307.89613","297074.985154","297824.581578","298591.264103","299357.960071","300124.705135","303974.742716","290191.078125","290957.806531","291724.457495","292491.519341","293241.161353","294007.832189","294774.578422","303213.242686"
"Blocked","Female","cave","10","F_reek.wav","None","738.253907766","410","303208.013141","295541.182336","296307.89613","297074.985154","297824.581578","298591.264103","299357.960071","300124.705135","303974.742716","304741.420858","290957.806531","291724.457495","292491.519341","293241.161353","294007.832189","294774.578422","303979.790491"
"Blocked","Female","cave","10","F_cave.wav","None","735.565638311","410","303208.013141","295541.182336","296307.89613","297074.985154","297824.581578","298591.264103","299357.960071","300124.705135","303974.742716","304741.420858","305508.094032","291724.457495","292491.519341","293241.161353","294007.832189","294774.578422","304746.555426"
"Blocked","Female","cave","10","F_park.wav","None","732.943998429","410","303208.013141","295541.182336","296307.89613","297074.985154","297824.581578","298591.264103","299357.960071","300124.705135","303974.742716","304741.420858","305508.094032","306274.822146","292491.519341","293241.161353","294007.832189","294774.578422","305513.247303"
"Blocked","Female","cave","10","F_cad.wav","None","730.387526944","410","303208.013141","295541.182336","296307.89613","297074.985154","297824.581578","298591.264103","299357.960071","300124.705135","303974.742716","304741.420858","305508.094032","306274.822146","307041.915553","293241.161353","294007.832189","294774.578422","306279.96402"
"Blocked","Female","cave","10","F_lash.wav","space","42.8463218136","410","303208.013141","295541.182336","296307.89613","297074.985154","297824.581578","298591.264103","299357.960071","300124.705135","303974.742716","304741.420858","305508.094032","306274.822146","307041.915553","307791.486553","294007.832189","294774.578422","307047.611797"
"Blocked","Female","cave","10","F_cad.wav","None","740.455021532","410","303208.013141","295541.182336","296307.89613","297074.985154","297824.581578","298591.264103","299357.960071","300124.705135","303974.742716","304741.420858","305508.094032","306274.822146","307041.915553","307791.486553","308558.268438","294774.578422","307796.526145"
"Blocked","Female","cave","10","F_cad.wav","None","737.682588407","410","303208.013141","295541.182336","296307.89613","297074.985154","297824.581578","298591.264103","299357.960071","300124.705135","303974.742716","304741.420858","305508.094032","306274.822146","307041.915553","307791.486553","308558.268438","309324.867676","308563.334331"
"Blocked","Female","cave","10","F_cave.wav","None","735.082866147","410","303208.013141","310091.562183","296307.89613","297074.985154","297824.581578","298591.264103","299357.960071","300124.705135","303974.742716","304741.420858","305508.094032","306274.822146","307041.915553","307791.486553","308558.268438","309324.867676","309330.086408"
"Blocked","Female","cave","10","F_park.wav","None","732.752876761","410","303208.013141","310091.562183","310858.259904","297074.985154","297824.581578","298591.264103","299357.960071","300124.705135","303974.742716","304741.420858","305508.094032","306274.822146","307041.915553","307791.486553","308558.268438","309324.867676","310096.694413"
"Blocked","Female","cave","10","F_cave.wav","space","106.926728512","410","303208.013141","310091.562183","310858.259904","311608.268379","297824.581578","298591.264103","299357.960071","300124.705135","303974.742716","304741.420858","305508.094032","306274.822146","307041.915553","307791.486553","308558.268438","309324.867676","310863.514581"
"Blocked","Female","cave","10","F_cling.wav","None","743.107053851","410","303208.013141","310091.562183","310858.259904","311608.268379","312374.944183","298591.264103","299357.960071","300124.705135","303974.742716","304741.420858","305508.094032","306274.822146","307041.915553","307791.486553","308558.268438","309324.867676","311613.315862"
"Blocked","Female","cave","10","F_gnash.wav","space","270.393617121","410","303208.013141","310091.562183","310858.259904","311608.268379","312374.944183","313141.625539","299357.960071","300124.705135","303974.742716","304741.420858","305508.094032","306274.822146","307041.915553","307791.486553","308558.268438","309324.867676","312380.028779"
"Blocked","Female","cave","10","F_cave.wav","None","736.549008973","410","303208.013141","310091.562183","310858.259904","311608.268379","312374.944183","313141.625539","313908.339334","300124.705135","303974.742716","304741.420858","305508.094032","306274.822146","307041.915553","307791.486553","308558.268438","309324.867676","313146.768875"
"Blocked","Female","cave","10","F_cling.wav","None","734.419492774","410","303208.013141","310091.562183","310858.259904","311608.268379","312374.944183","313141.625539","313908.339334","314674.985622","303974.742716","304741.420858","305508.094032","306274.822146","307041.915553","307791.486553","308558.268438","309324.867676","313913.303821"
"Blocked","Female","done","21","F_lash.wav","space","2.28352402657","410","317775.092755","310091.562183","310858.259904","311608.268379","312374.944183","313141.625539","313908.339334","314674.985622","303974.742716","304741.420858","305508.094032","306274.822146","307041.915553","307791.486553","308558.268438","309324.867676","314680.125158"
"Blocked","Female","done","21","F_cling.wav","None","740.677996811","410","317775.092755","310091.562183","310858.259904","311608.268379","312374.944183","313141.625539","313908.339334","314674.985622","318541.728815","304741.420858","305508.094032","306274.822146","307041.915553","307791.486553","308558.268438","309324.867676","317780.222648"
"Blocked","Female","done","21","F_done.wav","None","738.26881175","410","317775.092755","310091.562183","310858.259904","311608.268379","312374.944183","313141.625539","313908.339334","314674.985622","318541.728815","319308.480016","305508.094032","306274.822146","307041.915553","307791.486553","308558.268438","309324.867676","318546.85637"
"Blocked","Female","done","21","F_gnash.wav","space","464.736591091","410","317775.092755","310091.562183","310858.259904","311608.268379","312374.944183","313141.625539","313908.339334","314674.985622","318541.728815","319308.480016","320075.131856","306274.822146","307041.915553","307791.486553","308558.268438","309324.867676","319313.641178"
"Blocked","Female","done","21","F_jaw.wav","None","731.730346614","410","317775.092755","310091.562183","310858.259904","311608.268379","312374.944183","313141.625539","313908.339334","314674.985622","318541.728815","319308.480016","320075.131856","320841.811459","307041.915553","307791.486553","308558.268438","309324.867676","320080.24363"
"Blocked","Female","done","21","F_dime.wav","None","729.380193015","410","317775.092755","310091.562183","310858.259904","311608.268379","312374.944183","313141.625539","313908.339334","314674.985622","318541.728815","319308.480016","320075.131856","320841.811459","321591.814089","307791.486553","308558.268438","309324.867676","320846.867124"
"Blocked","Female","done","21","F_done.wav","None","743.611451402","410","317775.092755","310091.562183","310858.259904","311608.268379","312374.944183","313141.625539","313908.339334","314674.985622","318541.728815","319308.480016","320075.131856","320841.811459","321591.814089","322358.489601","308558.268438","309324.867676","321596.913882"
"Blocked","Female","done","21","F_dime.wav","space","622.553701097","410","317775.092755","310091.562183","310858.259904","311608.268379","312374.944183","313141.625539","313908.339334","314674.985622","318541.728815","319308.480016","320075.131856","320841.811459","321591.814089","322358.489601","323125.276162","309324.867676","322363.774378"
"Blocked","Female","done","21","F_done.wav","None","737.147506184","410","317775.092755","310091.562183","310858.259904","311608.268379","312374.944183","313141.625539","313908.339334","314674.985622","318541.728815","319308.480016","320075.131856","320841.811459","321591.814089","322358.489601","323125.276162","323891.87014","323130.391735"
"Blocked","Female","done","21","F_greet.wav","space","545.377953327","410","317775.092755","324658.555003","310858.259904","311608.268379","312374.944183","313141.625539","313908.339334","314674.985622","318541.728815","319308.480016","320075.131856","320841.811459","321591.814089","322358.489601","323125.276162","323891.87014","323896.919376"
"Blocked","Female","done","21","F_knife.wav","None","730.880235097","410","317775.092755","324658.555003","325425.663607","311608.268379","312374.944183","313141.625539","313908.339334","314674.985622","318541.728815","319308.480016","320075.131856","320841.811459","321591.814089","322358.489601","323125.276162","323891.87014","324663.733115"
"Blocked","Female","done","21","F_done.wav","None","727.686399151","410","317775.092755","324658.555003","325425.663607","326175.326076","312374.944183","313141.625539","313908.339334","314674.985622","318541.728815","319308.480016","320075.131856","320841.811459","321591.814089","322358.489601","323125.276162","323891.87014","325431.135122"
"Blocked","Female","done","21","F_cling.wav","space","678.018144285","410","317775.092755","324658.555003","325425.663607","326175.326076","326941.982592","313141.625539","313908.339334","314674.985622","318541.728815","319308.480016","320075.131856","320841.811459","321591.814089","322358.489601","323125.276162","323891.87014","326180.29144"
"Blocked","Female","done","21","F_lash.wav","None","738.624169469","410","317775.092755","324658.555003","325425.663607","326175.326076","326941.982592","327708.677976","313908.339334","314674.985622","318541.728815","319308.480016","320075.131856","320841.811459","321591.814089","322358.489601","323125.276162","323891.87014","326947.117453"
"Blocked","Female","done","21","F_lash.wav","None","736.120008042","410","317775.092755","324658.555003","325425.663607","326175.326076","326941.982592","327708.677976","328475.342675","314674.985622","318541.728815","319308.480016","320075.131856","320841.811459","321591.814089","322358.489601","323125.276162","323891.87014","327713.771047"
"Blocked","Female","done","21","F_romp.wav","None","733.665526561","410","317775.092755","324658.555003","325425.663607","326175.326076","326941.982592","327708.677976","328475.342675","329242.051501","318541.728815","319308.480016","320075.131856","320841.811459","321591.814089","322358.489601","323125.276162","323891.87014","328480.728565"
"Blocked","Female","tile","16","F_depth.wav","None","731.531919072","410","332342.161849","324658.555003","325425.663607","326175.326076","326941.982592","327708.677976","328475.342675","329242.051501","318541.728815","319308.480016","320075.131856","320841.811459","321591.814089","322358.489601","323125.276162","323891.87014","329247.080573"
"Blocked","Female","tile","16","F_tile.wav","None","740.812717131","410","332342.161849","324658.555003","325425.663607","326175.326076","326941.982592","327708.677976","328475.342675","329242.051501","333108.799078","319308.480016","320075.131856","320841.811459","321591.814089","322358.489601","323125.276162","323891.87014","332347.041004"
"Blocked","Female","tile","16","F_reek.wav","None","738.00170899","410","332342.161849","324658.555003","325425.663607","326175.326076","326941.982592","327708.677976","328475.342675","329242.051501","333108.799078","333875.440106","320075.131856","320841.811459","321591.814089","322358.489601","323125.276162","323891.87014","333114.157206"
"Blocked","Female","tile","16","F_tile.wav","None","736.213523232","410","332342.161849","324658.555003","325425.663607","326175.326076","326941.982592","327708.677976","328475.342675","329242.051501","333108.799078","333875.440106","334642.221114","320841.811459","321591.814089","322358.489601","323125.276162","323891.87014","333880.496647"
"Blocked","Female","tile","16","F_dime.wav","None","734.054783536","410","332342.161849","324658.555003","325425.663607","326175.326076","326941.982592","327708.677976","328475.342675","329242.051501","333108.799078","333875.440106","334642.221114","335408.822983","321591.814089","322358.489601","323125.276162","323891.87014","334647.114297"
"Blocked","Female","tile","16","F_dime.wav","space","68.2882979768","410","332342.161849","324658.555003","325425.663607","326175.326076","326941.982592","327708.677976","328475.342675","329242.051501","333108.799078","333875.440106","334642.221114","335408.822983","336175.769104","322358.489601","323125.276162","323891.87014","335413.956674"
"Blocked","Female","tile","16","F_tile.wav","space","0.0210409175488","410","332342.161849","324658.555003","325425.663607","326175.326076","326941.982592","327708.677976","328475.342675","329242.051501","333108.799078","333875.440106","334642.221114","335408.822983","336175.769104","336925.513106","323125.276162","323891.87014","336181.399595"
"Blocked","Female","tile","16","F_depth.wav","None","740.382839495","410","332342.161849","324658.555003","325425.663607","326175.326076","326941.982592","327708.677976","328475.342675","329242.051501","333108.799078","333875.440106","334642.221114","335408.822983","336175.769104","336925.513106","337692.176052","323891.87014","336930.933188"
"Blocked","Female","tile","16","F_reek.wav","space","9.02509246318","410","332342.161849","324658.555003","325425.663607","326175.326076","326941.982592","327708.677976","328475.342675","329242.051501","333108.799078","333875.440106","334642.221114","335408.822983","336175.769104","336925.513106","337692.176052","338458.955891","337697.146384"
"Blocked","Female","tile","16","F_tile.wav","space","0.0338992563193","410","332342.161849","339225.583184","325425.663607","326175.326076","326941.982592","327708.677976","328475.342675","329242.051501","333108.799078","333875.440106","334642.221114","335408.822983","336175.769104","336925.513106","337692.176052","338458.955891","338464.043994"
"Blocked","Female","tile","16","F_depth.wav","space","595.383447344","410","332342.161849","339225.583184","339992.653505","326175.326076","326941.982592","327708.677976","328475.342675","329242.051501","333108.799078","333875.440106","334642.221114","335408.822983","336175.769104","336925.513106","337692.176052","338458.955891","339230.767432"
"Blocked","Female","tile","16","F_park.wav","None","726.196293058","410","332342.161849","339225.583184","339992.653505","340742.284412","326941.982592","327708.677976","328475.342675","329242.051501","333108.799078","333875.440106","334642.221114","335408.822983","336175.769104","336925.513106","337692.176052","338458.955891","339998.313804"
"Blocked","Female","tile","16","F_priest.wav","None","741.712508592","410","332342.161849","339225.583184","339992.653505","340742.284412","341508.982426","327708.677976","328475.342675","329242.051501","333108.799078","333875.440106","334642.221114","335408.822983","336175.769104","336925.513106","337692.176052","338458.955891","340747.308224"
"Blocked","Female","tile","16","F_jolt.wav","None","739.464052761","410","332342.161849","339225.583184","339992.653505","340742.284412","341508.982426","342275.616733","328475.342675","329242.051501","333108.799078","333875.440106","334642.221114","335408.822983","336175.769104","336925.513106","337692.176052","338458.955891","341514.057963"
"Blocked","Female","tile","16","F_bluff.wav","None","737.869618785","410","332342.161849","339225.583184","339992.653505","340742.284412","341508.982426","342275.616733","343042.353614","329242.051501","333108.799078","333875.440106","334642.221114","335408.822983","336175.769104","336925.513106","337692.176052","338458.955891","342280.716233"
"Blocked","Female","tile","16","F_cling.wav","None","735.693929462","410","332342.161849","339225.583184","339992.653505","340742.284412","341508.982426","342275.616733","343042.353614","343809.018605","333108.799078","333875.440106","334642.221114","335408.822983","336175.769104","336925.513106","337692.176052","338458.955891","343047.380932"
"Blocked","Female","done","20","F_depth.wav","None","733.507719679","410","346909.121062","339225.583184","339992.653505","340742.284412","341508.982426","342275.616733","343042.353614","343809.018605","333108.799078","333875.440106","334642.221114","335408.822983","336175.769104","336925.513106","337692.176052","338458.955891","343814.077777"
"Blocked","Female","done","20","F_priest.wav","None","740.523988984","410","346909.121062","339225.583184","339992.653505","340742.284412","341508.982426","342275.616733","343042.353614","343809.018605","347675.770273","333875.440106","334642.221114","335408.822983","336175.769104","336925.513106","337692.176052","338458.955891","346914.141659"
"Blocked","Female","done","20","F_cad.wav","None","738.225560974","410","346909.121062","339225.583184","339992.653505","340742.284412","341508.982426","342275.616733","343042.353614","343809.018605","347675.770273","348442.461857","334642.221114","335408.822983","336175.769104","336925.513106","337692.176052","338458.955891","347680.905134"
"Blocked","Female","done","20","F_cad.wav","None","736.140756725","410","346909.121062","339225.583184","339992.653505","340742.284412","341508.982426","342275.616733","343042.353614","343809.018605","347675.770273","348442.461857","349209.175944","335408.822983","336175.769104","336925.513106","337692.176052","338458.955891","348447.465505"
"Blocked","Female","done","20","F_done.wav","None","733.49603028","410","346909.121062","339225.583184","339992.653505","340742.284412","341508.982426","342275.616733","343042.353614","343809.018605","347675.770273","348442.461857","349209.175944","349975.876004","336175.769104","336925.513106","337692.176052","338458.955891","349214.535241"
"Blocked","Female","done","20","F_knife.wav","space","173.109473556","410","346909.121062","339225.583184","339992.653505","340742.284412","341508.982426","342275.616733","343042.353614","343809.018605","347675.770273","348442.461857","349209.175944","349975.876004","350742.690619","336925.513106","337692.176052","338458.955891","349981.018462"
"Blocked","Female","done","20","F_gnash.wav","None","727.339516246","410","346909.121062","339225.583184","339992.653505","340742.284412","341508.982426","342275.616733","343042.353614","343809.018605","347675.770273","348442.461857","349209.175944","349975.876004","350742.690619","351492.520538","337692.176052","338458.955891","350747.901461"
"Blocked","Female","done","20","F_priest.wav","None","741.90070791","410","346909.121062","339225.583184","339992.653505","340742.284412","341508.982426","342275.616733","343042.353614","343809.018605","347675.770273","348442.461857","349209.175944","349975.876004","350742.690619","351492.520538","352259.219721","338458.955891","351497.881004"
"Blocked","Female","done","20","F_done.wav","None","739.784342284","410","346909.121062","339225.583184","339992.653505","340742.284412","341508.982426","342275.616733","343042.353614","343809.018605","347675.770273","348442.461857","349209.175944","349975.876004","350742.690619","351492.520538","352259.219721","353025.924456","352264.371823"
"Blocked","Female","done","20","F_greet.wav","None","737.48211522","410","346909.121062","353792.598799","339992.653505","340742.284412","341508.982426","342275.616733","343042.353614","343809.018605","347675.770273","348442.461857","349209.175944","349975.876004","350742.690619","351492.520538","352259.219721","353025.924456","353031.063116"
"Blocked","Female","done","20","F_depth.wav","space","716.255628446","410","346909.121062","353792.598799","354559.273142","340742.284412","341508.982426","342275.616733","343042.353614","343809.018605","347675.770273","348442.461857","349209.175944","349975.876004","350742.690619","351492.520538","352259.219721","353025.924456","353797.789476"
"Blocked","Female","done","20","F_bluff.wav","None","731.280889236","410","346909.121062","353792.598799","354559.273142","355326.019082","341508.982426","342275.616733","343042.353614","343809.018605","347675.770273","348442.461857","349209.175944","349975.876004","350742.690619","351492.520538","352259.219721","353025.924456","354564.362706"
"Blocked","Female","done","20","F_done.wav","None","729.187610173","410","346909.121062","353792.598799","354559.273142","355326.019082","356076.03983","342275.616733","343042.353614","343809.018605","347675.770273","348442.461857","349209.175944","349975.876004","350742.690619","351492.520538","352259.219721","353025.924456","355330.952885"
"Blocked","Female","done","20","F_priest.wav","None","743.449260996","410","346909.121062","353792.598799","354559.273142","355326.019082","356076.03983","356842.664201","343042.353614","343809.018605","347675.770273","348442.461857","349209.175944","349975.876004","350742.690619","351492.520538","352259.219721","353025.924456","356081.141376"
"Blocked","Female","done","20","F_done.wav","space","26.1380798524","410","346909.121062","353792.598799","354559.273142","355326.019082","356076.03983","356842.664201","357609.399329","343809.018605","347675.770273","348442.461857","349209.175944","349975.876004","350742.690619","351492.520538","352259.219721","353025.924456","356847.925307"
"Blocked","Female","done","20","F_romp.wav","None","737.435065391","410","346909.121062","353792.598799","354559.273142","355326.019082","356076.03983","356842.664201","357609.399329","358376.009087","347675.770273","348442.461857","349209.175944","349975.876004","350742.690619","351492.520538","352259.219721","353025.924456","357614.605787"
"Blocked","Female","done","23","F_gnash.wav","space","68.6252448927","410","361476.114467","353792.598799","354559.273142","355326.019082","356076.03983","356842.664201","357609.399329","358376.009087","347675.770273","348442.461857","349209.175944","349975.876004","350742.690619","351492.520538","352259.219721","353025.924456","358381.415142"
"Blocked","Female","done","23","F_park.wav","None","740.337835311","410","361476.114467","353792.598799","354559.273142","355326.019082","356076.03983","356842.664201","357609.399329","358376.009087","362242.78881","348442.461857","349209.175944","349975.876004","350742.690619","351492.520538","352259.219721","353025.924456","361481.259848"
"Blocked","Female","done","23","F_done.wav","None","738.247186362","410","361476.114467","353792.598799","354559.273142","355326.019082","356076.03983","356842.664201","357609.399329","358376.009087","362242.78881","363009.473089","349209.175944","349975.876004","350742.690619","351492.520538","352259.219721","353025.924456","362247.840968"
"Blocked","Female","done","23","F_park.wav","space","595.079230744","410","361476.114467","353792.598799","354559.273142","355326.019082","356076.03983","356842.664201","357609.399329","358376.009087","362242.78881","363009.473089","363776.152984","349975.876004","350742.690619","351492.520538","352259.219721","353025.924456","363014.915673"
