Condition,Talker,Target,Trial,current_stimulus,response_response,response_time_response,subject_nr,time_Audio1,time_Audio10,time_Audio11,time_Audio12,time_Audio13,time_Audio14,time_Audio15,time_Audio16,time_Audio2,time_Audio3,time_Audio4,time_Audio5,time_Audio6,time_Audio7,time_Audio8,time_Audio9,time_response,title
Blocked,Female,tile,13,F_gnash.wav,NA,NA,102,183265.8801,NA,NA,NA,NA,NA,NA,NA,NA,NA,NA,NA,NA,NA,NA,NA,NA,Mapping
Blocked,Female,tile,13,F_jaw.wav,None,714.9546305,102,183265.8801,NA,NA,NA,NA,NA,NA,NA,184015.4104,NA,NA,NA,NA,NA,NA,NA,183280.6292,Mapping
Blocked,Female,tile,13,F_greet.wav,None,733.8929764,102,183265.8801,NA,NA,NA,NA,NA,NA,NA,184015.4104,184781.896,NA,NA,NA,NA,NA,NA,184025.5188,Mapping
Blocked,Female,tile,13,F_priest.wav,None,731.7717455,102,183265.8801,NA,NA,NA,NA,NA,NA,NA,184015.4104,184781.896,185548.5377,NA,NA,NA,NA,NA,184791.2877,Mapping
Blocked,Female,tile,13,F_jaw.wav,None,729.0615417,102,183265.8801,NA,NA,NA,NA,NA,NA,NA,184015.4104,184781.896,185548.5377,186315.2407,NA,NA,NA,NA,185557.8775,Mapping
Blocked,Female,tile,13,F_tile.wav,None,725.4071257,102,183265.8801,NA,NA,NA,NA,NA,NA,NA,184015.4104,184781.896,185548.5377,186315.2407,187082.2692,NA,NA,NA,186325.1911,Mapping
Blocked,Female,tile,13,F_romp.wav,space,481.0485144,102,183265.8801,NA,NA,NA,NA,NA,NA,NA,184015.4104,184781.896,185548.5377,186315.2407,187082.2692,187832.1532,NA,NA,187092.6877,Mapping
Blocked,Female,tile,13,F_tile.wav,None,736.3079207,102,183265.8801,NA,NA,NA,NA,NA,NA,NA,184015.4104,184781.896,185548.5377,186315.2407,187082.2692,187832.1532,188598.5411,NA,187841.5322,Mapping
Blocked,Female,tile,13,F_ball.wav,space,605.738917,102,183265.8801,NA,NA,NA,NA,NA,NA,NA,184015.4104,184781.896,185548.5377,186315.2407,187082.2692,187832.1532,188598.5411,189365.359,188607.9851,Mapping
Blocked,Female,tile,13,F_park.wav,None,730.2564924,102,183265.8801,190131.9223,NA,NA,NA,NA,NA,NA,184015.4104,184781.896,185548.5377,186315.2407,187082.2692,187832.1532,188598.5411,189365.359,189375.183,Mapping
Blocked,Female,tile,13,F_tile.wav,None,728.3108714,102,183265.8801,190131.9223,190899.1842,NA,NA,NA,NA,NA,184015.4104,184781.896,185548.5377,186315.2407,187082.2692,187832.1532,188598.5411,189365.359,190140.9417,Mapping
Blocked,Female,tile,13,F_priest.wav,space,593.0801686,102,183265.8801,190131.9223,190899.1842,191665.9137,NA,NA,NA,NA,184015.4104,184781.896,185548.5377,186315.2407,187082.2692,187832.1532,188598.5411,189365.359,190908.5499,Mapping
Blocked,Female,tile,13,F_tile.wav,None,721.0165707,102,183265.8801,190131.9223,190899.1842,191665.9137,192415.3955,NA,NA,NA,184015.4104,184781.896,185548.5377,186315.2407,187082.2692,187832.1532,188598.5411,189365.359,191675.8289,Mapping
Blocked,Female,tile,13,F_priest.wav,space,573.0563191,102,183265.8801,190131.9223,190899.1842,191665.9137,192415.3955,193182.1921,NA,NA,184015.4104,184781.896,185548.5377,186315.2407,187082.2692,187832.1532,188598.5411,189365.359,192424.5538,Mapping
Blocked,Female,tile,13,F_knife.wav,None,732.074116,102,183265.8801,190131.9223,190899.1842,191665.9137,192415.3955,193182.1921,193948.8904,NA,184015.4104,184781.896,185548.5377,186315.2407,187082.2692,187832.1532,188598.5411,189365.359,193192.1849,Mapping
Blocked,Female,tile,13,F_depth.wav,None,730.5832874,102,183265.8801,190131.9223,190899.1842,191665.9137,192415.3955,193182.1921,193948.8904,194715.5693,184015.4104,184781.896,185548.5377,186315.2407,187082.2692,187832.1532,188598.5411,189365.359,193957.6539,Mapping
Blocked,Female,done,22,F_priest.wav,None,727.4297305,102,197865.3787,190131.9223,190899.1842,191665.9137,192415.3955,193182.1921,193948.8904,194715.5693,184015.4104,184781.896,185548.5377,186315.2407,187082.2692,187832.1532,188598.5411,189365.359,194724.7495,Mapping
Blocked,Female,done,22,F_done.wav,None,720.300837,102,197865.3787,190131.9223,190899.1842,191665.9137,192415.3955,193182.1921,193948.8904,194715.5693,198631.8108,184781.896,185548.5377,186315.2407,187082.2692,187832.1532,188598.5411,189365.359,197874.6913,Mapping
Blocked,Female,done,22,F_ball.wav,space,404.8106583,102,197865.3787,190131.9223,190899.1842,191665.9137,192415.3955,193182.1921,193948.8904,194715.5693,198631.8108,199382.0002,185548.5377,186315.2407,187082.2692,187832.1532,188598.5411,189365.359,198640.6738,Mapping
Blocked,Female,done,22,F_done.wav,None,734.2284282,102,197865.3787,190131.9223,190899.1842,191665.9137,192415.3955,193182.1921,193948.8904,194715.5693,198631.8108,199382.0002,200149.1098,186315.2407,187082.2692,187832.1532,188598.5411,189365.359,199391.2222,Mapping
Blocked,Female,done,22,F_priest.wav,space,382.8340768,102,197865.3787,190131.9223,190899.1842,191665.9137,192415.3955,193182.1921,193948.8904,194715.5693,198631.8108,199382.0002,200149.1098,200915.553,187082.2692,187832.1532,188598.5411,189365.359,200158.6282,Mapping
Blocked,Female,done,22,F_priest.wav,None,727.897199,102,197865.3787,190131.9223,190899.1842,191665.9137,192415.3955,193182.1921,193948.8904,194715.5693,198631.8108,199382.0002,200149.1098,200915.553,201682.1258,187832.1532,188598.5411,189365.359,200924.9441,Mapping
Blocked,Female,done,22,F_tile.wav,None,725.1542228,102,197865.3787,190131.9223,190899.1842,191665.9137,192415.3955,193182.1921,193948.8904,194715.5693,198631.8108,199382.0002,200149.1098,200915.553,201682.1258,202449.2072,188598.5411,189365.359,201691.6029,Mapping
Blocked,Female,done,22,F_done.wav,None,721.650683,102,197865.3787,190131.9223,190899.1842,191665.9137,192415.3955,193182.1921,193948.8904,194715.5693,198631.8108,199382.0002,200149.1098,200915.553,201682.1258,202449.2072,203215.5391,189365.359,202459.0549,Mapping
Blocked,Female,done,22,F_gnash.wav,space,347.4595163,102,197865.3787,190131.9223,190899.1842,191665.9137,192415.3955,193182.1921,193948.8904,194715.5693,198631.8108,199382.0002,200149.1098,200915.553,201682.1258,202449.2072,203215.5391,203965.1414,203225.8837,Mapping
Blocked,Female,done,22,F_jolt.wav,None,733.5757656,102,197865.3787,204731.9739,190899.1842,191665.9137,192415.3955,193182.1921,193948.8904,194715.5693,198631.8108,199382.0002,200149.1098,200915.553,201682.1258,202449.2072,203215.5391,203965.1414,203974.3644,Mapping
Blocked,Female,done,22,F_priest.wav,None,730.2107349,102,197865.3787,204731.9739,205498.4694,191665.9137,192415.3955,193182.1921,193948.8904,194715.5693,198631.8108,199382.0002,200149.1098,200915.553,201682.1258,202449.2072,203215.5391,203965.1414,204741.571,Mapping
Blocked,Female,done,22,F_jolt.wav,None,728.008501,102,197865.3787,204731.9739,205498.4694,206265.3724,192415.3955,193182.1921,193948.8904,194715.5693,198631.8108,199382.0002,200149.1098,200915.553,201682.1258,202449.2072,203215.5391,203965.1414,205507.4716,Mapping
Blocked,Female,done,22,F_done.wav,None,724.5139271,102,197865.3787,204731.9739,205498.4694,206265.3724,207032.4309,193182.1921,193948.8904,194715.5693,198631.8108,199382.0002,200149.1098,200915.553,201682.1258,202449.2072,203215.5391,203965.1414,206274.9911,Mapping
Blocked,Female,done,22,F_gnash.wav,space,378.8748171,102,197865.3787,204731.9739,205498.4694,206265.3724,207032.4309,207781.4764,193948.8904,194715.5693,198631.8108,199382.0002,200149.1098,200915.553,201682.1258,202449.2072,203215.5391,203965.1414,207042.428,Mapping
Blocked,Female,done,22,F_knife.wav,None,736.1459144,102,197865.3787,204731.9739,205498.4694,206265.3724,207032.4309,207781.4764,208548.8014,194715.5693,198631.8108,199382.0002,200149.1098,200915.553,201682.1258,202449.2072,203215.5391,203965.1414,207790.5692,Mapping
Blocked,Female,done,22,F_jolt.wav,None,732.4055486,102,197865.3787,204731.9739,205498.4694,206265.3724,207032.4309,207781.4764,208548.8014,209315.6407,198631.8108,199382.0002,200149.1098,200915.553,201682.1258,202449.2072,203215.5391,203965.1414,208558.046,Mapping
Blocked,Female,tile,14,F_park.wav,None,728.9016997,102,212449.167,204731.9739,205498.4694,206265.3724,207032.4309,207781.4764,208548.8014,209315.6407,198631.8108,199382.0002,200149.1098,200915.553,201682.1258,202449.2072,203215.5391,203965.1414,209325.3441,Mapping
Blocked,Female,tile,14,F_lash.wav,None,720.2056119,102,212449.167,204731.9739,205498.4694,206265.3724,207032.4309,207781.4764,208548.8014,209315.6407,213198.04,199382.0002,200149.1098,200915.553,201682.1258,202449.2072,203215.5391,203965.1414,212458.8617,Mapping
Blocked,Female,tile,14,F_romp.wav,None,734.5184318,102,212449.167,204731.9739,205498.4694,206265.3724,207032.4309,207781.4764,208548.8014,209315.6407,213198.04,213964.6659,200149.1098,200915.553,201682.1258,202449.2072,203215.5391,203965.1414,213208.3855,Mapping
Blocked,Female,tile,14,F_tile.wav,None,733.4595168,102,212449.167,204731.9739,205498.4694,206265.3724,207032.4309,207781.4764,208548.8014,209315.6407,213198.04,213964.6659,214731.8234,200915.553,201682.1258,202449.2072,203215.5391,203965.1414,213973.4158,Mapping
Blocked,Female,tile,14,F_cling.wav,space,487.9096648,102,212449.167,204731.9739,205498.4694,206265.3724,207032.4309,207781.4764,208548.8014,209315.6407,213198.04,213964.6659,214731.8234,215498.2574,201682.1258,202449.2072,203215.5391,203965.1414,214741.2769,Mapping
Blocked,Female,tile,14,F_jolt.wav,None,727.2238219,102,212449.167,204731.9739,205498.4694,206265.3724,207032.4309,207781.4764,208548.8014,209315.6407,213198.04,213964.6659,214731.8234,215498.2574,216265.4343,202449.2072,203215.5391,203965.1414,215507.2886,Mapping
Blocked,Female,tile,14,F_lash.wav,None,722.8617106,102,212449.167,204731.9739,205498.4694,206265.3724,207032.4309,207781.4764,208548.8014,209315.6407,213198.04,213964.6659,214731.8234,215498.2574,216265.4343,217032.1483,203215.5391,203965.1414,216275.696,Mapping
Blocked,Female,tile,14,F_cling.wav,None,720.7967492,102,212449.167,204731.9739,205498.4694,206265.3724,207032.4309,207781.4764,208548.8014,209315.6407,213198.04,213964.6659,214731.8234,215498.2574,216265.4343,217032.1483,217781.3083,203965.1414,217041.8125,Mapping
Blocked,Female,tile,14,F_depth.wav,None,736.0043136,102,212449.167,204731.9739,205498.4694,206265.3724,207032.4309,207781.4764,208548.8014,209315.6407,213198.04,213964.6659,214731.8234,215498.2574,216265.4343,217032.1483,217781.3083,218548.0332,217790.5856,Mapping
Blocked,Female,tile,14,F_tile.wav,None,733.6728456,102,212449.167,219314.9445,205498.4694,206265.3724,207032.4309,207781.4764,208548.8014,209315.6407,213198.04,213964.6659,214731.8234,215498.2574,216265.4343,217032.1483,217781.3083,218548.0332,218556.847,Mapping
Blocked,Female,tile,14,F_priest.wav,space,424.398575,102,212449.167,219314.9445,220081.3602,206265.3724,207032.4309,207781.4764,208548.8014,209315.6407,213198.04,213964.6659,214731.8234,215498.2574,216265.4343,217032.1483,217781.3083,218548.0332,219324.6012,Mapping
Blocked,Female,tile,14,F_cave.wav,None,727.728391,102,212449.167,219314.9445,220081.3602,220848.7737,207032.4309,207781.4764,208548.8014,209315.6407,213198.04,213964.6659,214731.8234,215498.2574,216265.4343,217032.1483,217781.3083,218548.0332,220090.1605,Mapping
Blocked,Female,tile,14,F_tile.wav,None,723.0598901,102,212449.167,219314.9445,220081.3602,220848.7737,221615.3022,207781.4764,208548.8014,209315.6407,213198.04,213964.6659,214731.8234,215498.2574,216265.4343,217032.1483,217781.3083,218548.0332,220858.7689,Mapping
Blocked,Female,tile,14,F_greet.wav,space,443.5734375,102,212449.167,219314.9445,220081.3602,220848.7737,221615.3022,222364.7172,208548.8014,209315.6407,213198.04,213964.6659,214731.8234,215498.2574,216265.4343,217032.1483,217781.3083,218548.0332,221625.3983,Mapping
Blocked,Female,tile,14,F_tile.wav,None,735.6370169,102,212449.167,219314.9445,220081.3602,220848.7737,221615.3022,222364.7172,223131.627,209315.6407,213198.04,213964.6659,214731.8234,215498.2574,216265.4343,217032.1483,217781.3083,218548.0332,222374.1695,Mapping
Blocked,Female,tile,14,F_greet.wav,space,623.9210275,102,212449.167,219314.9445,220081.3602,220848.7737,221615.3022,222364.7172,223131.627,223898.3667,213198.04,213964.6659,214731.8234,215498.2574,216265.4343,217032.1483,217781.3083,218548.0332,223141.041,Mapping
Blocked,Female,cave,8,F_ball.wav,None,729.8851765,102,227031.9823,219314.9445,220081.3602,220848.7737,221615.3022,222364.7172,223131.627,223898.3667,213198.04,213964.6659,214731.8234,215498.2574,216265.4343,217032.1483,217781.3083,218548.0332,223907.7294,Mapping
Blocked,Female,cave,8,F_park.wav,None,721.0252275,102,227031.9823,219314.9445,220081.3602,220848.7737,221615.3022,222364.7172,223131.627,223898.3667,227781.5717,213964.6659,214731.8234,215498.2574,216265.4343,217032.1483,217781.3083,218548.0332,227041.7794,Mapping
Blocked,Female,cave,8,F_cave.wav,None,735.3102219,102,227031.9823,219314.9445,220081.3602,220848.7737,221615.3022,222364.7172,223131.627,223898.3667,227781.5717,228548.4236,214731.8234,215498.2574,216265.4343,217032.1483,217781.3083,218548.0332,227791.3174,Mapping
Blocked,Female,cave,8,F_cad.wav,space,487.1926944,102,227031.9823,219314.9445,220081.3602,220848.7737,221615.3022,222364.7172,223131.627,223898.3667,227781.5717,228548.4236,229314.7367,215498.2574,216265.4343,217032.1483,217781.3083,218548.0332,228557.6815,Mapping
Blocked,Female,cave,8,F_cave.wav,None,729.3172271,102,227031.9823,219314.9445,220081.3602,220848.7737,221615.3022,222364.7172,223131.627,223898.3667,227781.5717,228548.4236,229314.7367,230081.4873,216265.4343,217032.1483,217781.3083,218548.0332,229324.433,Mapping
Blocked,Female,cave,8,F_romp.wav,space,569.4575542,102,227031.9823,219314.9445,220081.3602,220848.7737,221615.3022,222364.7172,223131.627,223898.3667,227781.5717,228548.4236,229314.7367,230081.4873,230848.4883,217032.1483,217781.3083,218548.0332,230091.3047,Mapping
Blocked,Female,cave,8,F_jaw.wav,None,722.6561111,102,227031.9823,219314.9445,220081.3602,220848.7737,221615.3022,222364.7172,223131.627,223898.3667,227781.5717,228548.4236,229314.7367,230081.4873,230848.4883,231615.262,217781.3083,218548.0332,230858.371,Mapping
Blocked,Female,cave,8,F_cave.wav,None,720.0955466,102,227031.9823,219314.9445,220081.3602,220848.7737,221615.3022,222364.7172,223131.627,223898.3667,227781.5717,228548.4236,229314.7367,230081.4873,230848.4883,231615.262,232364.5515,218548.0332,231624.838,Mapping
Blocked,Female,cave,8,F_bluff.wav,space,526.7985864,102,227031.9823,219314.9445,220081.3602,220848.7737,221615.3022,222364.7172,223131.627,223898.3667,227781.5717,228548.4236,229314.7367,230081.4873,230848.4883,231615.262,232364.5515,233131.0618,232373.9262,Mapping
Blocked,Female,cave,8,F_jaw.wav,None,732.129767,102,227031.9823,233897.5079,220081.3602,220848.7737,221615.3022,222364.7172,223131.627,223898.3667,227781.5717,228548.4236,229314.7367,230081.4873,230848.4883,231615.262,232364.5515,233131.0618,233140.0637,Mapping
Blocked,Female,cave,8,F_bluff.wav,None,729.719151,102,227031.9823,233897.5079,234664.6529,220848.7737,221615.3022,222364.7172,223131.627,223898.3667,227781.5717,228548.4236,229314.7367,230081.4873,230848.4883,231615.262,232364.5515,233131.0618,233906.2995,Mapping
Blocked,Female,cave,8,F_cad.wav,None,725.5672769,102,227031.9823,233897.5079,234664.6529,235431.0909,221615.3022,222364.7172,223131.627,223898.3667,227781.5717,228548.4236,229314.7367,230081.4873,230848.4883,231615.262,232364.5515,233131.0618,234674.3804,Mapping
Blocked,Female,cave,8,F_done.wav,None,723.3338167,102,227031.9823,233897.5079,234664.6529,235431.0909,236198.0227,222364.7172,223131.627,223898.3667,227781.5717,228548.4236,229314.7367,230081.4873,230848.4883,231615.262,232364.5515,233131.0618,235440.5086,Mapping
Blocked,Female,cave,8,F_cave.wav,None,719.3185967,102,227031.9823,233897.5079,234664.6529,235431.0909,236198.0227,236948.4499,223131.627,223898.3667,227781.5717,228548.4236,229314.7367,230081.4873,230848.4883,231615.262,232364.5515,233131.0618,236208.3397,Mapping
Blocked,Female,cave,8,F_greet.wav,space,662.7654282,102,227031.9823,233897.5079,234664.6529,235431.0909,236198.0227,236948.4499,237714.7558,223898.3667,227781.5717,228548.4236,229314.7367,230081.4873,230848.4883,231615.262,232364.5515,233131.0618,236957.8821,Mapping
Blocked,Female,cave,8,F_park.wav,None,731.0501375,102,227031.9823,233897.5079,234664.6529,235431.0909,236198.0227,236948.4499,237714.7558,238481.2294,227781.5717,228548.4236,229314.7367,230081.4873,230848.4883,231615.262,232364.5515,233131.0618,237723.7543,Mapping
Blocked,Female,cave,9,F_greet.wav,None,728.1680339,102,241614.9992,233897.5079,234664.6529,235431.0909,236198.0227,236948.4499,237714.7558,238481.2294,227781.5717,228548.4236,229314.7367,230081.4873,230848.4883,231615.262,232364.5515,233131.0618,238490.4909,Mapping
Blocked,Female,cave,9,F_cad.wav,None,720.8075703,102,241614.9992,233897.5079,234664.6529,235431.0909,236198.0227,236948.4499,237714.7558,238481.2294,242364.3252,228548.4236,229314.7367,230081.4873,230848.4883,231615.262,232364.5515,233131.0618,241624.7054,Mapping
Blocked,Female,cave,9,F_lash.wav,None,735.5232416,102,241614.9992,233897.5079,234664.6529,235431.0909,236198.0227,236948.4499,237714.7558,238481.2294,242364.3252,243130.7326,229314.7367,230081.4873,230848.4883,231615.262,232364.5515,233131.0618,242373.826,Mapping
Blocked,Female,cave,9,F_cave.wav,None,733.6236873,102,241614.9992,233897.5079,234664.6529,235431.0909,236198.0227,236948.4499,237714.7558,238481.2294,242364.3252,243130.7326,243897.399,230081.4873,230848.4883,231615.262,232364.5515,233131.0618,243139.7143,Mapping
Blocked,Female,cave,9,F_knife.wav,space,554.013164,102,241614.9992,233897.5079,234664.6529,235431.0909,236198.0227,236948.4499,237714.7558,238481.2294,242364.3252,243130.7326,243897.399,244664.4464,230848.4883,231615.262,232364.5515,233131.0618,243906.5082,Mapping
Blocked,Female,cave,9,F_reek.wav,None,726.5674492,102,241614.9992,233897.5079,234664.6529,235431.0909,236198.0227,236948.4499,237714.7558,238481.2294,242364.3252,243130.7326,243897.399,244664.4464,245430.8912,231615.262,232364.5515,233131.0618,244674.1164,Mapping
Blocked,Female,cave,9,F_gnash.wav,None,724.9266721,102,241614.9992,233897.5079,234664.6529,235431.0909,236198.0227,236948.4499,237714.7558,238481.2294,242364.3252,243130.7326,243897.399,244664.4464,245430.8912,246198.1905,232364.5515,233131.0618,245439.6735,Mapping
Blocked,Female,cave,9,F_done.wav,None,720.7324414,102,241614.9992,233897.5079,234664.6529,235431.0909,236198.0227,236948.4499,237714.7558,238481.2294,242364.3252,243130.7326,243897.399,244664.4464,245430.8912,246198.1905,246948.0393,233131.0618,246207.8444,Mapping
Blocked,Female,cave,9,F_greet.wav,None,735.1714036,102,241614.9992,233897.5079,234664.6529,235431.0909,236198.0227,236948.4499,237714.7558,238481.2294,242364.3252,243130.7326,243897.399,244664.4464,245430.8912,246198.1905,246948.0393,247714.3388,246957.5309,Mapping
Blocked,Female,cave,9,F_greet.wav,None,732.6086748,102,241614.9992,248481.0034,234664.6529,235431.0909,236198.0227,236948.4499,237714.7558,238481.2294,242364.3252,243130.7326,243897.399,244664.4464,245430.8912,246198.1905,246948.0393,247714.3388,247723.7623,Mapping
Blocked,Female,cave,9,F_cave.wav,None,730.1603398,102,241614.9992,248481.0034,249247.7005,235431.0909,236198.0227,236948.4499,237714.7558,238481.2294,242364.3252,243130.7326,243897.399,244664.4464,245430.8912,246198.1905,246948.0393,247714.3388,248490.2149,Mapping
Blocked,Female,cave,9,F_knife.wav,None,727.2507199,102,241614.9992,248481.0034,249247.7005,250013.9548,236198.0227,236948.4499,237714.7558,238481.2294,242364.3252,243130.7326,243897.399,244664.4464,245430.8912,246198.1905,246948.0393,247714.3388,249257.0313,Mapping
Blocked,Female,cave,9,F_cave.wav,space,0.026897993,102,241614.9992,248481.0034,249247.7005,250013.9548,250781.6242,236948.4499,237714.7558,238481.2294,242364.3252,243130.7326,243897.399,244664.4464,245430.8912,246198.1905,246948.0393,247714.3388,250022.9081,Mapping
Blocked,Female,cave,9,F_gnash.wav,None,719.7650414,102,241614.9992,248481.0034,249247.7005,250013.9548,250781.6242,251530.7863,237714.7558,238481.2294,242364.3252,243130.7326,243897.399,244664.4464,245430.8912,246198.1905,246948.0393,247714.3388,250791.8928,Mapping
Blocked,Female,cave,9,F_cave.wav,None,735.6750451,102,241614.9992,248481.0034,249247.7005,250013.9548,250781.6242,251530.7863,252297.4951,238481.2294,242364.3252,243130.7326,243897.399,244664.4464,245430.8912,246198.1905,246948.0393,247714.3388,251540.0791,Mapping
Blocked,Female,cave,9,F_done.wav,space,601.5351021,102,241614.9992,248481.0034,249247.7005,250013.9548,250781.6242,251530.7863,252297.4951,253064.2679,242364.3252,243130.7326,243897.399,244664.4464,245430.8912,246198.1905,246948.0393,247714.3388,252306.8216,Mapping
Blocked,Female,done,24,F_bluff.wav,None,729.3704047,102,256198.2975,248481.0034,249247.7005,250013.9548,250781.6242,251530.7863,252297.4951,253064.2679,242364.3252,243130.7326,243897.399,244664.4464,245430.8912,246198.1905,246948.0393,247714.3388,253073.5966,Mapping
Blocked,Female,done,24,F_cad.wav,None,719.6537395,102,256198.2975,248481.0034,249247.7005,250013.9548,250781.6242,251530.7863,252297.4951,253064.2679,256947.2481,243130.7326,243897.399,244664.4464,245430.8912,246198.1905,246948.0393,247714.3388,256208.1852,Mapping
Blocked,Female,done,24,F_park.wav,None,734.5450206,102,256198.2975,248481.0034,249247.7005,250013.9548,250781.6242,251530.7863,252297.4951,253064.2679,256947.2481,257714.302,243897.399,244664.4464,245430.8912,246198.1905,246948.0393,247714.3388,256957.3704,Mapping
Blocked,Female,done,24,F_lash.wav,None,732.5418936,102,256198.2975,248481.0034,249247.7005,250013.9548,250781.6242,251530.7863,252297.4951,253064.2679,256947.2481,257714.302,258480.9471,244664.4464,245430.8912,246198.1905,246948.0393,247714.3388,257723.4346,Mapping
Blocked,Female,done,24,F_jaw.wav,None,729.2597211,102,256198.2975,248481.0034,249247.7005,250013.9548,250781.6242,251530.7863,252297.4951,253064.2679,256947.2481,257714.302,258480.9471,259247.3999,245430.8912,246198.1905,246948.0393,247714.3388,258490.7395,Mapping
Blocked,Female,done,24,F_done.wav,None,726.9396925,102,256198.2975,248481.0034,249247.7005,250013.9548,250781.6242,251530.7863,252297.4951,253064.2679,256947.2481,257714.302,258480.9471,259247.3999,260014.724,246198.1905,246948.0393,247714.3388,259257.0102,Mapping
Blocked,Female,done,24,F_park.wav,space,627.8005209,102,256198.2975,248481.0034,249247.7005,250013.9548,250781.6242,251530.7863,252297.4951,253064.2679,256947.2481,257714.302,258480.9471,259247.3999,260014.724,260780.6296,246948.0393,247714.3388,260024.3742,Mapping
Blocked,Female,done,24,F_greet.wav,None,721.7041698,102,256198.2975,248481.0034,249247.7005,250013.9548,250781.6242,251530.7863,252297.4951,253064.2679,256947.2481,257714.302,258480.9471,259247.3999,260014.724,260780.6296,261530.6036,247714.3388,260789.544,Mapping
Blocked,Female,done,24,F_tile.wav,None,735.0149624,102,256198.2975,248481.0034,249247.7005,250013.9548,250781.6242,251530.7863,252297.4951,253064.2679,256947.2481,257714.302,258480.9471,259247.3999,260014.724,260780.6296,261530.6036,262297.2765,261540.328,Mapping
Blocked,Female,done,24,F_done.wav,None,733.1936287,102,256198.2975,263064.0506,249247.7005,250013.9548,250781.6242,251530.7863,252297.4951,253064.2679,256947.2481,257714.302,258480.9471,259247.3999,260014.724,260780.6296,261530.6036,262297.2765,262306.3195,Mapping
Blocked,Female,done,24,F_cad.wav,space,538.2679491,102,256198.2975,263064.0506,263830.385,250013.9548,250781.6242,251530.7863,252297.4951,253064.2679,256947.2481,257714.302,258480.9471,259247.3999,260014.724,260780.6296,261530.6036,262297.2765,263073.8708,Mapping
Blocked,Female,done,24,F_done.wav,None,727.918841,102,256198.2975,263064.0506,263830.385,264597.8386,250781.6242,251530.7863,252297.4951,253064.2679,256947.2481,257714.302,258480.9471,259247.3999,260014.724,260780.6296,261530.6036,262297.2765,263839.343,Mapping
Blocked,Female,done,24,F_greet.wav,space,468.2302331,102,256198.2975,263064.0506,263830.385,264597.8386,265364.5475,251530.7863,252297.4951,253064.2679,256947.2481,257714.302,258480.9471,259247.3999,260014.724,260780.6296,261530.6036,262297.2765,264607.8651,Mapping
Blocked,Female,done,24,F_done.wav,None,720.8626029,102,256198.2975,263064.0506,263830.385,264597.8386,265364.5475,266113.9195,252297.4951,253064.2679,256947.2481,257714.302,258480.9471,259247.3999,260014.724,260780.6296,261530.6036,262297.2765,265374.2341,Mapping
Blocked,Female,done,24,F_ball.wav,space,384.1876329,102,256198.2975,263064.0506,263830.385,264597.8386,265364.5475,266113.9195,266880.679,253064.2679,256947.2481,257714.302,258480.9471,259247.3999,260014.724,260780.6296,261530.6036,262297.2765,266123.8584,Mapping
Blocked,Female,done,24,F_dime.wav,None,732.8241679,102,256198.2975,263064.0506,263830.385,264597.8386,265364.5475,266113.9195,266880.679,267647.2505,256947.2481,257714.302,258480.9471,259247.3999,260014.724,260780.6296,261530.6036,262297.2765,266890.2306,Mapping
Blocked,Female,ball,4,F_done.wav,space,451.3423177,102,270781.1908,263064.0506,263830.385,264597.8386,265364.5475,266113.9195,266880.679,267647.2505,256947.2481,257714.302,258480.9471,259247.3999,260014.724,260780.6296,261530.6036,262297.2765,267656.6583,Mapping
Blocked,Female,ball,4,F_reek.wav,None,719.4490674,102,270781.1908,263064.0506,263830.385,264597.8386,265364.5475,266113.9195,266880.679,267647.2505,271530.449,257714.302,258480.9471,259247.3999,260014.724,260780.6296,261530.6036,262297.2765,270791.0966,Mapping
Blocked,Female,ball,4,F_cling.wav,None,734.5802662,102,270781.1908,263064.0506,263830.385,264597.8386,265364.5475,266113.9195,266880.679,267647.2505,271530.449,272297.5492,258480.9471,259247.3999,260014.724,260780.6296,261530.6036,262297.2765,271540.1279,Mapping
Blocked,Female,ball,4,F_ball.wav,None,731.8422368,102,270781.1908,263064.0506,263830.385,264597.8386,265364.5475,266113.9195,266880.679,267647.2505,271530.449,272297.5492,273063.4743,259247.3999,260014.724,260780.6296,261530.6036,262297.2765,272307.0179,Mapping
Blocked,Female,ball,4,F_cad.wav,space,443.4213248,102,270781.1908,263064.0506,263830.385,264597.8386,265364.5475,266113.9195,266880.679,267647.2505,271530.449,272297.5492,273063.4743,273830.5903,260014.724,260780.6296,261530.6036,262297.2765,273072.4932,Mapping
Blocked,Female,ball,4,F_ball.wav,None,726.6240277,102,270781.1908,263064.0506,263830.385,264597.8386,265364.5475,266113.9195,266880.679,267647.2505,271530.449,272297.5492,273063.4743,273830.5903,274596.9773,260780.6296,261530.6036,262297.2765,273840.1057,Mapping
Blocked,Female,ball,4,F_knife.wav,space,477.0651392,102,270781.1908,263064.0506,263830.385,264597.8386,265364.5475,266113.9195,266880.679,267647.2505,271530.449,272297.5492,273063.4743,273830.5903,274596.9773,275364.293,261530.6036,262297.2765,274606.7904,Mapping
Blocked,Female,ball,4,F_park.wav,None,720.4464571,102,270781.1908,263064.0506,263830.385,264597.8386,265364.5475,266113.9195,266880.679,267647.2505,271530.449,272297.5492,273063.4743,273830.5903,274596.9773,275364.293,276113.6863,262297.2765,275373.9911,Mapping
Blocked,Female,ball,4,F_ball.wav,None,736.0098786,102,270781.1908,263064.0506,263830.385,264597.8386,265364.5475,266113.9195,266880.679,267647.2505,271530.449,272297.5492,273063.4743,273830.5903,274596.9773,275364.293,276113.6863,276880.129,276123.0332,Mapping
Blocked,Female,ball,4,F_jolt.wav,space,514.750144,102,270781.1908,277647.2419,263830.385,264597.8386,265364.5475,266113.9195,266880.679,267647.2505,271530.449,272297.5492,273063.4743,273830.5903,274596.9773,275364.293,276113.6863,276880.129,276889.0297,Mapping
Blocked,Female,ball,4,F_cave.wav,None,730.6432669,102,270781.1908,277647.2419,278413.8394,264597.8386,265364.5475,266113.9195,266880.679,267647.2505,271530.449,272297.5492,273063.4743,273830.5903,274596.9773,275364.293,276113.6863,276880.129,277656.5786,Mapping
Blocked,Female,ball,4,F_reek.wav,None,728.4874088,102,270781.1908,277647.2419,278413.8394,279180.385,265364.5475,266113.9195,266880.679,267647.2505,271530.449,272297.5492,273063.4743,273830.5903,274596.9773,275364.293,276113.6863,276880.129,278422.8756,Mapping
Blocked,Female,ball,4,F_lash.wav,None,727.7385936,102,270781.1908,277647.2419,278413.8394,279180.385,279947.459,266113.9195,266880.679,267647.2505,271530.449,272297.5492,273063.4743,273830.5903,274596.9773,275364.293,276113.6863,276880.129,279189.6837,Mapping
Blocked,Female,ball,4,F_ball.wav,None,724.413137,102,270781.1908,277647.2419,278413.8394,279180.385,279947.459,280713.3949,266880.679,267647.2505,271530.449,272297.5492,273063.4743,273830.5903,274596.9773,275364.293,276113.6863,276880.129,279957.2087,Mapping
Blocked,Female,ball,4,F_reek.wav,space,481.202173,102,270781.1908,277647.2419,278413.8394,279180.385,279947.459,280713.3949,281480.966,267647.2505,271530.449,272297.5492,273063.4743,273830.5903,274596.9773,275364.293,276113.6863,276880.129,280722.5631,Mapping
Blocked,Female,ball,4,F_done.wav,None,718.6789194,102,270781.1908,277647.2419,278413.8394,279180.385,279947.459,280713.3949,281480.966,282230.3197,271530.449,272297.5492,273063.4743,273830.5903,274596.9773,275364.293,276113.6863,276880.129,281490.7853,Mapping
Blocked,Female,tile,18,F_ball.wav,space,483.8873339,102,285363.4431,277647.2419,278413.8394,279180.385,279947.459,280713.3949,281480.966,282230.3197,271530.449,272297.5492,273063.4743,273830.5903,274596.9773,275364.293,276113.6863,276880.129,282239.8039,Mapping
Blocked,Female,tile,18,F_gnash.wav,None,721.8578284,102,285363.4431,277647.2419,278413.8394,279180.385,279947.459,280713.3949,281480.966,282230.3197,286113.6817,272297.5492,273063.4743,273830.5903,274596.9773,275364.293,276113.6863,276880.129,285372.6172,Mapping
Blocked,Female,tile,18,F_depth.wav,None,736.3221426,102,285363.4431,277647.2419,278413.8394,279180.385,279947.459,280713.3949,281480.966,282230.3197,286113.6817,286880.1587,273063.4743,273830.5903,274596.9773,275364.293,276113.6863,276880.129,286122.6162,Mapping
Blocked,Female,tile,18,F_ball.wav,None,733.4947624,102,285363.4431,277647.2419,278413.8394,279180.385,279947.459,280713.3949,281480.966,282230.3197,286113.6817,286880.1587,287646.729,273830.5903,274596.9773,275364.293,276113.6863,276880.129,286889.7077,Mapping
Blocked,Female,tile,18,F_tile.wav,None,731.731244,102,285363.4431,277647.2419,278413.8394,279180.385,279947.459,280713.3949,281480.966,282230.3197,286113.6817,286880.1587,287646.729,288413.6499,274596.9773,275364.293,276113.6863,276880.129,287655.9534,Mapping
Blocked,Female,tile,18,F_gnash.wav,space,620.8892845,102,285363.4431,277647.2419,278413.8394,279180.385,279947.459,280713.3949,281480.966,282230.3197,286113.6817,286880.1587,287646.729,288413.6499,289179.8393,275364.293,276113.6863,276880.129,288422.6978,Mapping
Blocked,Female,tile,18,F_dime.wav,None,727.0281158,102,285363.4431,277647.2419,278413.8394,279180.385,279947.459,280713.3949,281480.966,282230.3197,286113.6817,286880.1587,287646.729,288413.6499,289179.8393,289947.3736,276113.6863,276880.129,289188.651,Mapping
Blocked,Female,tile,18,F_reek.wav,None,723.5298319,102,285363.4431,277647.2419,278413.8394,279180.385,279947.459,280713.3949,281480.966,282230.3197,286113.6817,286880.1587,287646.729,288413.6499,289179.8393,289947.3736,290713.8976,276880.129,289956.7298,Mapping
Blocked,Female,tile,18,F_tile.wav,None,720.4180133,102,285363.4431,277647.2419,278413.8394,279180.385,279947.459,280713.3949,281480.966,282230.3197,286113.6817,286880.1587,287646.729,288413.6499,289179.8393,289947.3736,290713.8976,291480.7495,290724.2069,Mapping
Blocked,Female,tile,18,F_park.wav,space,520.969762,102,285363.4431,292229.8488,278413.8394,279180.385,279947.459,280713.3949,281480.966,282230.3197,286113.6817,286880.1587,287646.729,288413.6499,289179.8393,289947.3736,290713.8976,291480.7495,291490.5157,Mapping
Blocked,Female,tile,18,F_tile.wav,None,733.7501388,102,285363.4431,292229.8488,292996.7574,279180.385,279947.459,280713.3949,281480.966,282230.3197,286113.6817,286880.1587,287646.729,288413.6499,289179.8393,289947.3736,290713.8976,291480.7495,292238.9673,Mapping
Blocked,Female,tile,18,F_greet.wav,None,731.0860016,102,285363.4431,292229.8488,292996.7574,293762.7227,279947.459,280713.3949,281480.966,282230.3197,286113.6817,286880.1587,287646.729,288413.6499,289179.8393,289947.3736,290713.8976,291480.7495,293006.0554,Mapping
Blocked,Female,tile,18,F_depth.wav,space,31.94584046,102,285363.4431,292229.8488,292996.7574,293762.7227,294529.8486,280713.3949,281480.966,282230.3197,286113.6817,286880.1587,287646.729,288413.6499,289179.8393,289947.3736,290713.8976,291480.7495,293771.4487,Mapping
Blocked,Female,tile,18,F_knife.wav,None,729.2427166,102,285363.4431,292229.8488,292996.7574,293762.7227,294529.8486,295296.6199,281480.966,282230.3197,286113.6817,286880.1587,287646.729,288413.6499,289179.8393,289947.3736,290713.8976,291480.7495,294538.6711,Mapping
Blocked,Female,tile,18,F_tile.wav,None,726.4614031,102,285363.4431,292229.8488,292996.7574,293762.7227,294529.8486,295296.6199,296063.8948,282230.3197,286113.6817,286880.1587,287646.729,288413.6499,289179.8393,289947.3736,290713.8976,291480.7495,295305.9735,Mapping
Blocked,Female,tile,18,F_greet.wav,space,577.1472863,102,285363.4431,292229.8488,292996.7574,293762.7227,294529.8486,295296.6199,296063.8948,296830.4722,286113.6817,286880.1587,287646.729,288413.6499,289179.8393,289947.3736,290713.8976,291480.7495,296074.27,Mapping
Blocked,Female,ball,3,F_done.wav,None,720.8100436,102,299947.0552,292229.8488,292996.7574,293762.7227,294529.8486,295296.6199,296063.8948,296830.4722,286113.6817,286880.1587,287646.729,288413.6499,289179.8393,289947.3736,290713.8976,291480.7495,296839.5384,Mapping
Blocked,Female,ball,3,F_ball.wav,None,720.096165,102,299947.0552,292229.8488,292996.7574,293762.7227,294529.8486,295296.6199,296063.8948,296830.4722,300696.3069,286880.1587,287646.729,288413.6499,289179.8393,289947.3736,290713.8976,291480.7495,299957.0631,Mapping
Blocked,Female,ball,3,F_cling.wav,space,433.8153432,102,299947.0552,292229.8488,292996.7574,293762.7227,294529.8486,295296.6199,296063.8948,296830.4722,300696.3069,301463.4742,287646.729,288413.6499,289179.8393,289947.3736,290713.8976,291480.7495,300705.5097,Mapping
Blocked,Female,ball,3,F_bluff.wav,None,731.9600314,102,299947.0552,292229.8488,292996.7574,293762.7227,294529.8486,295296.6199,296063.8948,296830.4722,300696.3069,301463.4742,302229.9688,288413.6499,289179.8393,289947.3736,290713.8976,291480.7495,301473.2268,Mapping
Blocked,Female,ball,3,F_dime.wav,None,730.3362588,102,299947.0552,292229.8488,292996.7574,293762.7227,294529.8486,295296.6199,296063.8948,296830.4722,300696.3069,301463.4742,302229.9688,302996.6025,289179.8393,289947.3736,290713.8976,291480.7495,302239.4833,Mapping
Blocked,Female,ball,3,F_ball.wav,None,728.4731868,102,299947.0552,292229.8488,292996.7574,293762.7227,294529.8486,295296.6199,296063.8948,296830.4722,300696.3069,301463.4742,302229.9688,302996.6025,303762.9008,289947.3736,290713.8976,291480.7495,303005.7361,Mapping
Blocked,Female,ball,3,F_park.wav,space,423.2487634,102,299947.0552,292229.8488,292996.7574,293762.7227,294529.8486,295296.6199,296063.8948,296830.4722,300696.3069,301463.4742,302229.9688,302996.6025,303762.9008,304530.4168,290713.8976,291480.7495,303772.047,Mapping
Blocked,Female,ball,3,F_cave.wav,None,721.8850355,102,299947.0552,292229.8488,292996.7574,293762.7227,294529.8486,295296.6199,296063.8948,296830.4722,300696.3069,301463.4742,302229.9688,302996.6025,303762.9008,304530.4168,305296.5095,291480.7495,304540.7466,Mapping
Blocked,Female,ball,3,F_jolt.wav,None,721.4732181,102,299947.0552,292229.8488,292996.7574,293762.7227,294529.8486,295296.6199,296063.8948,296830.4722,300696.3069,301463.4742,302229.9688,302996.6025,303762.9008,304530.4168,305296.5095,306046.0178,305305.6335,Mapping
Blocked,Female,ball,3,F_depth.wav,None,736.0741865,102,299947.0552,306813.0748,292996.7574,293762.7227,294529.8486,295296.6199,296063.8948,296830.4722,300696.3069,301463.4742,302229.9688,302996.6025,303762.9008,304530.4168,305296.5095,306046.0178,306055.4024,Mapping
Blocked,Female,ball,3,F_ball.wav,None,733.5062018,102,299947.0552,306813.0748,307579.8046,293762.7227,294529.8486,295296.6199,296063.8948,296830.4722,300696.3069,301463.4742,302229.9688,302996.6025,303762.9008,304530.4168,305296.5095,306046.0178,306822.3793,Mapping
Blocked,Female,ball,3,F_jaw.wav,space,413.7615039,102,299947.0552,306813.0748,307579.8046,308346.2411,294529.8486,295296.6199,296063.8948,296830.4722,300696.3069,301463.4742,302229.9688,302996.6025,303762.9008,304530.4168,305296.5095,306046.0178,307589.38,Mapping
Blocked,Female,ball,3,F_jaw.wav,None,728.6011842,102,299947.0552,306813.0748,307579.8046,308346.2411,309113.0937,295296.6199,296063.8948,296830.4722,300696.3069,301463.4742,302229.9688,302996.6025,303762.9008,304530.4168,305296.5095,306046.0178,308355.7388,Mapping
Blocked,Female,ball,3,F_jaw.wav,None,726.3541203,102,299947.0552,306813.0748,307579.8046,308346.2411,309113.0937,309880.0863,296063.8948,296830.4722,300696.3069,301463.4742,302229.9688,302996.6025,303762.9008,304530.4168,305296.5095,306046.0178,309122.3688,Mapping
Blocked,Female,ball,3,F_ball.wav,None,723.3526761,102,299947.0552,306813.0748,307579.8046,308346.2411,309113.0937,309880.0863,310647.2697,296830.4722,300696.3069,301463.4742,302229.9688,302996.6025,303762.9008,304530.4168,305296.5095,306046.0178,309889.9644,Mapping
Blocked,Female,ball,3,F_priest.wav,space,553.851776,102,299947.0552,306813.0748,307579.8046,308346.2411,309113.0937,309880.0863,310647.2697,311412.8899,300696.3069,301463.4742,302229.9688,302996.6025,303762.9008,304530.4168,305296.5095,306046.0178,310657.251,Mapping
Blocked,Female,ball,6,F_lash.wav,None,720.1236812,102,314530.1364,306813.0748,307579.8046,308346.2411,309113.0937,309880.0863,310647.2697,311412.8899,300696.3069,301463.4742,302229.9688,302996.6025,303762.9008,304530.4168,305296.5095,306046.0178,311422.0547,Mapping
Blocked,Female,ball,6,F_lash.wav,None,719.8788169,102,314530.1364,306813.0748,307579.8046,308346.2411,309113.0937,309880.0863,310647.2697,311412.8899,315279.5149,301463.4742,302229.9688,302996.6025,303762.9008,304530.4168,305296.5095,306046.0178,314539.9455,Mapping
Blocked,Female,ball,6,F_park.wav,None,735.0724684,102,314530.1364,306813.0748,307579.8046,308346.2411,309113.0937,309880.0863,310647.2697,311412.8899,315279.5149,316046.4395,302229.9688,302996.6025,303762.9008,304530.4168,305296.5095,306046.0178,315289.171,Mapping
Blocked,Female,ball,6,F_depth.wav,None,732.6207325,102,314530.1364,306813.0748,307579.8046,308346.2411,309113.0937,309880.0863,310647.2697,311412.8899,315279.5149,316046.4395,316812.9802,302996.6025,303762.9008,304530.4168,305296.5095,306046.0178,316056.0628,Mapping
Blocked,Female,ball,6,F_ball.wav,None,731.1098078,102,314530.1364,306813.0748,307579.8046,308346.2411,309113.0937,309880.0863,310647.2697,311412.8899,315279.5149,316046.4395,316812.9802,317579.1894,303762.9008,304530.4168,305296.5095,306046.0178,316822.0043,Mapping
Blocked,Female,ball,6,F_greet.wav,space,383.1277905,102,314530.1364,306813.0748,307579.8046,308346.2411,309113.0937,309880.0863,310647.2697,311412.8899,315279.5149,316046.4395,316812.9802,317579.1894,318346.0562,304530.4168,305296.5095,306046.0178,317587.8295,Mapping
Blocked,Female,ball,6,F_tile.wav,None,725.6288023,102,314530.1364,306813.0748,307579.8046,308346.2411,309113.0937,309880.0863,310647.2697,311412.8899,315279.5149,316046.4395,316812.9802,317579.1894,318346.0562,319113.5707,305296.5095,306046.0178,318355.477,Mapping
Blocked,Female,ball,6,F_ball.wav,None,722.0445685,102,314530.1364,306813.0748,307579.8046,308346.2411,309113.0937,309880.0863,310647.2697,311412.8899,315279.5149,316046.4395,316812.9802,317579.1894,318346.0562,319113.5707,319879.3329,306046.0178,319123.455,Mapping
Blocked,Female,ball,6,F_cling.wav,space,594.6646764,102,314530.1364,306813.0748,307579.8046,308346.2411,309113.0937,309880.0863,310647.2697,311412.8899,315279.5149,316046.4395,316812.9802,317579.1894,318346.0562,319113.5707,319879.3329,320629.4166,319888.2621,Mapping
Blocked,Female,ball,6,F_greet.wav,None,734.9274667,102,314530.1364,321395.9479,307579.8046,308346.2411,309113.0937,309880.0863,310647.2697,311412.8899,315279.5149,316046.4395,316812.9802,317579.1894,318346.0562,319113.5707,319879.3329,320629.4166,320638.727,Mapping
Blocked,Female,ball,6,F_gnash.wav,None,733.6951061,102,314530.1364,321395.9479,322162.9539,308346.2411,309113.0937,309880.0863,310647.2697,311412.8899,315279.5149,316046.4395,316812.9802,317579.1894,318346.0562,319113.5707,319879.3329,320629.4166,321404.9826,Mapping
Blocked,Female,ball,6,F_greet.wav,None,730.7057196,102,314530.1364,321395.9479,322162.9539,322929.475,309113.0937,309880.0863,310647.2697,311412.8899,315279.5149,316046.4395,316812.9802,317579.1894,318346.0562,319113.5707,319879.3329,320629.4166,322172.4464,Mapping
Blocked,Female,ball,6,F_ball.wav,None,728.7968902,102,314530.1364,321395.9479,322162.9539,322929.475,323696.2587,309880.0863,310647.2697,311412.8899,315279.5149,316046.4395,316812.9802,317579.1894,318346.0562,319113.5707,319879.3329,320629.4166,322938.8018,Mapping
Blocked,Female,ball,6,F_done.wav,space,457.3158346,102,314530.1364,321395.9479,322162.9539,322929.475,323696.2587,324463.3932,310647.2697,311412.8899,315279.5149,316046.4395,316812.9802,317579.1894,318346.0562,319113.5707,319879.3329,320629.4166,323705.541,Mapping
Blocked,Female,ball,6,F_ball.wav,None,723.2540502,102,314530.1364,321395.9479,322162.9539,322929.475,323696.2587,324463.3932,325229.8968,311412.8899,315279.5149,316046.4395,316812.9802,317579.1894,318346.0562,319113.5707,319879.3329,320629.4166,324473.04,Mapping
Blocked,Female,ball,6,F_lash.wav,space,514.4672514,102,314530.1364,321395.9479,322162.9539,322929.475,323696.2587,324463.3932,325229.8968,325979.1658,315279.5149,316046.4395,316812.9802,317579.1894,318346.0562,319113.5707,319879.3329,320629.4166,325240.3227,Mapping
Blocked,Female,cave,10,F_reek.wav,None,735.796859,102,329113.1911,321395.9479,322162.9539,322929.475,323696.2587,324463.3932,325229.8968,325979.1658,315279.5149,316046.4395,316812.9802,317579.1894,318346.0562,319113.5707,319879.3329,320629.4166,325988.4898,Mapping
Blocked,Female,cave,10,F_priest.wav,None,719.7270133,102,329113.1911,321395.9479,322162.9539,322929.475,323696.2587,324463.3932,325229.8968,325979.1658,329862.4524,316046.4395,316812.9802,317579.1894,318346.0562,319113.5707,319879.3329,320629.4166,329122.9263,Mapping
Blocked,Female,cave,10,F_greet.wav,None,735.2728121,102,329113.1911,321395.9479,322162.9539,322929.475,323696.2587,324463.3932,325229.8968,325979.1658,329862.4524,330629.4169,316812.9802,317579.1894,318346.0562,319113.5707,319879.3329,320629.4166,329871.8651,Mapping
Blocked,Female,cave,10,F_cave.wav,None,732.4015294,102,329113.1911,321395.9479,322162.9539,322929.475,323696.2587,324463.3932,325229.8968,325979.1658,329862.4524,330629.4169,331395.7695,317579.1894,318346.0562,319113.5707,319879.3329,320629.4166,330639.3122,Mapping
Blocked,Female,cave,10,F_cad.wav,space,541.9285485,102,329113.1911,321395.9479,322162.9539,322929.475,323696.2587,324463.3932,325229.8968,325979.1658,329862.4524,330629.4169,331395.7695,332162.611,318346.0562,319113.5707,319879.3329,320629.4166,331404.7485,Mapping
Blocked,Female,cave,10,F_knife.wav,None,727.8267078,102,329113.1911,321395.9479,322162.9539,322929.475,323696.2587,324463.3932,325229.8968,325979.1658,329862.4524,330629.4169,331395.7695,332162.611,332929.0079,319113.5707,319879.3329,320629.4166,332172.2133,Mapping
Blocked,Female,cave,10,F_cave.wav,None,726.3253673,102,329113.1911,321395.9479,322162.9539,322929.475,323696.2587,324463.3932,325229.8968,325979.1658,329862.4524,330629.4169,331395.7695,332162.611,332929.0079,333696.57,319879.3329,320629.4166,332938.1637,Mapping
Blocked,Female,cave,10,F_depth.wav,space,568.3451525,102,329113.1911,321395.9479,322162.9539,322929.475,323696.2587,324463.3932,325229.8968,325979.1658,329862.4524,330629.4169,331395.7695,332162.611,332929.0079,333696.57,334463.0667,320629.4166,333706.3046,Mapping
Blocked,Female,cave,10,F_cave.wav,None,720.23622,102,329113.1911,321395.9479,322162.9539,322929.475,323696.2587,324463.3932,325229.8968,325979.1658,329862.4524,330629.4169,331395.7695,332162.611,332929.0079,333696.57,334463.0667,335212.2498,334472.6956,Mapping
Blocked,Female,cave,10,F_bluff.wav,space,588.8027707,102,329113.1911,335979.1411,322162.9539,322929.475,323696.2587,324463.3932,325229.8968,325979.1658,329862.4524,330629.4169,331395.7695,332162.611,332929.0079,333696.57,334463.0667,335212.2498,335221.7708,Mapping
Blocked,Female,cave,10,F_tile.wav,None,732.8439549,102,329113.1911,335979.1411,336746.2058,322929.475,323696.2587,324463.3932,325229.8968,325979.1658,329862.4524,330629.4169,331395.7695,332162.611,332929.0079,333696.57,334463.0667,335212.2498,335988.3615,Mapping
Blocked,Female,cave,10,F_done.wav,None,730.0824284,102,329113.1911,335979.1411,336746.2058,337512.4994,323696.2587,324463.3932,325229.8968,325979.1658,329862.4524,330629.4169,331395.7695,332162.611,332929.0079,333696.57,334463.0667,335212.2498,336755.7001,Mapping
Blocked,Female,cave,10,F_jolt.wav,None,728.41599,102,329113.1911,335979.1411,336746.2058,337512.4994,338279.3195,324463.3932,325229.8968,325979.1658,329862.4524,330629.4169,331395.7695,332162.611,332929.0079,333696.57,334463.0667,335212.2498,337522.0206,Mapping
Blocked,Female,cave,10,F_greet.wav,None,726.2743539,102,329113.1911,335979.1411,336746.2058,337512.4994,338279.3195,339045.4369,325229.8968,325979.1658,329862.4524,330629.4169,331395.7695,332162.611,332929.0079,333696.57,334463.0667,335212.2498,338288.7533,Mapping
Blocked,Female,cave,10,F_cave.wav,None,725.8996372,102,329113.1911,335979.1411,336746.2058,337512.4994,338279.3195,339045.4369,339812.7554,325979.1658,329862.4524,330629.4169,331395.7695,332162.611,332929.0079,333696.57,334463.0667,335212.2498,339054.2467,Mapping
Blocked,Female,cave,10,F_gnash.wav,space,467.6814524,102,329113.1911,335979.1411,336746.2058,337512.4994,338279.3195,339045.4369,339812.7554,340578.8972,329862.4524,330629.4169,331395.7695,332162.611,332929.0079,333696.57,334463.0667,335212.2498,339822.8171,Mapping
Blocked,Female,cave,12,F_lash.wav,None,720.6025891,102,343696.4262,335979.1411,336746.2058,337512.4994,338279.3195,339045.4369,339812.7554,340578.8972,329862.4524,330629.4169,331395.7695,332162.611,332929.0079,333696.57,334463.0667,335212.2498,340587.798,Mapping
Blocked,Female,cave,12,F_depth.wav,None,720.4974705,102,343696.4262,335979.1411,336746.2058,337512.4994,338279.3195,339045.4369,339812.7554,340578.8972,344462.6778,330629.4169,331395.7695,332162.611,332929.0079,333696.57,334463.0667,335212.2498,343706.176,Mapping
Blocked,Female,cave,12,F_romp.wav,None,718.5889502,102,343696.4262,335979.1411,336746.2058,337512.4994,338279.3195,339045.4369,339812.7554,340578.8972,344462.6778,345212.252,331395.7695,332162.611,332929.0079,333696.57,334463.0667,335212.2498,344472.5893,Mapping
Blocked,Female,cave,12,F_romp.wav,None,734.0283938,102,343696.4262,335979.1411,336746.2058,337512.4994,338279.3195,339045.4369,339812.7554,340578.8972,344462.6778,345212.252,345978.9645,332162.611,332929.0079,333696.57,334463.0667,335212.2498,345221.8363,Mapping
Blocked,Female,cave,12,F_cave.wav,None,732.1220377,102,343696.4262,335979.1411,336746.2058,337512.4994,338279.3195,339045.4369,339812.7554,340578.8972,344462.6778,345212.252,345978.9645,346745.43,332929.0079,333696.57,334463.0667,335212.2498,345988.33,Mapping
Blocked,Female,cave,12,F_ball.wav,space,631.9270428,102,343696.4262,335979.1411,336746.2058,337512.4994,338279.3195,339045.4369,339812.7554,340578.8972,344462.6778,345212.252,345978.9645,346745.43,347512.2338,333696.57,334463.0667,335212.2498,346754.4263,Mapping
Blocked,Female,cave,12,F_cave.wav,None,727.0188407,102,343696.4262,335979.1411,336746.2058,337512.4994,338279.3195,339045.4369,339812.7554,340578.8972,344462.6778,345212.252,345978.9645,346745.43,347512.2338,348279.0137,334463.0667,335212.2498,347521.9848,Mapping
Blocked,Female,cave,12,F_jolt.wav,None,724.6329584,102,343696.4262,335979.1411,336746.2058,337512.4994,338279.3195,339045.4369,339812.7554,340578.8972,344462.6778,345212.252,345978.9645,346745.43,347512.2338,348279.0137,349045.8907,335212.2498,348288.9533,Mapping
Blocked,Female,cave,12,F_romp.wav,space,74.80051433,102,343696.4262,335979.1411,336746.2058,337512.4994,338279.3195,339045.4369,339812.7554,340578.8972,344462.6778,345212.252,345978.9645,346745.43,347512.2338,348279.0137,349045.8907,349812.8033,349055.4955,Mapping
Blocked,Female,cave,12,F_lash.wav,None,719.4911148,102,343696.4262,350562.0745,336746.2058,337512.4994,338279.3195,339045.4369,339812.7554,340578.8972,344462.6778,345212.252,345978.9645,346745.43,347512.2338,348279.0137,349045.8907,349812.8033,349822.3673,Mapping
Blocked,Female,cave,12,F_cave.wav,None,734.6992975,102,343696.4262,350562.0745,351328.5255,337512.4994,338279.3195,339045.4369,339812.7554,340578.8972,344462.6778,345212.252,345978.9645,346745.43,347512.2338,348279.0137,349045.8907,349812.8033,350571.7627,Mapping
Blocked,Female,cave,12,F_dime.wav,space,456.6854324,102,343696.4262,350562.0745,351328.5255,352095.0167,338279.3195,339045.4369,339812.7554,340578.8972,344462.6778,345212.252,345978.9645,346745.43,347512.2338,348279.0137,349045.8907,349812.8033,351337.5966,Mapping
Blocked,Female,cave,12,F_cave.wav,None,730.8448472,102,343696.4262,350562.0745,351328.5255,352095.0167,352862.1772,339045.4369,339812.7554,340578.8972,344462.6778,345212.252,345978.9645,346745.43,347512.2338,348279.0137,349045.8907,349812.8033,352104.1632,Mapping
Blocked,Female,cave,12,F_priest.wav,space,634.7225782,102,343696.4262,350562.0745,351328.5255,352095.0167,352862.1772,353629.5566,339812.7554,340578.8972,344462.6778,345212.252,345978.9645,346745.43,347512.2338,348279.0137,349045.8907,349812.8033,352871.4944,Mapping
Blocked,Female,cave,12,F_gnash.wav,None,723.666486,102,343696.4262,350562.0745,351328.5255,352095.0167,352862.1772,353629.5566,354395.6505,340578.8972,344462.6778,345212.252,345978.9645,346745.43,347512.2338,348279.0137,349045.8907,349812.8033,353639.397,Mapping
Blocked,Female,cave,12,F_bluff.wav,None,721.9066776,102,343696.4262,350562.0745,351328.5255,352095.0167,352862.1772,353629.5566,354395.6505,355162.7208,344462.6778,345212.252,345978.9645,346745.43,347512.2338,348279.0137,349045.8907,349812.8033,354405.8365,Mapping
Blocked,Female,ball,2,F_cave.wav,None,719.7421627,102,358279.2017,350562.0745,351328.5255,352095.0167,352862.1772,353629.5566,354395.6505,355162.7208,344462.6778,345212.252,345978.9645,346745.43,347512.2338,348279.0137,349045.8907,349812.8033,355172.75,Mapping
Blocked,Female,ball,2,F_ball.wav,None,718.7964048,102,358279.2017,350562.0745,351328.5255,352095.0167,352862.1772,353629.5566,354395.6505,355162.7208,359028.3381,345212.252,345978.9645,346745.43,347512.2338,348279.0137,349045.8907,349812.8033,358288.9304,Mapping
Blocked,Female,ball,2,F_tile.wav,space,548.6941646,102,358279.2017,350562.0745,351328.5255,352095.0167,352862.1772,353629.5566,354395.6505,355162.7208,359028.3381,359795.2018,345978.9645,346745.43,347512.2338,348279.0137,349045.8907,349812.8033,359037.4151,Mapping
Blocked,Female,ball,2,F_ball.wav,None,731.6830131,102,358279.2017,350562.0745,351328.5255,352095.0167,352862.1772,353629.5566,354395.6505,355162.7208,359028.3381,359795.2018,360562.0479,346745.43,347512.2338,348279.0137,349045.8907,349812.8033,359804.2968,Mapping
Blocked,Female,ball,2,F_cling.wav,space,598.7896525,102,358279.2017,350562.0745,351328.5255,352095.0167,352862.1772,353629.5566,354395.6505,355162.7208,359028.3381,359795.2018,360562.0479,361328.6513,347512.2338,348279.0137,349045.8907,349812.8033,360571.3144,Mapping
Blocked,Female,ball,2,F_cave.wav,None,726.301561,102,358279.2017,350562.0745,351328.5255,352095.0167,352862.1772,353629.5566,354395.6505,355162.7208,359028.3381,359795.2018,360562.0479,361328.6513,362095.8171,348279.0137,349045.8907,349812.8033,361338.099,Mapping
Blocked,Female,ball,2,F_reek.wav,None,723.3118654,102,358279.2017,350562.0745,351328.5255,352095.0167,352862.1772,353629.5566,354395.6505,355162.7208,359028.3381,359795.2018,360562.0479,361328.6513,362095.8171,362862.4895,349045.8907,349812.8033,362105.9311,Mapping
Blocked,Female,ball,2,F_ball.wav,None,721.681291,102,358279.2017,350562.0745,351328.5255,352095.0167,352862.1772,353629.5566,354395.6505,355162.7208,359028.3381,359795.2018,360562.0479,361328.6513,362095.8171,362862.4895,363629.0663,349812.8033,362872.2009,Mapping
Blocked,Female,ball,2,F_dime.wav,space,443.850765,102,358279.2017,350562.0745,351328.5255,352095.0167,352862.1772,353629.5566,354395.6505,355162.7208,359028.3381,359795.2018,360562.0479,361328.6513,362095.8171,362862.4895,363629.0663,364378.7456,363638.1346,Mapping
Blocked,Female,ball,2,F_reek.wav,None,734.1325848,102,358279.2017,365145.5849,351328.5255,352095.0167,352862.1772,353629.5566,354395.6505,355162.7208,359028.3381,359795.2018,360562.0479,361328.6513,362095.8171,362862.4895,363629.0663,364378.7456,364388.1259,Mapping
Blocked,Female,ball,2,F_tile.wav,None,731.6350914,102,358279.2017,365145.5849,365911.8868,352095.0167,352862.1772,353629.5566,354395.6505,355162.7208,359028.3381,359795.2018,360562.0479,361328.6513,362095.8171,362862.4895,363629.0663,364378.7456,365155.5007,Mapping
Blocked,Female,ball,2,F_tile.wav,None,730.4692029,102,358279.2017,365145.5849,365911.8868,366678.6155,352862.1772,353629.5566,354395.6505,355162.7208,359028.3381,359795.2018,360562.0479,361328.6513,362095.8171,362862.4895,363629.0663,364378.7456,365921.1895,Mapping
Blocked,Female,ball,2,F_jaw.wav,None,728.2286317,102,358279.2017,365145.5849,365911.8868,366678.6155,367445.5098,353629.5566,354395.6505,355162.7208,359028.3381,359795.2018,360562.0479,361328.6513,362095.8171,362862.4895,363629.0663,364378.7456,366688.3853,Mapping
Blocked,Female,ball,2,F_ball.wav,None,726.5748693,102,358279.2017,365145.5849,365911.8868,366678.6155,367445.5098,368211.8949,354395.6505,355162.7208,359028.3381,359795.2018,360562.0479,361328.6513,362095.8171,362862.4895,363629.0663,364378.7456,367454.7497,Mapping
Blocked,Female,ball,2,F_reek.wav,space,531.6853629,102,358279.2017,365145.5849,365911.8868,366678.6155,367445.5098,368211.8949,368979.3566,355162.7208,359028.3381,359795.2018,360562.0479,361328.6513,362095.8171,362862.4895,363629.0663,364378.7456,368222.1981,Mapping
Blocked,Female,ball,2,F_lash.wav,None,720.3184598,102,358279.2017,365145.5849,365911.8868,366678.6155,367445.5098,368211.8949,368979.3566,369745.9334,359028.3381,359795.2018,360562.0479,361328.6513,362095.8171,362862.4895,363629.0663,364378.7456,368989.1539,Mapping
Blocked,Female,done,20,F_cling.wav,None,718.7107641,102,372862.1194,365145.5849,365911.8868,366678.6155,367445.5098,368211.8949,368979.3566,369745.9334,359028.3381,359795.2018,360562.0479,361328.6513,362095.8171,362862.4895,363629.0663,364378.7456,369755.7088,Mapping
Blocked,Female,done,20,F_tile.wav,None,725.0308631,102,372862.1194,365145.5849,365911.8868,366678.6155,367445.5098,368211.8949,368979.3566,369745.9334,373611.2094,359795.2018,360562.0479,361328.6513,362095.8171,362862.4895,363629.0663,364378.7456,372866.65,Mapping
Blocked,Female,done,20,F_bluff.wav,None,736.4557051,102,372862.1194,365145.5849,365911.8868,366678.6155,367445.5098,368211.8949,368979.3566,369745.9334,373611.2094,374378.4744,360562.0479,361328.6513,362095.8171,362862.4895,363629.0663,364378.7456,373620.2171,Mapping
Blocked,Female,done,20,F_done.wav,None,733.6301799,102,372862.1194,365145.5849,365911.8868,366678.6155,367445.5098,368211.8949,368979.3566,369745.9334,373611.2094,374378.4744,375145.3941,361328.6513,362095.8171,362862.4895,363629.0663,364378.7456,374387.9435,Mapping
Blocked,Female,done,20,F_knife.wav,space,422.8248882,102,372862.1194,365145.5849,365911.8868,366678.6155,367445.5098,368211.8949,368979.3566,369745.9334,373611.2094,374378.4744,375145.3941,375911.7421,362095.8171,362862.4895,363629.0663,364378.7456,375154.9333,Mapping
Blocked,Female,done,20,F_cad.wav,None,728.9916687,102,372862.1194,365145.5849,365911.8868,366678.6155,367445.5098,368211.8949,368979.3566,369745.9334,373611.2094,374378.4744,375145.3941,375911.7421,376678.3387,362862.4895,363629.0663,364378.7456,375921.3889,Mapping
Blocked,Female,done,20,F_gnash.wav,None,727.572259,102,372862.1194,365145.5849,365911.8868,366678.6155,367445.5098,368211.8949,368979.3566,369745.9334,373611.2094,374378.4744,375145.3941,375911.7421,376678.3387,377445.2383,363629.0663,364378.7456,376687.7812,Mapping
Blocked,Female,done,20,F_done.wav,None,725.6955834,102,372862.1194,365145.5849,365911.8868,366678.6155,367445.5098,368211.8949,368979.3566,369745.9334,373611.2094,374378.4744,375145.3941,375911.7421,376678.3387,377445.2383,378212.2845,364378.7456,377454.4693,Mapping
Blocked,Female,done,20,F_greet.wav,space,403.4691599,102,372862.1194,365145.5849,365911.8868,366678.6155,367445.5098,368211.8949,368979.3566,369745.9334,373611.2094,374378.4744,375145.3941,375911.7421,376678.3387,377445.2383,378212.2845,378978.618,378222.2346,Mapping
Blocked,Female,done,20,F_done.wav,None,719.9020048,102,372862.1194,379728.3999,365911.8868,366678.6155,367445.5098,368211.8949,368979.3566,369745.9334,373611.2094,374378.4744,375145.3941,375911.7421,376678.3387,377445.2383,378212.2845,378978.618,378988.4558,Mapping
Blocked,Female,done,20,F_cad.wav,space,623.4761287,102,372862.1194,379728.3999,380494.969,366678.6155,367445.5098,368211.8949,368979.3566,369745.9334,373611.2094,374378.4744,375145.3941,375911.7421,376678.3387,377445.2383,378212.2845,378978.618,379738.1404,Mapping
Blocked,Female,done,20,F_romp.wav,None,733.2468064,102,372862.1194,379728.3999,380494.969,381261.5708,367445.5098,368211.8949,368979.3566,369745.9334,373611.2094,374378.4744,375145.3941,375911.7421,376678.3387,377445.2383,378212.2845,378978.618,380503.7866,Mapping
Blocked,Female,done,20,F_tile.wav,None,730.5947268,102,372862.1194,379728.3999,380494.969,381261.5708,382028.2843,368211.8949,368979.3566,369745.9334,373611.2094,374378.4744,375145.3941,375911.7421,376678.3387,377445.2383,378212.2845,378978.618,381271.1586,Mapping
Blocked,Female,done,20,F_done.wav,None,728.8163681,102,372862.1194,379728.3999,380494.969,381261.5708,382028.2843,382795.2204,368979.3566,369745.9334,373611.2094,374378.4744,375145.3941,375911.7421,376678.3387,377445.2383,378212.2845,378978.618,382037.7125,Mapping
Blocked,Female,done,20,F_romp.wav,None,726.4626398,102,372862.1194,379728.3999,380494.969,381261.5708,382028.2843,382795.2204,383561.5319,369745.9334,373611.2094,374378.4744,375145.3941,375911.7421,376678.3387,377445.2383,378212.2845,378978.618,382804.7379,Mapping
Blocked,Female,done,20,F_bluff.wav,space,0.041738269,102,372862.1194,379728.3999,380494.969,381261.5708,382028.2843,382795.2204,383561.5319,384328.6359,373611.2094,374378.4744,375145.3941,375911.7421,376678.3387,377445.2383,378212.2845,378978.618,383570.5251,Mapping
Blocked,Female,cave,11,F_done.wav,None,721.1288002,102,387444.978,379728.3999,380494.969,381261.5708,382028.2843,382795.2204,383561.5319,384328.6359,373611.2094,374378.4744,375145.3941,375911.7421,376678.3387,377445.2383,378212.2845,378978.618,384338.4138,Mapping
Blocked,Female,cave,11,F_cave.wav,None,721.1544615,102,387444.978,379728.3999,380494.969,381261.5708,382028.2843,382795.2204,383561.5319,384328.6359,388211.9994,374378.4744,375145.3941,375911.7421,376678.3387,377445.2383,378212.2845,378978.618,387454.2071,Mapping
Blocked,Female,cave,11,F_park.wav,space,568.7297627,102,387444.978,379728.3999,380494.969,381261.5708,382028.2843,382795.2204,383561.5319,384328.6359,388211.9994,388960.9769,375145.3941,375911.7421,376678.3387,377445.2383,378212.2845,378978.618,388216.6602,Mapping
Blocked,Female,cave,11,F_cave.wav,None,735.5170581,102,387444.978,379728.3999,380494.969,381261.5708,382028.2843,382795.2204,383561.5319,384328.6359,388211.9994,388960.9769,389728.023,375911.7421,376678.3387,377445.2383,378212.2845,378978.618,388969.7552,Mapping
Blocked,Female,cave,11,F_bluff.wav,space,584.2075436,102,387444.978,379728.3999,380494.969,381261.5708,382028.2843,382795.2204,383561.5319,384328.6359,388211.9994,388960.9769,389728.023,390494.2777,376678.3387,377445.2383,378212.2845,378978.618,389737.2555,Mapping
Blocked,Female,cave,11,F_cave.wav,None,730.0218306,102,387444.978,379728.3999,380494.969,381261.5708,382028.2843,382795.2204,383561.5319,384328.6359,388211.9994,388960.9769,389728.023,390494.2777,391260.9809,377445.2383,378212.2845,378978.618,390503.5924,Mapping
Blocked,Female,cave,11,F_done.wav,space,379.0825809,102,387444.978,379728.3999,380494.969,381261.5708,382028.2843,382795.2204,383561.5319,384328.6359,388211.9994,388960.9769,389728.023,390494.2777,391260.9809,392028.0568,378212.2845,378978.618,391270.3541,Mapping
Blocked,Female,cave,11,F_ball.wav,None,725.1733915,102,387444.978,379728.3999,380494.969,381261.5708,382028.2843,382795.2204,383561.5319,384328.6359,388211.9994,388960.9769,389728.023,390494.2777,391260.9809,392028.0568,392795.3212,378978.618,392037.5991,Mapping
Blocked,Female,cave,11,F_dime.wav,None,722.9195259,102,387444.978,379728.3999,380494.969,381261.5708,382028.2843,382795.2204,383561.5319,384328.6359,388211.9994,388960.9769,389728.023,390494.2777,391260.9809,392028.0568,392795.3212,393561.6247,392805.3065,Mapping
Blocked,Female,cave,11,F_cave.wav,None,721.2453582,102,387444.978,394328.7592,380494.969,381261.5708,382028.2843,382795.2204,383561.5319,384328.6359,388211.9994,388960.9769,389728.023,390494.2777,391260.9809,392028.0568,392795.3212,393561.6247,393571.9269,Mapping
Blocked,Female,cave,11,F_dime.wav,space,533.8603896,102,387444.978,394328.7592,395077.9003,381261.5708,382028.2843,382795.2204,383561.5319,384328.6359,388211.9994,388960.9769,389728.023,390494.2777,391260.9809,392028.0568,392795.3212,393561.6247,394339.49,Mapping
Blocked,Female,cave,11,F_romp.wav,None,733.7204582,102,387444.978,394328.7592,395077.9003,395844.448,382028.2843,382795.2204,383561.5319,384328.6359,388211.9994,388960.9769,389728.023,390494.2777,391260.9809,392028.0568,392795.3212,393561.6247,395087.4849,Mapping
Blocked,Female,cave,11,F_cling.wav,None,732.5041746,102,387444.978,394328.7592,395077.9003,395844.448,396611.394,382795.2204,383561.5319,384328.6359,388211.9994,388960.9769,389728.023,390494.2777,391260.9809,392028.0568,392795.3212,393561.6247,395853.4817,Mapping
Blocked,Female,cave,11,F_tile.wav,None,730.1519922,102,387444.978,394328.7592,395077.9003,395844.448,396611.394,397377.5871,383561.5319,384328.6359,388211.9994,388960.9769,389728.023,390494.2777,391260.9809,392028.0568,392795.3212,393561.6247,396620.6296,Mapping
Blocked,Female,cave,11,F_cling.wav,None,728.8649081,102,387444.978,394328.7592,395077.9003,395844.448,396611.394,397377.5871,398144.3667,384328.6359,388211.9994,388960.9769,389728.023,390494.2777,391260.9809,392028.0568,392795.3212,393561.6247,397386.9739,Mapping
Blocked,Female,cave,11,F_done.wav,None,726.4515096,102,387444.978,394328.7592,395077.9003,395844.448,396611.394,397377.5871,398144.3667,398911.1829,388211.9994,388960.9769,389728.023,390494.2777,391260.9809,392028.0568,392795.3212,393561.6247,398154.093,Mapping
Blocked,Female,cave,7,F_tile.wav,space,720.5930047,102,402028.3443,394328.7592,395077.9003,395844.448,396611.394,397377.5871,398144.3667,398911.1829,388211.9994,388960.9769,389728.023,390494.2777,391260.9809,392028.0568,392795.3212,393561.6247,398920.6809,Mapping
Blocked,Female,cave,7,F_reek.wav,None,719.4567967,102,402028.3443,394328.7592,395077.9003,395844.448,396611.394,397377.5871,398144.3667,398911.1829,402777.2488,388960.9769,389728.023,390494.2777,391260.9809,392028.0568,392795.3212,393561.6247,402038.3553,Mapping
Blocked,Female,cave,7,F_greet.wav,None,736.2930804,102,402028.3443,394328.7592,395077.9003,395844.448,396611.394,397377.5871,398144.3667,398911.1829,402777.2488,403544.5305,389728.023,390494.2777,391260.9809,392028.0568,392795.3212,393561.6247,402786.3295,Mapping
Blocked,Female,cave,7,F_cling.wav,None,733.7421002,102,402028.3443,394328.7592,395077.9003,395844.448,396611.394,397377.5871,398144.3667,398911.1829,402777.2488,403544.5305,404311.0823,390494.2777,391260.9809,392028.0568,392795.3212,393561.6247,403553.8805,Mapping
Blocked,Female,cave,7,F_reek.wav,None,731.939626,102,402028.3443,394328.7592,395077.9003,395844.448,396611.394,397377.5871,398144.3667,398911.1829,402777.2488,403544.5305,404311.0823,405077.8684,391260.9809,392028.0568,392795.3212,393561.6247,404320.7421,Mapping
Blocked,Female,cave,7,F_gnash.wav,None,730.2632941,102,402028.3443,394328.7592,395077.9003,395844.448,396611.394,397377.5871,398144.3667,398911.1829,402777.2488,403544.5305,404311.0823,405077.8684,405843.9864,392028.0568,392795.3212,393561.6247,405087.3028,Mapping
Blocked,Female,cave,7,F_cave.wav,None,729.2260213,102,402028.3443,394328.7592,395077.9003,395844.448,396611.394,397377.5871,398144.3667,398911.1829,402777.2488,403544.5305,404311.0823,405077.8684,405843.9864,406610.8876,392795.3212,393561.6247,405853.274,Mapping
Blocked,Female,cave,7,F_cling.wav,space,492.7686158,102,402028.3443,394328.7592,395077.9003,395844.448,396611.394,397377.5871,398144.3667,398911.1829,402777.2488,403544.5305,404311.0823,405077.8684,405843.9864,406610.8876,407378.2923,393561.6247,406620.3124,Mapping
Blocked,Female,cave,7,F_depth.wav,None,722.8719133,102,402028.3443,394328.7592,395077.9003,395844.448,396611.394,397377.5871,398144.3667,398911.1829,402777.2488,403544.5305,404311.0823,405077.8684,405843.9864,406610.8876,407378.2923,408144.6592,407388.3469,Mapping
Blocked,Female,cave,7,F_cave.wav,None,722.1583438,102,402028.3443,408911.4967,395077.9003,395844.448,396611.394,397377.5871,398144.3667,398911.1829,402777.2488,403544.5305,404311.0823,405077.8684,405843.9864,406610.8876,407378.2923,408144.6592,408154.4179,Mapping
Blocked,Female,cave,7,F_bluff.wav,None,720.0633927,102,402028.3443,408911.4967,409660.7796,395844.448,396611.394,397377.5871,398144.3667,398911.1829,402777.2488,403544.5305,404311.0823,405077.8684,405843.9864,406610.8876,407378.2923,408144.6592,408921.247,Mapping
Blocked,Female,cave,7,F_cave.wav,space,51.14327261,102,402028.3443,408911.4967,409660.7796,410427.6334,396611.394,397377.5871,398144.3667,398911.1829,402777.2488,403544.5305,404311.0823,405077.8684,405843.9864,406610.8876,407378.2923,408144.6592,409669.915,Mapping
Blocked,Female,cave,7,F_knife.wav,space,620.0477176,102,402028.3443,408911.4967,409660.7796,410427.6334,411194.1122,397377.5871,398144.3667,398911.1829,402777.2488,403544.5305,404311.0823,405077.8684,405843.9864,406610.8876,407378.2923,408144.6592,410436.9732,Mapping
Blocked,Female,cave,7,F_tile.wav,None,729.2798173,102,402028.3443,408911.4967,409660.7796,410427.6334,411194.1122,411960.524,398144.3667,398911.1829,402777.2488,403544.5305,404311.0823,405077.8684,405843.9864,406610.8876,407378.2923,408144.6592,411204.0858,Mapping
Blocked,Female,cave,7,F_cave.wav,None,729.2887833,102,402028.3443,408911.4967,409660.7796,410427.6334,411194.1122,411960.524,412727.6121,398911.1829,402777.2488,403544.5305,404311.0823,405077.8684,405843.9864,406610.8876,407378.2923,408144.6592,411969.5725,Mapping
Blocked,Female,cave,7,F_romp.wav,space,495.9098058,102,402028.3443,408911.4967,409660.7796,410427.6334,411194.1122,411960.524,412727.6121,413494.5191,402777.2488,403544.5305,404311.0823,405077.8684,405843.9864,406610.8876,407378.2923,408144.6592,412737.0713,Mapping
Blocked,Female,ball,5,F_bluff.wav,None,723.6454623,102,416611.2227,408911.4967,409660.7796,410427.6334,411194.1122,411960.524,412727.6121,413494.5191,402777.2488,403544.5305,404311.0823,405077.8684,405843.9864,406610.8876,407378.2923,408144.6592,413504.1653,Mapping
Blocked,Female,ball,5,F_ball.wav,None,719.9233376,102,416611.2227,408911.4967,409660.7796,410427.6334,411194.1122,411960.524,412727.6121,413494.5191,417361.0445,403544.5305,404311.0823,405077.8684,405843.9864,406610.8876,407378.2923,408144.6592,416620.9876,Mapping
Blocked,Female,ball,5,F_jaw.wav,space,558.0648662,102,416611.2227,408911.4967,409660.7796,410427.6334,411194.1122,411960.524,412727.6121,413494.5191,417361.0445,418127.5187,404311.0823,405077.8684,405843.9864,406610.8876,407378.2923,408144.6592,417370.802,Mapping
Blocked,Female,ball,5,F_ball.wav,None,732.4877885,102,416611.2227,408911.4967,409660.7796,410427.6334,411194.1122,411960.524,412727.6121,413494.5191,417361.0445,418127.5187,418893.6568,405077.8684,405843.9864,406610.8876,407378.2923,408144.6592,418136.9936,Mapping
Blocked,Female,ball,5,F_priest.wav,None,738.1453314,102,416611.2227,408911.4967,409660.7796,410427.6334,411194.1122,411960.524,412727.6121,413494.5191,417361.0445,418127.5187,418893.6568,419660.8736,405843.9864,406610.8876,407378.2923,408144.6592,418897.1409,Mapping
Blocked,Female,ball,5,F_ball.wav,space,0.03462733,102,416611.2227,408911.4967,409660.7796,410427.6334,411194.1122,411960.524,412727.6121,413494.5191,417361.0445,418127.5187,418893.6568,419660.8736,420427.6947,406610.8876,407378.2923,408144.6592,419670.7214,Mapping
Blocked,Female,ball,5,F_cave.wav,space,404.0751375,102,416611.2227,408911.4967,409660.7796,410427.6334,411194.1122,411960.524,412727.6121,413494.5191,417361.0445,418127.5187,418893.6568,419660.8736,420427.6947,421194.6075,407378.2923,408144.6592,420436.7296,Mapping
Blocked,Female,ball,5,F_depth.wav,None,723.1538784,102,416611.2227,408911.4967,409660.7796,410427.6334,411194.1122,411960.524,412727.6121,413494.5191,417361.0445,418127.5187,418893.6568,419660.8736,420427.6947,421194.6075,421960.6059,408144.6592,421204.0333,Mapping
Blocked,Female,ball,5,F_park.wav,None,722.4508208,102,416611.2227,408911.4967,409660.7796,410427.6334,411194.1122,411960.524,412727.6121,413494.5191,417361.0445,418127.5187,418893.6568,419660.8736,420427.6947,421194.6075,421960.6059,422727.2387,421969.8591,Mapping
Blocked,Female,ball,5,F_ball.wav,None,721.1006656,102,416611.2227,423494.2978,409660.7796,410427.6334,411194.1122,411960.524,412727.6121,413494.5191,417361.0445,418127.5187,418893.6568,419660.8736,420427.6947,421194.6075,421960.6059,422727.2387,422736.8338,Mapping
Blocked,Female,ball,5,F_knife.wav,space,512.4013625,102,416611.2227,423494.2978,424244.3268,410427.6334,411194.1122,411960.524,412727.6121,413494.5191,417361.0445,418127.5187,418893.6568,419660.8736,420427.6947,421194.6075,421960.6059,422727.2387,423504.3505,Mapping
Blocked,Female,ball,5,F_cad.wav,None,733.0520278,102,416611.2227,423494.2978,424244.3268,425010.6538,411194.1122,411960.524,412727.6121,413494.5191,417361.0445,418127.5187,418893.6568,419660.8736,420427.6947,421194.6075,421960.6059,422727.2387,424253.8227,Mapping
Blocked,Female,ball,5,F_romp.wav,None,731.9485921,102,416611.2227,423494.2978,424244.3268,425010.6538,425776.952,411960.524,412727.6121,413494.5191,417361.0445,418127.5187,418893.6568,419660.8736,420427.6947,421194.6075,421960.6059,422727.2387,425020.0412,Mapping
Blocked,Female,ball,5,F_cling.wav,None,730.7746651,102,416611.2227,423494.2978,424244.3268,425010.6538,425776.952,426543.9088,412727.6121,413494.5191,417361.0445,418127.5187,418893.6568,419660.8736,420427.6947,421194.6075,421960.6059,422727.2387,425786.4532,Mapping
Blocked,Female,ball,5,F_dime.wav,None,728.3501363,102,416611.2227,423494.2978,424244.3268,425010.6538,425776.952,426543.9088,427310.2392,413494.5191,417361.0445,418127.5187,418893.6568,419660.8736,420427.6947,421194.6075,421960.6059,422727.2387,426553.7804,Mapping
Blocked,Female,ball,5,F_tile.wav,None,728.0078827,102,416611.2227,423494.2978,424244.3268,425010.6538,425776.952,426543.9088,427310.2392,428077.4003,417361.0445,418127.5187,418893.6568,419660.8736,420427.6947,421194.6075,421960.6059,422727.2387,427319.4389,Mapping
Blocked,Female,done,21,F_gnash.wav,None,725.6451884,102,431211.0302,423494.2978,424244.3268,425010.6538,425776.952,426543.9088,427310.2392,428077.4003,417361.0445,418127.5187,418893.6568,419660.8736,420427.6947,421194.6075,421960.6059,422727.2387,428086.8882,Mapping
Blocked,Female,done,21,F_done.wav,None,718.9117261,102,431211.0302,423494.2978,424244.3268,425010.6538,425776.952,426543.9088,427310.2392,428077.4003,431960.2018,418127.5187,418893.6568,419660.8736,420427.6947,421194.6075,421960.6059,422727.2387,431221.2384,Mapping
Blocked,Female,done,21,F_cad.wav,space,470.8297534,102,431211.0302,423494.2978,424244.3268,425010.6538,425776.952,426543.9088,427310.2392,428077.4003,431960.2018,432727.1654,418893.6568,419660.8736,420427.6947,421194.6075,421960.6059,422727.2387,431969.754,Mapping
Blocked,Female,done,21,F_greet.wav,None,732.5496229,102,431211.0302,423494.2978,424244.3268,425010.6538,425776.952,426543.9088,427310.2392,428077.4003,431960.2018,432727.1654,433493.6059,419660.8736,420427.6947,421194.6075,421960.6059,422727.2387,432736.3277,Mapping
Blocked,Female,done,21,F_cling.wav,None,731.345397,102,431211.0302,423494.2978,424244.3268,425010.6538,425776.952,426543.9088,427310.2392,428077.4003,431960.2018,432727.1654,433493.6059,434260.4427,420427.6947,421194.6075,421960.6059,422727.2387,433502.5904,Mapping
Blocked,Female,done,21,F_done.wav,None,729.2968217,102,431211.0302,423494.2978,424244.3268,425010.6538,425776.952,426543.9088,427310.2392,428077.4003,431960.2018,432727.1654,433493.6059,434260.4427,435027.3463,421194.6075,421960.6059,422727.2387,434270.1977,Mapping
Blocked,Female,done,21,F_gnash.wav,space,387.8092766,102,431211.0302,423494.2978,424244.3268,425010.6538,425776.952,426543.9088,427310.2392,428077.4003,431960.2018,432727.1654,433493.6059,434260.4427,435027.3463,435793.7091,421960.6059,422727.2387,435036.7127,Mapping
Blocked,Female,done,21,F_done.wav,None,724.9807772,102,431211.0302,423494.2978,424244.3268,425010.6538,425776.952,426543.9088,427310.2392,428077.4003,431960.2018,432727.1654,433493.6059,434260.4427,435027.3463,435793.7091,436560.2009,422727.2387,435803.0635,Mapping
Blocked,Female,done,21,F_jaw.wav,None,723.9651464,102,431211.0302,423494.2978,424244.3268,425010.6538,425776.952,426543.9088,427310.2392,428077.4003,431960.2018,432727.1654,433493.6059,434260.4427,435027.3463,435793.7091,436560.2009,437327.2845,436569.4328,Mapping
Blocked,Female,done,21,F_park.wav,space,0.034008932,102,431211.0302,438076.8457,424244.3268,425010.6538,425776.952,426543.9088,427310.2392,428077.4003,431960.2018,432727.1654,433493.6059,434260.4427,435027.3463,435793.7091,436560.2009,437327.2845,437337.6492,Mapping
Blocked,Female,done,21,F_lash.wav,None,736.3178142,102,431211.0302,438076.8457,438843.3514,425010.6538,425776.952,426543.9088,427310.2392,428077.4003,431960.2018,432727.1654,433493.6059,434260.4427,435027.3463,435793.7091,436560.2009,437327.2845,438085.7984,Mapping
Blocked,Female,done,21,F_romp.wav,None,734.9991946,102,431211.0302,438076.8457,438843.3514,439610.3567,425776.952,426543.9088,427310.2392,428077.4003,431960.2018,432727.1654,433493.6059,434260.4427,435027.3463,435793.7091,436560.2009,437327.2845,438852.6736,Mapping
Blocked,Female,done,21,F_lash.wav,None,738.2736378,102,431211.0302,438076.8457,438843.3514,439610.3567,440376.9552,426543.9088,427310.2392,428077.4003,431960.2018,432727.1654,433493.6059,434260.4427,435027.3463,435793.7091,436560.2009,437327.2845,439614.5587,Mapping
Blocked,Female,done,21,F_done.wav,None,730.7774476,102,431211.0302,438076.8457,438843.3514,439610.3567,440376.9552,441144.1664,427310.2392,428077.4003,431960.2018,432727.1654,433493.6059,434260.4427,435027.3463,435793.7091,436560.2009,437327.2845,440387.1065,Mapping
Blocked,Female,done,21,F_romp.wav,space,710.5535636,102,431211.0302,438076.8457,438843.3514,439610.3567,440376.9552,441144.1664,441909.8859,428077.4003,431960.2018,432727.1654,433493.6059,434260.4427,435027.3463,435793.7091,436560.2009,437327.2845,441153.8321,Mapping
Blocked,Female,done,21,F_cling.wav,None,727.8718469,102,431211.0302,438076.8457,438843.3514,439610.3567,440376.9552,441144.1664,441909.8859,442676.6052,431960.2018,432727.1654,433493.6059,434260.4427,435027.3463,435793.7091,436560.2009,437327.2845,441918.8633,Mapping
Blocked,Female,ball,1,F_cad.wav,None,726.4032787,102,445810.1302,438076.8457,438843.3514,439610.3567,440376.9552,441144.1664,441909.8859,442676.6052,431960.2018,432727.1654,433493.6059,434260.4427,435027.3463,435793.7091,436560.2009,437327.2845,442685.535,Mapping
Blocked,Female,ball,1,F_ball.wav,None,721.6463545,102,445810.1302,438076.8457,438843.3514,439610.3567,440376.9552,441144.1664,441909.8859,442676.6052,446577.3346,432727.1654,433493.6059,434260.4427,435027.3463,435793.7091,436560.2009,437327.2845,445819.3244,Mapping
Blocked,Female,ball,1,F_lash.wav,space,365.2891703,102,445810.1302,438076.8457,438843.3514,439610.3567,440376.9552,441144.1664,441909.8859,442676.6052,446577.3346,447326.8754,433493.6059,434260.4427,435027.3463,435793.7091,436560.2009,437327.2845,446586.9617,Mapping
Blocked,Female,ball,1,F_gnash.wav,None,733.2109424,102,445810.1302,438076.8457,438843.3514,439610.3567,440376.9552,441144.1664,441909.8859,442676.6052,446577.3346,447326.8754,448093.6671,434260.4427,435027.3463,435793.7091,436560.2009,437327.2845,447336.4468,Mapping
Blocked,Female,ball,1,F_romp.wav,None,731.8533671,102,445810.1302,438076.8457,438843.3514,439610.3567,440376.9552,441144.1664,441909.8859,442676.6052,446577.3346,447326.8754,448093.6671,448860.1846,435027.3463,435793.7091,436560.2009,437327.2845,448102.9643,Mapping
Blocked,Female,ball,1,F_ball.wav,None,731.7096019,102,445810.1302,438076.8457,438843.3514,439610.3567,440376.9552,441144.1664,441909.8859,442676.6052,446577.3346,447326.8754,448093.6671,448860.1846,449626.7765,435793.7091,436560.2009,437327.2845,448869.7343,Mapping
Blocked,Female,ball,1,F_romp.wav,space,579.9023201,102,445810.1302,438076.8457,438843.3514,439610.3567,440376.9552,441144.1664,441909.8859,442676.6052,446577.3346,447326.8754,448093.6671,448860.1846,449626.7765,450393.3568,436560.2009,437327.2845,449636.1565,Mapping
Blocked,Female,ball,1,F_ball.wav,None,728.5458423,102,445810.1302,438076.8457,438843.3514,439610.3567,440376.9552,441144.1664,441909.8859,442676.6052,446577.3346,447326.8754,448093.6671,448860.1846,449626.7765,450393.3568,451160.2829,437327.2845,450402.4353,Mapping
Blocked,Female,ball,1,F_lash.wav,space,686.3135322,102,445810.1302,438076.8457,438843.3514,439610.3567,440376.9552,441144.1664,441909.8859,442676.6052,446577.3346,447326.8754,448093.6671,448860.1846,449626.7765,450393.3568,451160.2829,451927.253,451169.8419,Mapping
Blocked,Female,ball,1,F_cling.wav,None,722.5370798,102,445810.1302,452693.5445,438843.3514,439610.3567,440376.9552,441144.1664,441909.8859,442676.6052,446577.3346,447326.8754,448093.6671,448860.1846,449626.7765,450393.3568,451160.2829,451927.253,451937.6418,Mapping
Blocked,Female,ball,1,F_jaw.wav,None,723.1041017,102,445810.1302,452693.5445,453460.3346,439610.3567,440376.9552,441144.1664,441909.8859,442676.6052,446577.3346,447326.8754,448093.6671,448860.1846,449626.7765,450393.3568,451160.2829,451927.253,452702.3688,Mapping
Blocked,Female,ball,1,F_jolt.wav,None,720.6449457,102,445810.1302,452693.5445,453460.3346,454227.2784,440376.9552,441144.1664,441909.8859,442676.6052,446577.3346,447326.8754,448093.6671,448860.1846,449626.7765,450393.3568,451160.2829,451927.253,453470.2702,Mapping
Blocked,Female,ball,1,F_knife.wav,None,718.9145086,102,445810.1302,452693.5445,453460.3346,454227.2784,454976.382,441144.1664,441909.8859,442676.6052,446577.3346,447326.8754,448093.6671,448860.1846,449626.7765,450393.3568,451160.2829,451927.253,454237.2535,Mapping
Blocked,Female,ball,1,F_ball.wav,None,735.391225,102,445810.1302,452693.5445,453460.3346,454227.2784,454976.382,455743.132,441909.8859,442676.6052,446577.3346,447326.8754,448093.6671,448860.1846,449626.7765,450393.3568,451160.2829,451927.253,454986.1781,Mapping
Blocked,Female,ball,1,F_priest.wav,space,503.9430282,102,445810.1302,452693.5445,453460.3346,454227.2784,454976.382,455743.132,456509.65,442676.6052,446577.3346,447326.8754,448093.6671,448860.1846,449626.7765,450393.3568,451160.2829,451927.253,455752.1508,Mapping
Blocked,Female,ball,1,F_lash.wav,None,731.4876163,102,445810.1302,452693.5445,453460.3346,454227.2784,454976.382,455743.132,456509.65,457276.7095,446577.3346,447326.8754,448093.6671,448860.1846,449626.7765,450393.3568,451160.2829,451927.253,456519.0384,Mapping
Blocked,Female,done,23,F_gnash.wav,None,729.580951,102,460410.2694,452693.5445,453460.3346,454227.2784,454976.382,455743.132,456509.65,457276.7095,446577.3346,447326.8754,448093.6671,448860.1846,449626.7765,450393.3568,451160.2829,451927.253,457286.3028,Mapping
Blocked,Female,done,23,F_cad.wav,None,720.8851725,102,460410.2694,452693.5445,453460.3346,454227.2784,454976.382,455743.132,456509.65,457276.7095,461176.8935,447326.8754,448093.6671,448860.1846,449626.7765,450393.3568,451160.2829,451927.253,460420.5404,Mapping
Blocked,Female,done,23,F_done.wav,None,719.8015238,102,460410.2694,452693.5445,453460.3346,454227.2784,454976.382,455743.132,456509.65,457276.7095,461176.8935,461942.9472,448093.6671,448860.1846,449626.7765,450393.3568,451160.2829,451927.253,461186.9354,Mapping
Blocked,Female,done,23,F_cling.wav,space,591.7460904,102,460410.2694,452693.5445,453460.3346,454227.2784,454976.382,455743.132,456509.65,457276.7095,461176.8935,461942.9472,462693.5089,448860.1846,449626.7765,450393.3568,451160.2829,451927.253,461952.1615,Mapping
Blocked,Female,done,23,F_park.wav,None,732.9747347,102,460410.2694,452693.5445,453460.3346,454227.2784,454976.382,455743.132,456509.65,457276.7095,461176.8935,461942.9472,462693.5089,463459.5372,449626.7765,450393.3568,451160.2829,451927.253,462702.7578,Mapping
Blocked,Female,done,23,F_depth.wav,None,732.3777232,102,460410.2694,452693.5445,453460.3346,454227.2784,454976.382,455743.132,456509.65,457276.7095,461176.8935,461942.9472,462693.5089,463459.5372,464226.1224,450393.3568,451160.2829,451927.253,463468.7336,Mapping
Blocked,Female,done,23,F_jaw.wav,None,730.7384919,102,460410.2694,452693.5445,453460.3346,454227.2784,454976.382,455743.132,456509.65,457276.7095,461176.8935,461942.9472,462693.5089,463459.5372,464226.1224,464993.3117,451160.2829,451927.253,464235.5713,Mapping
Blocked,Female,done,23,F_knife.wav,None,729.1307962,102,460410.2694,452693.5445,453460.3346,454227.2784,454976.382,455743.132,456509.65,457276.7095,461176.8935,461942.9472,462693.5089,463459.5372,464226.1224,464993.3117,465760.0675,451927.253,465002.6202,Mapping
Blocked,Female,done,23,F_lash.wav,None,727.6084321,102,460410.2694,452693.5445,453460.3346,454227.2784,454976.382,455743.132,456509.65,457276.7095,461176.8935,461942.9472,462693.5089,463459.5372,464226.1224,464993.3117,465760.0675,466526.4882,465769.5582,Mapping
Blocked,Female,done,23,F_bluff.wav,None,726.678442,102,460410.2694,467293.4156,453460.3346,454227.2784,454976.382,455743.132,456509.65,457276.7095,461176.8935,461942.9472,462693.5089,463459.5372,464226.1224,464993.3117,465760.0675,466526.4882,466536.5929,Mapping
Blocked,Female,done,23,F_done.wav,None,725.5038967,102,460410.2694,467293.4156,468059.5846,454227.2784,454976.382,455743.132,456509.65,457276.7095,461176.8935,461942.9472,462693.5089,463459.5372,464226.1224,464993.3117,465760.0675,466526.4882,467303.106,Mapping
Blocked,Female,done,23,F_jolt.wav,space,562.7883998,102,460410.2694,467293.4156,468059.5846,468826.6907,454976.382,455743.132,456509.65,457276.7095,461176.8935,461942.9472,462693.5089,463459.5372,464226.1224,464993.3117,465760.0675,466526.4882,468068.9791,Mapping
Blocked,Female,done,23,F_done.wav,None,721.1467322,102,460410.2694,467293.4156,468059.5846,468826.6907,469593.6673,455743.132,456509.65,457276.7095,461176.8935,461942.9472,462693.5089,463459.5372,464226.1224,464993.3117,465760.0675,466526.4882,468836.4834,Mapping
Blocked,Female,done,23,F_cling.wav,space,660.0298722,102,460410.2694,467293.4156,468059.5846,468826.6907,469593.6673,470343.0254,456509.65,457276.7095,461176.8935,461942.9472,462693.5089,463459.5372,464226.1224,464993.3117,465760.0675,466526.4882,469603.7157,Mapping
Blocked,Female,done,23,F_done.wav,None,733.9919115,102,460410.2694,467293.4156,468059.5846,468826.6907,469593.6673,470343.0254,471109.6393,457276.7095,461176.8935,461942.9472,462693.5089,463459.5372,464226.1224,464993.3117,465760.0675,466526.4882,470352.5562,Mapping
Blocked,Female,done,23,F_jaw.wav,space,512.6134547,102,460410.2694,467293.4156,468059.5846,468826.6907,469593.6673,470343.0254,471109.6393,471876.5092,461176.8935,461942.9472,462693.5089,463459.5372,464226.1224,464993.3117,465760.0675,466526.4882,471119.1098,Mapping
Blocked,Female,tile,17,F_depth.wav,None,729.7355372,102,475010.1489,467293.4156,468059.5846,468826.6907,469593.6673,470343.0254,471109.6393,471876.5092,461176.8935,461942.9472,462693.5089,463459.5372,464226.1224,464993.3117,465760.0675,466526.4882,471885.9352,Mapping
Blocked,Female,tile,17,F_bluff.wav,None,720.0967833,102,475010.1489,467293.4156,468059.5846,468826.6907,469593.6673,470343.0254,471109.6393,471876.5092,475776.6852,461942.9472,462693.5089,463459.5372,464226.1224,464993.3117,465760.0675,466526.4882,475020.3655,Mapping
Blocked,Female,tile,17,F_tile.wav,None,719.4802938,102,475010.1489,467293.4156,468059.5846,468826.6907,469593.6673,470343.0254,471109.6393,471876.5092,475776.6852,476526.4996,462693.5089,463459.5372,464226.1224,464993.3117,465760.0675,466526.4882,475786.5193,Mapping
Blocked,Female,tile,17,F_park.wav,space,535.6953269,102,475010.1489,467293.4156,468059.5846,468826.6907,469593.6673,470343.0254,471109.6393,471876.5092,475776.6852,476526.4996,477293.2171,463459.5372,464226.1224,464993.3117,465760.0675,466526.4882,476535.9535,Mapping
Blocked,Female,tile,17,F_tile.wav,None,732.0864829,102,475010.1489,467293.4156,468059.5846,468826.6907,469593.6673,470343.0254,471109.6393,471876.5092,475776.6852,476526.4996,477293.2171,478059.4934,464226.1224,464993.3117,465760.0675,466526.4882,477303.0228,Mapping
Blocked,Female,tile,17,F_jolt.wav,space,594.7317668,102,475010.1489,467293.4156,468059.5846,468826.6907,469593.6673,470343.0254,471109.6393,471876.5092,475776.6852,476526.4996,477293.2171,478059.4934,478826.1255,464993.3117,465760.0675,466526.4882,478068.8715,Mapping
Blocked,Female,tile,17,F_bluff.wav,None,728.7786491,102,475010.1489,467293.4156,468059.5846,468826.6907,469593.6673,470343.0254,471109.6393,471876.5092,475776.6852,476526.4996,477293.2171,478059.4934,478826.1255,479592.3657,465760.0675,466526.4882,478835.5457,Mapping
Blocked,Female,tile,17,F_bluff.wav,None,728.4323762,102,475010.1489,467293.4156,468059.5846,468826.6907,469593.6673,470343.0254,471109.6393,471876.5092,475776.6852,476526.4996,477293.2171,478059.4934,478826.1255,479592.3657,480359.4495,466526.4882,479601.656,Mapping
Blocked,Female,tile,17,F_priest.wav,None,726.1197678,102,475010.1489,467293.4156,468059.5846,468826.6907,469593.6673,470343.0254,471109.6393,471876.5092,475776.6852,476526.4996,477293.2171,478059.4934,478826.1255,479592.3657,480359.4495,481125.7169,480369.5953,Mapping
Blocked,Female,tile,17,F_romp.wav,None,726.3510286,102,475010.1489,481892.2934,468059.5846,468826.6907,469593.6673,470343.0254,471109.6393,471876.5092,475776.6852,476526.4996,477293.2171,478059.4934,478826.1255,479592.3657,480359.4495,481125.7169,481135.005,Mapping
Blocked,Female,tile,17,F_jolt.wav,None,725.1393826,102,475010.1489,481892.2934,482660.0744,468826.6907,469593.6673,470343.0254,471109.6393,471876.5092,475776.6852,476526.4996,477293.2171,478059.4934,478826.1255,479592.3657,480359.4495,481125.7169,481901.7098,Mapping
Blocked,Female,tile,17,F_romp.wav,None,714.6674095,102,475010.1489,481892.2934,482660.0744,483426.5721,469593.6673,470343.0254,471109.6393,471876.5092,475776.6852,476526.4996,477293.2171,478059.4934,478826.1255,479592.3657,480359.4495,481125.7169,482677.7798,Mapping
Blocked,Female,tile,17,F_tile.wav,None,721.7898105,102,475010.1489,481892.2934,482660.0744,483426.5721,484192.1363,470343.0254,471109.6393,471876.5092,475776.6852,476526.4996,477293.2171,478059.4934,478826.1255,479592.3657,480359.4495,481125.7169,483436.3502,Mapping
Blocked,Female,tile,17,F_ball.wav,space,614.2133282,102,475010.1489,481892.2934,482660.0744,483426.5721,484192.1363,484959.2483,471109.6393,471876.5092,475776.6852,476526.4996,477293.2171,478059.4934,478826.1255,479592.3657,480359.4495,481125.7169,484201.2272,Mapping
Blocked,Female,tile,17,F_tile.wav,None,721.5155747,102,475010.1489,481892.2934,482660.0744,483426.5721,484192.1363,484959.2483,485725.9327,471876.5092,475776.6852,476526.4996,477293.2171,478059.4934,478826.1255,479592.3657,480359.4495,481125.7169,484968.4137,Mapping
Blocked,Female,tile,17,F_romp.wav,space,504.350208,102,475010.1489,481892.2934,482660.0744,483426.5721,484192.1363,484959.2483,485725.9327,486476.0792,475776.6852,476526.4996,477293.2171,478059.4934,478826.1255,479592.3657,480359.4495,481125.7169,485735.083,Mapping
Blocked,Female,done,19,F_cave.wav,None,732.9354699,102,489609.6221,481892.2934,482660.0744,483426.5721,484192.1363,484959.2483,485725.9327,486476.0792,475776.6852,476526.4996,477293.2171,478059.4934,478826.1255,479592.3657,480359.4495,481125.7169,486486.1165,Mapping
Blocked,Female,done,19,F_done.wav,None,719.6769274,102,489609.6221,481892.2934,482660.0744,483426.5721,484192.1363,484959.2483,485725.9327,486476.0792,490376.4818,476526.4996,477293.2171,478059.4934,478826.1255,479592.3657,480359.4495,481125.7169,489620.1804,Mapping
Blocked,Female,done,19,F_gnash.wav,space,589.0828808,102,489609.6221,481892.2934,482660.0744,483426.5721,484192.1363,484959.2483,485725.9327,486476.0792,490376.4818,491126.2585,477293.2171,478059.4934,478826.1255,479592.3657,480359.4495,481125.7169,490386.2538,Mapping
Blocked,Female,done,19,F_knife.wav,None,732.2172628,102,489609.6221,481892.2934,482660.0744,483426.5721,484192.1363,484959.2483,485725.9327,486476.0792,490376.4818,491126.2585,491892.8802,478059.4934,478826.1255,479592.3657,480359.4495,481125.7169,491136.3335,Mapping
Blocked,Female,done,19,F_done.wav,None,731.0526109,102,489609.6221,481892.2934,482660.0744,483426.5721,484192.1363,484959.2483,485725.9327,486476.0792,490376.4818,491126.2585,491892.8802,492659.1809,478826.1255,479592.3657,480359.4495,481125.7169,491903.3327,Mapping
Blocked,Female,done,19,F_romp.wav,space,650.1453264,102,489609.6221,481892.2934,482660.0744,483426.5721,484192.1363,484959.2483,485725.9327,486476.0792,490376.4818,491126.2585,491892.8802,492659.1809,493426.0013,479592.3657,480359.4495,481125.7169,492669.0973,Mapping
Blocked,Female,done,19,F_done.wav,None,727.6486245,102,489609.6221,481892.2934,482660.0744,483426.5721,484192.1363,484959.2483,485725.9327,486476.0792,490376.4818,491126.2585,491892.8802,492659.1809,493426.0013,494192.0702,480359.4495,481125.7169,493435.8265,Mapping
Blocked,Female,done,19,F_ball.wav,space,669.5740194,102,489609.6221,481892.2934,482660.0744,483426.5721,484192.1363,484959.2483,485725.9327,486476.0792,490376.4818,491126.2585,491892.8802,492659.1809,493426.0013,494192.0702,494959.7285,481125.7169,494201.6285,Mapping
Blocked,Female,done,19,F_ball.wav,None,723.189124,102,489609.6221,481892.2934,482660.0744,483426.5721,484192.1363,484959.2483,485725.9327,486476.0792,490376.4818,491126.2585,491892.8802,492659.1809,493426.0013,494192.0702,494959.7285,495725.9769,494969.6631,Mapping
Blocked,Female,done,19,F_cling.wav,None,722.4217586,102,489609.6221,496493.3681,482660.0744,483426.5721,484192.1363,484959.2483,485725.9327,486476.0792,490376.4818,491126.2585,491892.8802,492659.1809,493426.0013,494192.0702,494959.7285,495725.9769,495735.863,Mapping
Blocked,Female,done,19,F_done.wav,None,720.5818745,102,489609.6221,496493.3681,497258.9311,483426.5721,484192.1363,484959.2483,485725.9327,486476.0792,490376.4818,491126.2585,491892.8802,492659.1809,493426.0013,494192.0702,494959.7285,495725.9769,496503.1883,Mapping
Blocked,Female,done,19,F_jolt.wav,space,530.2792474,102,489609.6221,496493.3681,497258.9311,498008.8643,484192.1363,484959.2483,485725.9327,486476.0792,490376.4818,491126.2585,491892.8802,492659.1809,493426.0013,494192.0702,494959.7285,495725.9769,497268.8664,Mapping
Blocked,Female,done,19,F_cave.wav,space,4.436312534,102,489609.6221,496493.3681,497258.9311,498008.8643,498775.8204,484959.2483,485725.9327,486476.0792,490376.4818,491126.2585,491892.8802,492659.1809,493426.0013,494192.0702,494959.7285,495725.9769,498018.7658,Mapping
Blocked,Female,done,19,F_cling.wav,None,731.27707,102,489609.6221,496493.3681,497258.9311,498008.8643,498775.8204,499542.7726,485725.9327,486476.0792,490376.4818,491126.2585,491892.8802,492659.1809,493426.0013,494192.0702,494959.7285,495725.9769,498785.487,Mapping
Blocked,Female,done,19,F_cling.wav,None,730.0035895,102,489609.6221,496493.3681,497258.9311,498008.8643,498775.8204,499542.7726,500308.6841,486476.0792,490376.4818,491126.2585,491892.8802,492659.1809,493426.0013,494192.0702,494959.7285,495725.9769,499552.4079,Mapping
Blocked,Female,done,19,F_gnash.wav,None,730.0527479,102,489609.6221,496493.3681,497258.9311,498008.8643,498775.8204,499542.7726,500308.6841,501075.8115,490376.4818,491126.2585,491892.8802,492659.1809,493426.0013,494192.0702,494959.7285,495725.9769,500318.1917,Mapping
Blocked,Female,tile,16,F_lash.wav,None,727.7923896,102,504209.2765,496493.3681,497258.9311,498008.8643,498775.8204,499542.7726,500308.6841,501075.8115,490376.4818,491126.2585,491892.8802,492659.1809,493426.0013,494192.0702,494959.7285,495725.9769,501085.8315,Mapping
Blocked,Female,tile,16,F_bluff.wav,None,719.299428,102,504209.2765,496493.3681,497258.9311,498008.8643,498775.8204,499542.7726,500308.6841,501075.8115,504975.9461,491126.2585,491892.8802,492659.1809,493426.0013,494192.0702,494959.7285,495725.9769,504219.4786,Mapping
Blocked,Female,tile,16,F_lash.wav,None,718.780637,102,504209.2765,496493.3681,497258.9311,498008.8643,498775.8204,499542.7726,500308.6841,501075.8115,504975.9461,505725.1443,491892.8802,492659.1809,493426.0013,494192.0702,494959.7285,495725.9769,504985.8452,Mapping
Blocked,Female,tile,16,F_tile.wav,None,735.8679686,102,504209.2765,496493.3681,497258.9311,498008.8643,498775.8204,499542.7726,500308.6841,501075.8115,504975.9461,505725.1443,506492.0829,492659.1809,493426.0013,494192.0702,494959.7285,495725.9769,505734.4034,Mapping
Blocked,Female,tile,16,F_jaw.wav,space,577.5594129,102,504209.2765,496493.3681,497258.9311,498008.8643,498775.8204,499542.7726,500308.6841,501075.8115,504975.9461,505725.1443,506492.0829,507258.4785,493426.0013,494192.0702,494959.7285,495725.9769,506501.436,Mapping
Blocked,Female,tile,16,F_done.wav,None,731.5893339,102,504209.2765,496493.3681,497258.9311,498008.8643,498775.8204,499542.7726,500308.6841,501075.8115,504975.9461,505725.1443,506492.0829,507258.4785,508025.6387,494192.0702,494959.7285,495725.9769,507267.8087,Mapping
Blocked,Female,tile,16,F_tile.wav,None,729.9179488,102,504209.2765,496493.3681,497258.9311,498008.8643,498775.8204,499542.7726,500308.6841,501075.8115,504975.9461,505725.1443,506492.0829,507258.4785,508025.6387,508792.1503,494959.7285,495725.9769,508035.2036,Mapping
Blocked,Female,tile,16,F_greet.wav,space,588.9468449,102,504209.2765,496493.3681,497258.9311,498008.8643,498775.8204,499542.7726,500308.6841,501075.8115,504975.9461,505725.1443,506492.0829,507258.4785,508025.6387,508792.1503,509558.5799,495725.9769,508801.871,Mapping
Blocked,Female,tile,16,F_bluff.wav,None,725.7351575,102,504209.2765,496493.3681,497258.9311,498008.8643,498775.8204,499542.7726,500308.6841,501075.8115,504975.9461,505725.1443,506492.0829,507258.4785,508025.6387,508792.1503,509558.5799,510325.1676,509568.6172,Mapping
Blocked,Female,tile,16,F_tile.wav,None,725.3425088,102,504209.2765,511093.1013,497258.9311,498008.8643,498775.8204,499542.7726,500308.6841,501075.8115,504975.9461,505725.1443,506492.0829,507258.4785,508025.6387,508792.1503,509558.5799,510325.1676,510334.4554,Mapping
Blocked,Female,tile,16,F_romp.wav,space,560.1100406,102,504209.2765,511093.1013,511859.1084,498008.8643,498775.8204,499542.7726,500308.6841,501075.8115,504975.9461,505725.1443,506492.0829,507258.4785,508025.6387,508792.1503,509558.5799,510325.1676,511102.7667,Mapping
Blocked,Female,tile,16,F_tile.wav,None,719.8599573,102,504209.2765,511093.1013,511859.1084,512625.6935,498775.8204,499542.7726,500308.6841,501075.8115,504975.9461,505725.1443,506492.0829,507258.4785,508025.6387,508792.1503,509558.5799,510325.1676,511869.068,Mapping
Blocked,Female,tile,16,F_done.wav,space,458.7432828,102,504209.2765,511093.1013,511859.1084,512625.6935,513375.046,499542.7726,500308.6841,501075.8115,504975.9461,505725.1443,506492.0829,507258.4785,508025.6387,508792.1503,509558.5799,510325.1676,512636.1374,Mapping
Blocked,Female,tile,16,F_ball.wav,None,734.4120765,102,504209.2765,511093.1013,511859.1084,512625.6935,513375.046,514142.4255,500308.6841,501075.8115,504975.9461,505725.1443,506492.0829,507258.4785,508025.6387,508792.1503,509558.5799,510325.1676,513384.1162,Mapping
Blocked,Female,tile,16,F_lash.wav,None,732.4392485,102,504209.2765,511093.1013,511859.1084,512625.6935,513375.046,514142.4255,514908.7382,501075.8115,504975.9461,505725.1443,506492.0829,507258.4785,508025.6387,508792.1503,509558.5799,510325.1676,514151.9953,Mapping
Blocked,Female,tile,16,F_lash.wav,None,731.6384923,102,504209.2765,511093.1013,511859.1084,512625.6935,513375.046,514142.4255,514908.7382,515674.8238,504975.9461,505725.1443,506492.0829,507258.4785,508025.6387,508792.1503,509558.5799,510325.1676,514918.4469,Mapping
Blocked,Female,tile,15,F_priest.wav,None,735.1608917,102,518809.0676,511093.1013,511859.1084,512625.6935,513375.046,514142.4255,514908.7382,515674.8238,504975.9461,505725.1443,506492.0829,507258.4785,508025.6387,508792.1503,509558.5799,510325.1676,515683.9131,Mapping
Blocked,Female,tile,15,F_romp.wav,None,720.2424034,102,518809.0676,511093.1013,511859.1084,512625.6935,513375.046,514142.4255,514908.7382,515674.8238,519575.8562,505725.1443,506492.0829,507258.4785,508025.6387,508792.1503,509558.5799,510325.1676,518819.2953,Mapping
Blocked,Female,tile,15,F_tile.wav,None,719.1262916,102,518809.0676,511093.1013,511859.1084,512625.6935,513375.046,514142.4255,514908.7382,515674.8238,519575.8562,520342.5594,506492.0829,507258.4785,508025.6387,508792.1503,509558.5799,510325.1676,519586.3176,Mapping
Blocked,Female,tile,15,F_cling.wav,space,510.2170606,102,518809.0676,511093.1013,511859.1084,512625.6935,513375.046,514142.4255,514908.7382,515674.8238,519575.8562,520342.5594,521092.0832,507258.4785,508025.6387,508792.1503,509558.5799,510325.1676,520352.5105,Mapping
Blocked,Female,tile,15,F_tile.wav,None,732.9611312,102,518809.0676,511093.1013,511859.1084,512625.6935,513375.046,514142.4255,514908.7382,515674.8238,519575.8562,520342.5594,521092.0832,521858.4634,508025.6387,508792.1503,509558.5799,510325.1676,521101.9783,Mapping
Blocked,Female,tile,15,F_lash.wav,space,570.3968194,102,518809.0676,511093.1013,511859.1084,512625.6935,513375.046,514142.4255,514908.7382,515674.8238,519575.8562,520342.5594,521092.0832,521858.4634,522625.376,508792.1503,509558.5799,510325.1676,521868.2008,Mapping
Blocked,Female,tile,15,F_ball.wav,None,728.9381819,102,518809.0676,511093.1013,511859.1084,512625.6935,513375.046,514142.4255,514908.7382,515674.8238,519575.8562,520342.5594,521092.0832,521858.4634,522625.376,523391.7141,509558.5799,510325.1676,522635.3932,Mapping
Blocked,Female,tile,15,F_cling.wav,None,729.6498964,102,518809.0676,511093.1013,511859.1084,512625.6935,513375.046,514142.4255,514908.7382,515674.8238,519575.8562,520342.5594,521092.0832,521858.4634,522625.376,523391.7141,524158.6629,510325.1676,523400.9454,Mapping
Blocked,Female,tile,15,F_jaw.wav,None,727.5688581,102,518809.0676,511093.1013,511859.1084,512625.6935,513375.046,514142.4255,514908.7382,515674.8238,519575.8562,520342.5594,521092.0832,521858.4634,522625.376,523391.7141,524158.6629,524925.3077,524168.9122,Mapping
Blocked,Female,tile,15,F_bluff.wav,None,727.0741825,102,518809.0676,525692.1334,511859.1084,512625.6935,513375.046,514142.4255,514908.7382,515674.8238,519575.8562,520342.5594,521092.0832,521858.4634,522625.376,523391.7141,524158.6629,524925.3077,524935.1483,Mapping
