"Condition","Talker","Target","Trial","current_stimulus","response_response","response_time_response","subject_nr","time_Audio1","time_Audio10","time_Audio11","time_Audio12","time_Audio13","time_Audio14","time_Audio15","time_Audio16","time_Audio2","time_Audio3","time_Audio4","time_Audio5","time_Audio6","time_Audio7","time_Audio8","time_Audio9","time_response","title"
"Mixed","Both","cave","24","F_tile.wav","NA","NA","143","57351.7189204","NA","NA","NA","NA","NA","NA","NA","NA","NA","NA","NA","NA","NA","NA","NA","NA","Mapping"
"Mixed","Both","cave","24","M_knife.wav","None","716.308566043","143","57351.7189204","NA","NA","NA","NA","NA","NA","NA","58102.5017375","NA","NA","NA","NA","NA","NA","NA","57366.1014842","Mapping"
"Mixed","Both","cave","24","M_cave.wav","None","735.906509566","143","57351.7189204","NA","NA","NA","NA","NA","NA","NA","58102.5017375","58886.0222008","NA","NA","NA","NA","NA","NA","58112.1790512","Mapping"
"Mixed","Both","cave","24","F_knife.wav","space","551.253805868","143","57351.7189204","NA","NA","NA","NA","NA","NA","NA","58102.5017375","58886.0222008","59636.914773","NA","NA","NA","NA","NA","58895.2703872","Mapping"
"Mixed","Both","cave","24","M_priest.wav","None","737.091246992","143","57351.7189204","NA","NA","NA","NA","NA","NA","NA","58102.5017375","58886.0222008","59636.914773","60403.9651603","NA","NA","NA","NA","59646.2856998","Mapping"
"Mixed","Both","cave","24","F_cave.wav","None","735.499642557","143","57351.7189204","NA","NA","NA","NA","NA","NA","NA","58102.5017375","58886.0222008","59636.914773","60403.9651603","61171.2545354","NA","NA","NA","60413.4257461","Mapping"
"Mixed","Both","cave","24","F_lash.wav","space","609.489585855","143","57351.7189204","NA","NA","NA","NA","NA","NA","NA","58102.5017375","58886.0222008","59636.914773","60403.9651603","61171.2545354","61938.528143","NA","NA","61180.9754421","Mapping"
"Mixed","Both","cave","24","F_gnash.wav","None","731.76951299","143","57351.7189204","NA","NA","NA","NA","NA","NA","NA","58102.5017375","58886.0222008","59636.914773","60403.9651603","61171.2545354","61938.528143","62705.8091706","NA","61948.3275786","Mapping"
"Mixed","Both","cave","24","M_priest.wav","None","730.3142522","143","57351.7189204","NA","NA","NA","NA","NA","NA","NA","58102.5017375","58886.0222008","59636.914773","60403.9651603","61171.2545354","61938.528143","62705.8091706","63473.144303","62715.8748012","Mapping"
"Mixed","Both","cave","24","M_depth.wav","None","726.35100875","143","57351.7189204","64240.3016628","NA","NA","NA","NA","NA","NA","58102.5017375","58886.0222008","59636.914773","60403.9651603","61171.2545354","61938.528143","62705.8091706","63473.144303","63482.4694726","Mapping"
"Mixed","Both","cave","24","M_romp.wav","None","724.362739944","143","57351.7189204","64240.3016628","65007.6392684","NA","NA","NA","NA","NA","58102.5017375","58886.0222008","59636.914773","60403.9651603","61171.2545354","61938.528143","62705.8091706","63473.144303","64250.1051176","Mapping"
"Mixed","Both","cave","24","M_cave.wav","None","723.31063624","143","57351.7189204","64240.3016628","65007.6392684","65758.192991","NA","NA","NA","NA","58102.5017375","58886.0222008","59636.914773","60403.9651603","61171.2545354","61938.528143","62705.8091706","63473.144303","65016.8429344","Mapping"
"Mixed","Both","cave","24","F_greet.wav","space","478.404203197","143","57351.7189204","64240.3016628","65007.6392684","65758.192991","66525.4267156","NA","NA","NA","58102.5017375","58886.0222008","59636.914773","60403.9651603","61171.2545354","61938.528143","62705.8091706","63473.144303","65767.933066","Mapping"
"Mixed","Both","cave","24","M_cad.wav","None","733.816833235","143","57351.7189204","64240.3016628","65007.6392684","65758.192991","66525.4267156","67292.8085326","NA","NA","58102.5017375","58886.0222008","59636.914773","60403.9651603","61171.2545354","61938.528143","62705.8091706","63473.144303","66534.7194225","Mapping"
"Mixed","Both","cave","24","F_cave.wav","None","732.60241549","143","57351.7189204","64240.3016628","65007.6392684","65758.192991","66525.4267156","67292.8085326","68059.943323","NA","58102.5017375","58886.0222008","59636.914773","60403.9651603","61171.2545354","61938.528143","62705.8091706","63473.144303","67302.1021668","Mapping"
"Mixed","Both","cave","24","F_knife.wav","space","488.686870667","143","57351.7189204","64240.3016628","65007.6392684","65758.192991","66525.4267156","67292.8085326","68059.943323","68826.9093069","58102.5017375","58886.0222008","59636.914773","60403.9651603","61171.2545354","61938.528143","62705.8091706","63473.144303","68069.6144532","Mapping"
"Mixed","Both","ball","10","M_done.wav","None","723.250966519","143","71962.8876058","64240.3016628","65007.6392684","65758.192991","66525.4267156","67292.8085326","68059.943323","68826.9093069","58102.5017375","58886.0222008","59636.914773","60403.9651603","61171.2545354","61938.528143","62705.8091706","63473.144303","68836.4895413","Mapping"
"Mixed","Both","ball","10","M_cave.wav","None","722.105184337","143","71962.8876058","64240.3016628","65007.6392684","65758.192991","66525.4267156","67292.8085326","68059.943323","68826.9093069","72713.4759552","58886.0222008","59636.914773","60403.9651603","61171.2545354","61938.528143","62705.8091706","63473.144303","71972.297797","Mapping"
"Mixed","Both","ball","10","F_depth.wav","None","733.902473119","143","71962.8876058","64240.3016628","65007.6392684","65758.192991","66525.4267156","67292.8085326","68059.943323","68826.9093069","72713.4759552","73480.8723031","59636.914773","60403.9651603","61171.2545354","61938.528143","62705.8091706","63473.144303","72722.9665305","Mapping"
"Mixed","Both","ball","10","M_priest.wav","None","732.405474526","143","71962.8876058","64240.3016628","65007.6392684","65758.192991","66525.4267156","67292.8085326","68059.943323","68826.9093069","72713.4759552","73480.8723031","74248.6436735","60403.9651603","61171.2545354","61938.528143","62705.8091706","63473.144303","73490.2518865","Mapping"
"Mixed","Both","ball","10","F_dime.wav","None","727.505138377","143","71962.8876058","64240.3016628","65007.6392684","65758.192991","66525.4267156","67292.8085326","68059.943323","68826.9093069","72713.4759552","73480.8723031","74248.6436735","75015.0658283","61171.2545354","61938.528143","62705.8091706","63473.144303","74257.9286511","Mapping"
"Mixed","Both","ball","10","F_ball.wav","None","726.397074992","143","71962.8876058","64240.3016628","65007.6392684","65758.192991","66525.4267156","67292.8085326","68059.943323","68826.9093069","72713.4759552","73480.8723031","74248.6436735","75015.0658283","75782.3097556","61938.528143","62705.8091706","63473.144303","75024.89278","Mapping"
"Mixed","Both","ball","10","M_depth.wav","space","470.18926125","143","71962.8876058","64240.3016628","65007.6392684","65758.192991","66525.4267156","67292.8085326","68059.943323","68826.9093069","72713.4759552","73480.8723031","74248.6436735","75015.0658283","75782.3097556","76549.0803445","62705.8091706","63473.144303","75791.8439237","Mapping"
"Mixed","Both","ball","10","M_jaw.wav","None","721.626590006","143","71962.8876058","64240.3016628","65007.6392684","65758.192991","66525.4267156","67292.8085326","68059.943323","68826.9093069","72713.4759552","73480.8723031","74248.6436735","75015.0658283","75782.3097556","76549.0803445","77299.7864875","63473.144303","76557.9847344","Mapping"
"Mixed","Both","ball","10","M_ball.wav","None","737.129274989","143","71962.8876058","64240.3016628","65007.6392684","65758.192991","66525.4267156","67292.8085326","68059.943323","68826.9093069","72713.4759552","73480.8723031","74248.6436735","75015.0658283","75782.3097556","76549.0803445","77299.7864875","78067.0560759","77308.9536715","Mapping"
"Mixed","Both","ball","10","F_greet.wav","space","361.304101534","143","71962.8876058","78834.8070411","65007.6392684","65758.192991","66525.4267156","67292.8085326","68059.943323","68826.9093069","72713.4759552","73480.8723031","74248.6436735","75015.0658283","75782.3097556","76549.0803445","77299.7864875","78067.0560759","78076.6752657","Mapping"
"Mixed","Both","ball","10","M_bluff.wav","None","730.705969967","143","71962.8876058","78834.8070411","79601.7863193","65758.192991","66525.4267156","67292.8085326","68059.943323","68826.9093069","72713.4759552","73480.8723031","74248.6436735","75015.0658283","75782.3097556","76549.0803445","77299.7864875","78067.0560759","78844.3776913","Mapping"
"Mixed","Both","ball","10","M_ball.wav","None","729.550603661","143","71962.8876058","78834.8070411","79601.7863193","80369.5320287","66525.4267156","67292.8085326","68059.943323","68826.9093069","72713.4759552","73480.8723031","74248.6436735","75015.0658283","75782.3097556","76549.0803445","77299.7864875","78067.0560759","79611.8553507","Mapping"
"Mixed","Both","ball","10","F_done.wav","space","371.109720552","143","71962.8876058","78834.8070411","79601.7863193","80369.5320287","81136.471424","67292.8085326","68059.943323","68826.9093069","72713.4759552","73480.8723031","74248.6436735","75015.0658283","75782.3097556","76549.0803445","77299.7864875","78067.0560759","80378.7721767","Mapping"
"Mixed","Both","ball","10","F_ball.wav","None","722.993737552","143","71962.8876058","78834.8070411","79601.7863193","80369.5320287","81136.471424","81886.4936843","68059.943323","68826.9093069","72713.4759552","73480.8723031","74248.6436735","75015.0658283","75782.3097556","76549.0803445","77299.7864875","78067.0560759","81146.6761808","Mapping"
"Mixed","Both","ball","10","F_done.wav","space","501.852543559","143","71962.8876058","78834.8070411","79601.7863193","80369.5320287","81136.471424","81886.4936843","82654.1231459","68826.9093069","72713.4759552","73480.8723031","74248.6436735","75015.0658283","75782.3097556","76549.0803445","77299.7864875","78067.0560759","81895.9811678","Mapping"
"Mixed","Both","ball","10","F_knife.wav","None","731.775077875","143","71962.8876058","78834.8070411","79601.7863193","80369.5320287","81136.471424","81886.4936843","82654.1231459","83421.3225527","72713.4759552","73480.8723031","74248.6436735","75015.0658283","75782.3097556","76549.0803445","77299.7864875","78067.0560759","82663.6251605","Mapping"
"Mixed","Both","done","38","F_jolt.wav","None","728.92360785","143","86540.3908272","78834.8070411","79601.7863193","80369.5320287","81136.471424","81886.4936843","82654.1231459","83421.3225527","72713.4759552","73480.8723031","74248.6436735","75015.0658283","75782.3097556","76549.0803445","77299.7864875","78067.0560759","83430.6727651","Mapping"
"Mixed","Both","done","38","M_depth.wav","None","722.242146498","143","86540.3908272","78834.8070411","79601.7863193","80369.5320287","81136.471424","81886.4936843","82654.1231459","83421.3225527","87290.8459248","73480.8723031","74248.6436735","75015.0658283","75782.3097556","76549.0803445","77299.7864875","78067.0560759","86549.8643982","Mapping"
"Mixed","Both","done","38","F_done.wav","None","734.46794413","143","86540.3908272","78834.8070411","79601.7863193","80369.5320287","81136.471424","81886.4936843","82654.1231459","83421.3225527","87290.8459248","88057.7398721","74248.6436735","75015.0658283","75782.3097556","76549.0803445","77299.7864875","78067.0560759","87300.2459133","Mapping"
"Mixed","Both","done","38","F_jolt.wav","space","442.494787392","143","86540.3908272","78834.8070411","79601.7863193","80369.5320287","81136.471424","81886.4936843","82654.1231459","83421.3225527","87290.8459248","88057.7398721","88825.1952714","75015.0658283","75782.3097556","76549.0803445","77299.7864875","78067.0560759","88067.1837629","Mapping"
"Mixed","Both","done","38","M_done.wav","None","725.828821538","143","86540.3908272","78834.8070411","79601.7863193","80369.5320287","81136.471424","81886.4936843","82654.1231459","83421.3225527","87290.8459248","88057.7398721","88825.1952714","89593.056301","75782.3097556","76549.0803445","77299.7864875","78067.0560759","88834.6580215","Mapping"
"Mixed","Both","done","38","M_romp.wav","None","721.160053392","143","86540.3908272","78834.8070411","79601.7863193","80369.5320287","81136.471424","81886.4936843","82654.1231459","83421.3225527","87290.8459248","88057.7398721","88825.1952714","89593.056301","90343.1094781","76549.0803445","77299.7864875","78067.0560759","89602.4878249","Mapping"
"Mixed","Both","done","38","M_priest.wav","space","0.023806001991","143","86540.3908272","78834.8070411","79601.7863193","80369.5320287","81136.471424","81886.4936843","82654.1231459","83421.3225527","87290.8459248","88057.7398721","88825.1952714","89593.056301","90343.1094781","91109.8704827","77299.7864875","78067.0560759","90352.5437845","Mapping"
"Mixed","Both","done","38","F_done.wav","None","729.602853302","143","86540.3908272","78834.8070411","79601.7863193","80369.5320287","81136.471424","81886.4936843","82654.1231459","83421.3225527","87290.8459248","88057.7398721","88825.1952714","89593.056301","90343.1094781","91109.8704827","91877.4612981","78067.0560759","91119.5100776","Mapping"
"Mixed","Both","done","38","F_jaw.wav","space","334.676262457","143","86540.3908272","78834.8070411","79601.7863193","80369.5320287","81136.471424","81886.4936843","82654.1231459","83421.3225527","87290.8459248","88057.7398721","88825.1952714","89593.056301","90343.1094781","91109.8704827","91877.4612981","92644.6888394","91886.9132273","Mapping"
"Mixed","Both","done","38","M_done.wav","None","723.429975682","143","86540.3908272","93395.0202691","79601.7863193","80369.5320287","81136.471424","81886.4936843","82654.1231459","83421.3225527","87290.8459248","88057.7398721","88825.1952714","89593.056301","90343.1094781","91109.8704827","91877.4612981","92644.6888394","92653.8226331","Mapping"
"Mixed","Both","done","38","F_jolt.wav","None","735.383394873","143","86540.3908272","93395.0202691","94162.2326612","80369.5320287","81136.471424","81886.4936843","82654.1231459","83421.3225527","87290.8459248","88057.7398721","88825.1952714","89593.056301","90343.1094781","91109.8704827","91877.4612981","92644.6888394","93404.5157911","Mapping"
"Mixed","Both","done","38","M_jaw.wav","space","0.0234969193116","143","86540.3908272","93395.0202691","94162.2326612","94929.6104588","81136.471424","81886.4936843","82654.1231459","83421.3225527","87290.8459248","88057.7398721","88825.1952714","89593.056301","90343.1094781","91109.8704827","91877.4612981","92644.6888394","94171.8237165","Mapping"
"Mixed","Both","done","38","M_ball.wav","None","726.400166634","143","86540.3908272","93395.0202691","94162.2326612","94929.6104588","95696.7882238","81886.4936843","82654.1231459","83421.3225527","87290.8459248","88057.7398721","88825.1952714","89593.056301","90343.1094781","91109.8704827","91877.4612981","92644.6888394","94938.7937196","Mapping"
"Mixed","Both","done","38","F_romp.wav","None","722.122497857","143","86540.3908272","93395.0202691","94162.2326612","94929.6104588","95696.7882238","96463.9944325","82654.1231459","83421.3225527","87290.8459248","88057.7398721","88825.1952714","89593.056301","90343.1094781","91109.8704827","91877.4612981","92644.6888394","95705.8635845","Mapping"
"Mixed","Both","done","38","M_cad.wav","None","720.265625976","143","86540.3908272","93395.0202691","94162.2326612","94929.6104588","95696.7882238","96463.9944325","97214.2695932","83421.3225527","87290.8459248","88057.7398721","88825.1952714","89593.056301","90343.1094781","91109.8704827","91877.4612981","92644.6888394","96473.6232065","Mapping"
"Mixed","Both","done","38","F_romp.wav","None","733.151809662","143","86540.3908272","93395.0202691","94162.2326612","94929.6104588","95696.7882238","96463.9944325","97214.2695932","97981.7355042","87290.8459248","88057.7398721","88825.1952714","89593.056301","90343.1094781","91109.8704827","91877.4612981","92644.6888394","97224.4567274","Mapping"
"Mixed","Both","cave","19","M_ball.wav","None","729.87059399","143","101084.166751","93395.0202691","94162.2326612","94929.6104588","95696.7882238","96463.9944325","97214.2695932","97981.7355042","87290.8459248","88057.7398721","88825.1952714","89593.056301","90343.1094781","91109.8704827","91877.4612981","92644.6888394","97990.5140622","Mapping"
"Mixed","Both","cave","19","M_cave.wav","None","735.21798919","143","101084.166751","93395.0202691","94162.2326612","94929.6104588","95696.7882238","96463.9944325","97214.2695932","97981.7355042","101851.359975","88057.7398721","88825.1952714","89593.056301","90343.1094781","91109.8704827","91877.4612981","92644.6888394","101093.718851","Mapping"
"Mixed","Both","cave","19","F_tile.wav","space","423.394606565","143","101084.166751","93395.0202691","94162.2326612","94929.6104588","95696.7882238","96463.9944325","97214.2695932","97981.7355042","101851.359975","102618.543614","88825.1952714","89593.056301","90343.1094781","91109.8704827","91877.4612981","92644.6888394","101861.821651","Mapping"
"Mixed","Both","cave","19","F_cave.wav","None","726.109238225","143","101084.166751","93395.0202691","94162.2326612","94929.6104588","95696.7882238","96463.9944325","97214.2695932","97981.7355042","101851.359975","102618.543614","103385.740547","89593.056301","90343.1094781","91109.8704827","91877.4612981","92644.6888394","102627.810969","Mapping"
"Mixed","Both","cave","19","F_knife.wav","space","474.166726461","143","101084.166751","93395.0202691","94162.2326612","94929.6104588","95696.7882238","96463.9944325","97214.2695932","97981.7355042","101851.359975","102618.543614","103385.740547","104136.298289","90343.1094781","91109.8704827","91877.4612981","92644.6888394","103395.050877","Mapping"
"Mixed","Both","cave","19","F_cling.wav","None","733.010828379","143","101084.166751","93395.0202691","94162.2326612","94929.6104588","95696.7882238","96463.9944325","97214.2695932","97981.7355042","101851.359975","102618.543614","103385.740547","104136.298289","104903.555202","91109.8704827","91877.4612981","92644.6888394","104145.936647","Mapping"
"Mixed","Both","cave","19","F_cave.wav","None","732.870156178","143","101084.166751","93395.0202691","94162.2326612","94929.6104588","95696.7882238","96463.9944325","97214.2695932","97981.7355042","101851.359975","102618.543614","103385.740547","104136.298289","104903.555202","105670.724001","91877.4612981","92644.6888394","104913.214274","Mapping"
"Mixed","Both","cave","19","F_greet.wav","space","453.163607628","143","101084.166751","93395.0202691","94162.2326612","94929.6104588","95696.7882238","96463.9944325","97214.2695932","97981.7355042","101851.359975","102618.543614","103385.740547","104136.298289","104903.555202","105670.724001","106438.086649","92644.6888394","105679.981771","Mapping"
"Mixed","Both","cave","19","F_knife.wav","None","724.192078342","143","101084.166751","93395.0202691","94162.2326612","94929.6104588","95696.7882238","96463.9944325","97214.2695932","97981.7355042","101851.359975","102618.543614","103385.740547","104136.298289","104903.555202","105670.724001","106438.086649","107205.373551","106447.32216","Mapping"
"Mixed","Both","cave","19","M_done.wav","None","719.858449767","143","101084.166751","107956.075675","94162.2326612","94929.6104588","95696.7882238","96463.9944325","97214.2695932","97981.7355042","101851.359975","102618.543614","103385.740547","104136.298289","104903.555202","105670.724001","106438.086649","107205.373551","107214.992122","Mapping"
"Mixed","Both","cave","19","M_romp.wav","None","732.019630959","143","101084.166751","107956.075675","108723.174292","94929.6104588","95696.7882238","96463.9944325","97214.2695932","97981.7355042","101851.359975","102618.543614","103385.740547","104136.298289","104903.555202","105670.724001","106438.086649","107205.373551","107965.540898","Mapping"
"Mixed","Both","cave","19","F_ball.wav","None","727.388581494","143","101084.166751","107956.075675","108723.174292","109490.386375","95696.7882238","96463.9944325","97214.2695932","97981.7355042","101851.359975","102618.543614","103385.740547","104136.298289","104903.555202","105670.724001","106438.086649","107205.373551","108732.921478","Mapping"
"Mixed","Both","cave","19","M_park.wav","None","723.754603532","143","101084.166751","107956.075675","108723.174292","109490.386375","110257.464897","96463.9944325","97214.2695932","97981.7355042","101851.359975","102618.543614","103385.740547","104136.298289","104903.555202","105670.724001","106438.086649","107205.373551","109499.50471","Mapping"
"Mixed","Both","cave","19","M_cave.wav","None","722.538330825","143","101084.166751","107956.075675","108723.174292","109490.386375","110257.464897","111007.883203","97214.2695932","97981.7355042","101851.359975","102618.543614","103385.740547","104136.298289","104903.555202","105670.724001","106438.086649","107205.373551","110266.829949","Mapping"
"Mixed","Both","cave","19","M_romp.wav","space","539.64882053","143","101084.166751","107956.075675","108723.174292","109490.386375","110257.464897","111007.883203","111775.345713","97981.7355042","101851.359975","102618.543614","103385.740547","104136.298289","104903.555202","105670.724001","106438.086649","107205.373551","111017.343171","Mapping"
"Mixed","Both","cave","19","M_cad.wav","None","729.876159108","143","101084.166751","107956.075675","108723.174292","109490.386375","110257.464897","111007.883203","111775.345713","112542.424853","101851.359975","102618.543614","103385.740547","104136.298289","104903.555202","105670.724001","106438.086649","107205.373551","111784.81712","Mapping"
"Mixed","Both","ball","3","F_depth.wav","None","725.42257281","143","115644.854863","107956.075675","108723.174292","109490.386375","110257.464897","111007.883203","111775.345713","112542.424853","101851.359975","102618.543614","103385.740547","104136.298289","104903.555202","105670.724001","106438.086649","107205.373551","112551.924085","Mapping"
"Mixed","Both","ball","3","M_greet.wav","None","735.27673143","143","115644.854863","107956.075675","108723.174292","109490.386375","110257.464897","111007.883203","111775.345713","112542.424853","116411.67461","102618.543614","103385.740547","104136.298289","104903.555202","105670.724001","106438.086649","107205.373551","115654.205076","Mapping"
"Mixed","Both","ball","3","F_jolt.wav","None","735.460687312","143","115644.854863","107956.075675","108723.174292","109490.386375","110257.464897","111007.883203","111775.345713","112542.424853","116411.67461","117179.437633","103385.740547","104136.298289","104903.555202","105670.724001","106438.086649","107205.373551","116421.237531","Mapping"
"Mixed","Both","ball","3","F_ball.wav","None","730.479657883","143","115644.854863","107956.075675","108723.174292","109490.386375","110257.464897","111007.883203","111775.345713","112542.424853","116411.67461","117179.437633","117946.565622","104136.298289","104903.555202","105670.724001","106438.086649","107205.373551","117189.120512","Mapping"
"Mixed","Both","ball","3","M_jaw.wav","space","503.876366769","143","115644.854863","107956.075675","108723.174292","109490.386375","110257.464897","111007.883203","111775.345713","112542.424853","116411.67461","117179.437633","117946.565622","118713.754208","104903.555202","105670.724001","106438.086649","107205.373551","117956.908577","Mapping"
"Mixed","Both","ball","3","M_ball.wav","None","721.397804678","143","115644.854863","107956.075675","108723.174292","109490.386375","110257.464897","111007.883203","111775.345713","112542.424853","116411.67461","117179.437633","117946.565622","118713.754208","119464.102333","105670.724001","106438.086649","107205.373551","118723.430594","Mapping"
"Mixed","Both","ball","3","F_dime.wav","space","459.717381978","143","115644.854863","107956.075675","108723.174292","109490.386375","110257.464897","111007.883203","111775.345713","112542.424853","116411.67461","117179.437633","117946.565622","118713.754208","119464.102333","120231.675216","106438.086649","107205.373551","119472.992192","Mapping"
"Mixed","Both","ball","3","M_jolt.wav","None","729.307905654","143","115644.854863","107956.075675","108723.174292","109490.386375","110257.464897","111007.883203","111775.345713","112542.424853","116411.67461","117179.437633","117946.565622","118713.754208","119464.102333","120231.675216","120998.704889","107205.373551","120241.2706","Mapping"
"Mixed","Both","ball","3","F_done.wav","None","729.312233976","143","115644.854863","107956.075675","108723.174292","109490.386375","110257.464897","111007.883203","111775.345713","112542.424853","116411.67461","117179.437633","117946.565622","118713.754208","119464.102333","120231.675216","120998.704889","121765.564519","121007.943491","Mapping"
"Mixed","Both","ball","3","M_lash.wav","None","725.230578566","143","115644.854863","122532.711367","108723.174292","109490.386375","110257.464897","111007.883203","111775.345713","112542.424853","116411.67461","117179.437633","117946.565622","118713.754208","119464.102333","120231.675216","120998.704889","121765.564519","121774.94843","Mapping"
"Mixed","Both","ball","3","M_done.wav","None","728.125332389","143","115644.854863","122532.711367","123300.137704","109490.386375","110257.464897","111007.883203","111775.345713","112542.424853","116411.67461","117179.437633","117946.565622","118713.754208","119464.102333","120231.675216","120998.704889","121765.564519","122541.898028","Mapping"
"Mixed","Both","ball","3","M_lash.wav","None","723.501084605","143","115644.854863","122532.711367","123300.137704","124051.059338","110257.464897","111007.883203","111775.345713","112542.424853","116411.67461","117179.437633","117946.565622","118713.754208","119464.102333","120231.675216","120998.704889","121765.564519","123309.461019","Mapping"
"Mixed","Both","ball","3","M_ball.wav","None","735.324961948","143","115644.854863","122532.711367","123300.137704","124051.059338","124817.914021","111007.883203","111775.345713","112542.424853","116411.67461","117179.437633","117946.565622","118713.754208","119464.102333","120231.675216","120998.704889","121765.564519","124060.736033","Mapping"
"Mixed","Both","ball","3","F_greet.wav","space","385.762498481","143","115644.854863","122532.711367","123300.137704","124051.059338","124817.914021","125585.56698","111775.345713","112542.424853","116411.67461","117179.437633","117946.565622","118713.754208","119464.102333","120231.675216","120998.704889","121765.564519","124826.825213","Mapping"
"Mixed","Both","ball","3","F_ball.wav","None","726.302469149","143","115644.854863","122532.711367","123300.137704","124051.059338","124817.914021","125585.56698","126352.616439","112542.424853","116411.67461","117179.437633","117946.565622","118713.754208","119464.102333","120231.675216","120998.704889","121765.564519","125595.210903","Mapping"
"Mixed","Both","ball","3","F_cad.wav","space","450.545251253","143","115644.854863","122532.711367","123300.137704","124051.059338","124817.914021","125585.56698","126352.616439","127119.997638","116411.67461","117179.437633","117946.565622","118713.754208","119464.102333","120231.675216","120998.704889","121765.564519","126361.958613","Mapping"
"Mixed","Both","cave","16","F_reek.wav","None","720.682695624","143","130238.907618","122532.711367","123300.137704","124051.059338","124817.914021","125585.56698","126352.616439","127119.997638","116411.67461","117179.437633","117946.565622","118713.754208","119464.102333","120231.675216","120998.704889","121765.564519","127129.45606","Mapping"
"Mixed","Both","cave","16","F_ball.wav","None","721.584233805","143","130238.907618","122532.711367","123300.137704","124051.059338","124817.914021","125585.56698","126352.616439","127119.997638","130989.11909","117179.437633","117946.565622","118713.754208","119464.102333","120231.675216","120998.704889","121765.564519","130248.484451","Mapping"
"Mixed","Both","cave","16","F_cave.wav","None","734.437645529","143","130238.907618","122532.711367","123300.137704","124051.059338","124817.914021","125585.56698","126352.616439","127119.997638","130989.11909","131756.60386","117946.565622","118713.754208","119464.102333","120231.675216","120998.704889","121765.564519","130998.590805","Mapping"
"Mixed","Both","cave","16","M_romp.wav","space","388.864086592","143","130238.907618","122532.711367","123300.137704","124051.059338","124817.914021","125585.56698","126352.616439","127119.997638","130989.11909","131756.60386","132524.024323","118713.754208","119464.102333","120231.675216","120998.704889","121765.564519","131767.476114","Mapping"
"Mixed","Both","cave","16","F_greet.wav","None","724.995300639","143","130238.907618","122532.711367","123300.137704","124051.059338","124817.914021","125585.56698","126352.616439","127119.997638","130989.11909","131756.60386","132524.024323","133291.213527","119464.102333","120231.675216","120998.704889","121765.564519","132533.482745","Mapping"
"Mixed","Both","cave","16","F_tile.wav","None","720.281702816","143","130238.907618","122532.711367","123300.137704","124051.059338","124817.914021","125585.56698","126352.616439","127119.997638","130989.11909","131756.60386","132524.024323","133291.213527","134041.726749","120231.675216","120998.704889","121765.564519","133301.358305","Mapping"
"Mixed","Both","cave","16","M_cling.wav","None","733.299592626","143","130238.907618","122532.711367","123300.137704","124051.059338","124817.914021","125585.56698","126352.616439","127119.997638","130989.11909","131756.60386","132524.024323","133291.213527","134041.726749","134808.607402","120998.704889","121765.564519","134051.313476","Mapping"
"Mixed","Both","cave","16","M_lash.wav","None","732.67847125","143","130238.907618","122532.711367","123300.137704","124051.059338","124817.914021","125585.56698","126352.616439","127119.997638","130989.11909","131756.60386","132524.024323","133291.213527","134041.726749","134808.607402","135576.082588","121765.564519","134818.037071","Mapping"
"Mixed","Both","cave","16","M_done.wav","None","727.71351866","143","130238.907618","122532.711367","123300.137704","124051.059338","124817.914021","125585.56698","126352.616439","127119.997638","130989.11909","131756.60386","132524.024323","133291.213527","134041.726749","134808.607402","135576.082588","136343.226344","135586.000126","Mapping"
"Mixed","Both","cave","16","M_cave.wav","None","724.349136464","143","130238.907618","137094.486519","123300.137704","124051.059338","124817.914021","125585.56698","126352.616439","127119.997638","130989.11909","131756.60386","132524.024323","133291.213527","134041.726749","134808.607402","135576.082588","136343.226344","136352.771024","Mapping"
"Mixed","Both","cave","16","M_park.wav","space","332.167661283","143","130238.907618","137094.486519","137860.883631","124051.059338","124817.914021","125585.56698","126352.616439","127119.997638","130989.11909","131756.60386","132524.024323","133291.213527","134041.726749","134808.607402","135576.082588","136343.226344","137104.016977","Mapping"
"Mixed","Both","cave","16","F_cave.wav","None","731.507955585","143","130238.907618","137094.486519","137860.883631","138628.289872","124817.914021","125585.56698","126352.616439","127119.997638","130989.11909","131756.60386","132524.024323","133291.213527","134041.726749","134808.607402","135576.082588","136343.226344","137871.00955","Mapping"
"Mixed","Both","cave","16","M_greet.wav","space","526.094830944","143","130238.907618","137094.486519","137860.883631","138628.289872","139395.372722","125585.56698","126352.616439","127119.997638","130989.11909","131756.60386","132524.024323","133291.213527","134041.726749","134808.607402","135576.082588","136343.226344","138638.068594","Mapping"
"Mixed","Both","cave","16","F_cling.wav","None","724.379434949","143","130238.907618","137094.486519","137860.883631","138628.289872","139395.372722","140145.67138","126352.616439","127119.997638","130989.11909","131756.60386","132524.024323","133291.213527","134041.726749","134808.607402","135576.082588","136343.226344","139404.197965","Mapping"
"Mixed","Both","cave","16","M_cave.wav","None","736.365317134","143","130238.907618","137094.486519","137860.883631","138628.289872","139395.372722","140145.67138","140913.035265","127119.997638","130989.11909","131756.60386","132524.024323","133291.213527","134041.726749","134808.607402","135576.082588","136343.226344","140155.229663","Mapping"
"Mixed","Both","cave","16","F_park.wav","space","457.631415571","143","130238.907618","137094.486519","137860.883631","138628.289872","139395.372722","140145.67138","140913.035265","141680.568575","130989.11909","131756.60386","132524.024323","133291.213527","134041.726749","134808.607402","135576.082588","136343.226344","140922.455041","Mapping"
"Mixed","Both","cave","21","M_cling.wav","None","730.158121674","143","144799.818332","137094.486519","137860.883631","138628.289872","139395.372722","140145.67138","140913.035265","141680.568575","130989.11909","131756.60386","132524.024323","133291.213527","134041.726749","134808.607402","135576.082588","136343.226344","141690.207242","Mapping"
"Mixed","Both","cave","21","M_reek.wav","None","735.975763528","143","144799.818332","137094.486519","137860.883631","138628.289872","139395.372722","140145.67138","140913.035265","141680.568575","145566.646117","131756.60386","132524.024323","133291.213527","134041.726749","134808.607402","135576.082588","136343.226344","144809.232542","Mapping"
"Mixed","Both","cave","21","M_depth.wav","None","735.527158715","143","144799.818332","137094.486519","137860.883631","138628.289872","139395.372722","140145.67138","140913.035265","141680.568575","145566.646117","146334.111719","132524.024323","133291.213527","134041.726749","134808.607402","135576.082588","136343.226344","145576.059091","Mapping"
"Mixed","Both","cave","21","M_cave.wav","None","730.894872569","143","144799.818332","137094.486519","137860.883631","138628.289872","139395.372722","140145.67138","140913.035265","141680.568575","145566.646117","146334.111719","147101.251147","133291.213527","134041.726749","134808.607402","135576.082588","136343.226344","146343.689789","Mapping"
"Mixed","Both","cave","21","F_lash.wav","space","413.05597953","143","144799.818332","137094.486519","137860.883631","138628.289872","139395.372722","140145.67138","140913.035265","141680.568575","145566.646117","146334.111719","147101.251147","147868.450863","134041.726749","134808.607402","135576.082588","136343.226344","147110.85426","Mapping"
"Mixed","Both","cave","21","F_cave.wav","None","722.434449941","143","144799.818332","137094.486519","137860.883631","138628.289872","139395.372722","140145.67138","140913.035265","141680.568575","145566.646117","146334.111719","147101.251147","147868.450863","148618.89483","134808.607402","135576.082588","136343.226344","147878.011001","Mapping"
"Mixed","Both","cave","21","F_lash.wav","space","559.621786815","143","144799.818332","137094.486519","137860.883631","138628.289872","139395.372722","140145.67138","140913.035265","141680.568575","145566.646117","146334.111719","147101.251147","147868.450863","148618.89483","149386.187916","135576.082588","136343.226344","148628.216908","Mapping"
"Mixed","Both","cave","21","F_knife.wav","None","730.675052968","143","144799.818332","137094.486519","137860.883631","138628.289872","139395.372722","140145.67138","140913.035265","141680.568575","145566.646117","146334.111719","147101.251147","147868.450863","148618.89483","149386.187916","150153.643933","136343.226344","149395.344279","Mapping"
"Mixed","Both","cave","21","M_jaw.wav","None","725.231196964","143","144799.818332","137094.486519","137860.883631","138628.289872","139395.372722","140145.67138","140913.035265","141680.568575","145566.646117","146334.111719","147101.251147","147868.450863","148618.89483","149386.187916","150153.643933","150920.684736","150163.86724","Mapping"
"Mixed","Both","cave","21","F_cling.wav","None","721.877944772","143","144799.818332","151671.133959","137860.883631","138628.289872","139395.372722","140145.67138","140913.035265","141680.568575","145566.646117","146334.111719","147101.251147","147868.450863","148618.89483","149386.187916","150153.643933","150920.684736","150930.264661","Mapping"
"Mixed","Both","cave","21","F_cave.wav","None","734.932316584","143","144799.818332","151671.133959","152438.567098","138628.289872","139395.372722","140145.67138","140913.035265","141680.568575","145566.646117","146334.111719","147101.251147","147868.450863","148618.89483","149386.187916","150153.643933","150920.684736","151680.48108","Mapping"
"Mixed","Both","cave","21","M_lash.wav","space","339.686972089","143","144799.818332","151671.133959","152438.567098","153205.673754","139395.372722","140145.67138","140913.035265","141680.568575","145566.646117","146334.111719","147101.251147","147868.450863","148618.89483","149386.187916","150153.643933","150920.684736","152448.047471","Mapping"
"Mixed","Both","cave","21","M_tile.wav","None","725.524907932","143","144799.818332","151671.133959","152438.567098","153205.673754","153972.549461","140145.67138","140913.035265","141680.568575","145566.646117","146334.111719","147101.251147","147868.450863","148618.89483","149386.187916","150153.643933","150920.684736","153215.292326","Mapping"
"Mixed","Both","cave","21","F_done.wav","None","727.739798022","143","144799.818332","151671.133959","152438.567098","153205.673754","153972.549461","154740.048762","140913.035265","141680.568575","145566.646117","146334.111719","147101.251147","147868.450863","148618.89483","149386.187916","150153.643933","150920.684736","153981.663159","Mapping"
"Mixed","Both","cave","21","M_cave.wav","None","722.888310673","143","144799.818332","151671.133959","152438.567098","153205.673754","153972.549461","154740.048762","155490.417292","141680.568575","145566.646117","146334.111719","147101.251147","147868.450863","148618.89483","149386.187916","150153.643933","150920.684736","154749.570564","Mapping"
"Mixed","Both","cave","21","F_bluff.wav","space","471.607730724","143","144799.818332","151671.133959","152438.567098","153205.673754","153972.549461","154740.048762","155490.417292","156257.902372","145566.646117","146334.111719","147101.251147","147868.450863","148618.89483","149386.187916","150153.643933","150920.684736","155500.020714","Mapping"
"Mixed","Both","tile","28","M_jaw.wav","None","733.44644811","143","159376.862746","151671.133959","152438.567098","153205.673754","153972.549461","154740.048762","155490.417292","156257.902372","145566.646117","146334.111719","147101.251147","147868.450863","148618.89483","149386.187916","150153.643933","150920.684736","156267.772607","Mapping"
"Mixed","Both","tile","28","M_tile.wav","None","734.705695417","143","159376.862746","151671.133959","152438.567098","153205.673754","153972.549461","154740.048762","155490.417292","156257.902372","160143.872323","146334.111719","147101.251147","147868.450863","148618.89483","149386.187916","150153.643933","150920.684736","159386.661563","Mapping"
"Mixed","Both","tile","28","M_bluff.wav","space","434.238725808","143","159376.862746","151671.133959","152438.567098","153205.673754","153972.549461","154740.048762","155490.417292","156257.902372","160143.872323","160911.512296","147101.251147","147868.450863","148618.89483","149386.187916","150153.643933","150920.684736","160153.25067","Mapping"
"Mixed","Both","tile","28","F_knife.wav","None","726.605764357","143","159376.862746","151671.133959","152438.567098","153205.673754","153972.549461","154740.048762","155490.417292","156257.902372","160143.872323","160911.512296","161678.521255","147868.450863","148618.89483","149386.187916","150153.643933","150920.684736","160921.375421","Mapping"
"Mixed","Both","tile","28","F_tile.wav","None","723.808089853","143","159376.862746","151671.133959","152438.567098","153205.673754","153972.549461","154740.048762","155490.417292","156257.902372","160143.872323","160911.512296","161678.521255","162429.170201","148618.89483","149386.187916","150153.643933","150920.684736","161687.603726","Mapping"
"Mixed","Both","tile","28","F_ball.wav","space","621.016969671","143","159376.862746","151671.133959","152438.567098","153205.673754","153972.549461","154740.048762","155490.417292","156257.902372","160143.872323","160911.512296","161678.521255","162429.170201","163196.025812","149386.187916","150153.643933","150920.684736","162438.40633","Mapping"
"Mixed","Both","tile","28","F_tile.wav","None","731.767348712","143","159376.862746","151671.133959","152438.567098","153205.673754","153972.549461","154740.048762","155490.417292","156257.902372","160143.872323","160911.512296","161678.521255","162429.170201","163196.025812","163963.432672","150153.643933","150920.684736","163205.29564","Mapping"
"Mixed","Both","tile","28","M_greet.wav","space","462.285034359","143","159376.862746","151671.133959","152438.567098","153205.673754","153972.549461","154740.048762","155490.417292","156257.902372","160143.872323","160911.512296","161678.521255","162429.170201","163196.025812","163963.432672","164730.846642","150920.684736","163973.12297","Mapping"
"Mixed","Both","tile","28","M_jaw.wav","None","722.537403344","143","159376.862746","151671.133959","152438.567098","153205.673754","153972.549461","154740.048762","155490.417292","156257.902372","160143.872323","160911.512296","161678.521255","162429.170201","163196.025812","163963.432672","164730.846642","165481.115619","164740.487474","Mapping"
"Mixed","Both","tile","28","M_tile.wav","None","735.866935924","143","159376.862746","166248.918216","152438.567098","153205.673754","153972.549461","154740.048762","155490.417292","156257.902372","160143.872323","160911.512296","161678.521255","162429.170201","163196.025812","163963.432672","164730.846642","165481.115619","165490.587645","Mapping"
"Mixed","Both","tile","28","F_cave.wav","space","336.858380586","143","159376.862746","166248.918216","167015.686022","153205.673754","153972.549461","154740.048762","155490.417292","156257.902372","160143.872323","160911.512296","161678.521255","162429.170201","163196.025812","163963.432672","164730.846642","165481.115619","166258.458877","Mapping"
"Mixed","Both","tile","28","M_ball.wav","None","727.703316021","143","159376.862746","166248.918216","167015.686022","167783.069076","153972.549461","154740.048762","155490.417292","156257.902372","160143.872323","160911.512296","161678.521255","162429.170201","163196.025812","163963.432672","164730.846642","165481.115619","167024.611127","Mapping"
"Mixed","Both","tile","28","F_jaw.wav","None","723.864667933","143","159376.862746","166248.918216","167015.686022","167783.069076","168550.341447","154740.048762","155490.417292","156257.902372","160143.872323","160911.512296","161678.521255","162429.170201","163196.025812","163963.432672","164730.846642","165481.115619","167792.762775","Mapping"
"Mixed","Both","tile","28","M_cling.wav","None","720.114132972","143","159376.862746","166248.918216","167015.686022","167783.069076","168550.341447","169300.731309","155490.417292","156257.902372","160143.872323","160911.512296","161678.521255","162429.170201","163196.025812","163963.432672","164730.846642","165481.115619","168559.708663","Mapping"
"Mixed","Both","tile","28","F_park.wav","None","733.932153322","143","159376.862746","166248.918216","167015.686022","167783.069076","168550.341447","169300.731309","170068.023467","156257.902372","160143.872323","160911.512296","161678.521255","162429.170201","163196.025812","163963.432672","164730.846642","165481.115619","169310.01165","Mapping"
"Mixed","Both","tile","28","F_ball.wav","None","729.5301985","143","159376.862746","166248.918216","167015.686022","167783.069076","168550.341447","169300.731309","170068.023467","170834.91927","160143.872323","160911.512296","161678.521255","162429.170201","163196.025812","163963.432672","164730.846642","165481.115619","170077.680994","Mapping"
"Mixed","Both","ball","11","M_depth.wav","None","726.074611302","143","173937.503865","166248.918216","167015.686022","167783.069076","168550.341447","169300.731309","170068.023467","170834.91927","160143.872323","160911.512296","161678.521255","162429.170201","163196.025812","163963.432672","164730.846642","165481.115619","170844.92152","Mapping"
"Mixed","Both","ball","11","M_ball.wav","None","734.851005021","143","173937.503865","166248.918216","167015.686022","167783.069076","168550.341447","169300.731309","170068.023467","170834.91927","174704.489326","160911.512296","161678.521255","162429.170201","163196.025812","163963.432672","164730.846642","165481.115619","173947.062766","Mapping"
"Mixed","Both","ball","11","F_park.wav","space","345.630136784","143","173937.503865","166248.918216","167015.686022","167783.069076","168550.341447","169300.731309","170068.023467","170834.91927","174704.489326","175472.083852","161678.521255","162429.170201","163196.025812","163963.432672","164730.846642","165481.115619","174713.483994","Mapping"
"Mixed","Both","ball","11","F_depth.wav","None","725.561389932","143","173937.503865","166248.918216","167015.686022","167783.069076","168550.341447","169300.731309","170068.023467","170834.91927","174704.489326","175472.083852","176238.850421","162429.170201","163196.025812","163963.432672","164730.846642","165481.115619","175482.19493","Mapping"
"Mixed","Both","ball","11","F_ball.wav","None","722.81349171","143","173937.503865","166248.918216","167015.686022","167783.069076","168550.341447","169300.731309","170068.023467","170834.91927","174704.489326","175472.083852","176238.850421","176989.856459","163196.025812","163963.432672","164730.846642","165481.115619","176248.26525","Mapping"
"Mixed","Both","ball","11","M_done.wav","space","491.856476176","143","173937.503865","166248.918216","167015.686022","167783.069076","168550.341447","169300.731309","170068.023467","170834.91927","174704.489326","175472.083852","176238.850421","176989.856459","177756.968989","163963.432672","164730.846642","165481.115619","176999.131852","Mapping"
"Mixed","Both","ball","11","M_lash.wav","None","731.265257578","143","173937.503865","166248.918216","167015.686022","167783.069076","168550.341447","169300.731309","170068.023467","170834.91927","174704.489326","175472.083852","176238.850421","176989.856459","177756.968989","178524.193439","164730.846642","165481.115619","177766.244073","Mapping"
"Mixed","Both","ball","11","F_cave.wav","None","727.427846054","143","173937.503865","166248.918216","167015.686022","167783.069076","168550.341447","169300.731309","170068.023467","170834.91927","174704.489326","175472.083852","176238.850421","176989.856459","177756.968989","178524.193439","179291.424381","165481.115619","178534.052235","Mapping"
"Mixed","Both","ball","11","M_dime.wav","None","724.591525388","143","173937.503865","166248.918216","167015.686022","167783.069076","168550.341447","169300.731309","170068.023467","170834.91927","174704.489326","175472.083852","176238.850421","176989.856459","177756.968989","178524.193439","179291.424381","180058.73818","179300.621245","Mapping"
"Mixed","Both","ball","11","M_cave.wav","None","725.081558921","143","173937.503865","180825.861841","167015.686022","167783.069076","168550.341447","169300.731309","170068.023467","170834.91927","174704.489326","175472.083852","176238.850421","176989.856459","177756.968989","178524.193439","179291.424381","180058.73818","180068.165376","Mapping"
"Mixed","Both","ball","11","M_knife.wav","None","721.486227121","143","173937.503865","180825.861841","181576.700308","167783.069076","168550.341447","169300.731309","170068.023467","170834.91927","174704.489326","175472.083852","176238.850421","176989.856459","177756.968989","178524.193439","179291.424381","180058.73818","180835.111573","Mapping"
"Mixed","Both","ball","11","F_ball.wav","None","734.033251763","143","173937.503865","180825.861841","181576.700308","182343.797689","168550.341447","169300.731309","170068.023467","170834.91927","174704.489326","175472.083852","176238.850421","176989.856459","177756.968989","178524.193439","179291.424381","180058.73818","181586.21098","Mapping"
"Mixed","Both","ball","11","F_romp.wav","space","353.6113468","143","173937.503865","180825.861841","181576.700308","182343.797689","183111.129421","169300.731309","170068.023467","170834.91927","174704.489326","175472.083852","176238.850421","176989.856459","177756.968989","178524.193439","179291.424381","180058.73818","182353.189949","Mapping"
"Mixed","Both","ball","11","F_depth.wav","None","725.53511057","143","173937.503865","180825.861841","181576.700308","182343.797689","183111.129421","183877.783144","170068.023467","170834.91927","174704.489326","175472.083852","176238.850421","176989.856459","177756.968989","178524.193439","179291.424381","180058.73818","183120.744591","Mapping"
"Mixed","Both","ball","11","M_ball.wav","None","722.661998589","143","173937.503865","180825.861841","181576.700308","182343.797689","183111.129421","183877.783144","184628.467336","170834.91927","174704.489326","175472.083852","176238.850421","176989.856459","177756.968989","178524.193439","179291.424381","180058.73818","183886.81924","Mapping"
"Mixed","Both","ball","11","F_done.wav","space","484.876357019","143","173937.503865","180825.861841","181576.700308","182343.797689","183111.129421","183877.783144","184628.467336","185395.780517","174704.489326","175472.083852","176238.850421","176989.856459","177756.968989","178524.193439","179291.424381","180058.73818","184637.900096","Mapping"
"Mixed","Both","cave","23","F_jaw.wav","None","730.354753439","143","188514.881254","180825.861841","181576.700308","182343.797689","183111.129421","183877.783144","184628.467336","185395.780517","174704.489326","175472.083852","176238.850421","176989.856459","177756.968989","178524.193439","179291.424381","180058.73818","185405.15639","Mapping"
"Mixed","Both","cave","23","F_lash.wav","None","735.068660346","143","188514.881254","180825.861841","181576.700308","182343.797689","183111.129421","183877.783144","184628.467336","185395.780517","189281.745212","175472.083852","176238.850421","176989.856459","177756.968989","178524.193439","179291.424381","180058.73818","188524.357299","Mapping"
"Mixed","Both","cave","23","M_ball.wav","None","731.878340594","143","188514.881254","180825.861841","181576.700308","182343.797689","183111.129421","183877.783144","184628.467336","185395.780517","189281.745212","190049.477936","176238.850421","176989.856459","177756.968989","178524.193439","179291.424381","180058.73818","189290.952279","Mapping"
"Mixed","Both","cave","23","M_cave.wav","None","726.943377522","143","188514.881254","180825.861841","181576.700308","182343.797689","183111.129421","183877.783144","184628.467336","185395.780517","189281.745212","190049.477936","190816.441447","176989.856459","177756.968989","178524.193439","179291.424381","180058.73818","190059.248001","Mapping"
"Mixed","Both","cave","23","F_jaw.wav","space","456.206762698","143","188514.881254","180825.861841","181576.700308","182343.797689","183111.129421","183877.783144","184628.467336","185395.780517","189281.745212","190049.477936","190816.441447","191567.361844","177756.968989","178524.193439","179291.424381","180058.73818","190826.361149","Mapping"
"Mixed","Both","cave","23","M_jaw.wav","None","735.213969951","143","188514.881254","180825.861841","181576.700308","182343.797689","183111.129421","183877.783144","184628.467336","185395.780517","189281.745212","190049.477936","190816.441447","191567.361844","192334.304022","178524.193439","179291.424381","180058.73818","191576.709584","Mapping"
"Mixed","Both","cave","23","F_romp.wav","None","731.309777941","143","188514.881254","180825.861841","181576.700308","182343.797689","183111.129421","183877.783144","184628.467336","185395.780517","189281.745212","190049.477936","190816.441447","191567.361844","192334.304022","193101.602673","179291.424381","180058.73818","192343.903425","Mapping"
"Mixed","Both","cave","23","M_cave.wav","None","726.761276717","143","188514.881254","180825.861841","181576.700308","182343.797689","183111.129421","183877.783144","184628.467336","185395.780517","189281.745212","190049.477936","190816.441447","191567.361844","192334.304022","193101.602673","193868.782911","180058.73818","193111.660883","Mapping"
"Mixed","Both","cave","23","F_dime.wav","space","356.035235454","143","188514.881254","180825.861841","181576.700308","182343.797689","183111.129421","183877.783144","184628.467336","185395.780517","189281.745212","190049.477936","190816.441447","191567.361844","192334.304022","193101.602673","193868.782911","194619.363222","193878.464862","Mapping"
"Mixed","Both","cave","23","M_jaw.wav","None","735.427606152","143","188514.881254","195386.131647","181576.700308","182343.797689","183111.129421","183877.783144","184628.467336","185395.780517","189281.745212","190049.477936","190816.441447","191567.361844","192334.304022","193101.602673","193868.782911","194619.363222","194629.409684","Mapping"
"Mixed","Both","cave","23","M_reek.wav","None","732.693002094","143","188514.881254","195386.131647","196153.897761","182343.797689","183111.129421","183877.783144","184628.467336","185395.780517","189281.745212","190049.477936","190816.441447","191567.361844","192334.304022","193101.602673","193868.782911","194619.363222","195395.358191","Mapping"
"Mixed","Both","cave","23","F_park.wav","None","728.052368388","143","188514.881254","195386.131647","196153.897761","196920.938564","183111.129421","183877.783144","184628.467336","185395.780517","189281.745212","190049.477936","190816.441447","191567.361844","192334.304022","193101.602673","193868.782911","194619.363222","196163.853018","Mapping"
"Mixed","Both","cave","23","F_cave.wav","None","724.768061074","143","188514.881254","195386.131647","196153.897761","196920.938564","197688.29101","183877.783144","184628.467336","185395.780517","189281.745212","190049.477936","190816.441447","191567.361844","192334.304022","193101.602673","193868.782911","194619.363222","196930.545696","Mapping"
"Mixed","Both","cave","23","M_priest.wav","space","464.679242927","143","188514.881254","195386.131647","196153.897761","196920.938564","197688.29101","198438.902856","184628.467336","185395.780517","189281.745212","190049.477936","190816.441447","191567.361844","192334.304022","193101.602673","193868.782911","194619.363222","197697.686979","Mapping"
"Mixed","Both","cave","23","F_cave.wav","None","732.358171605","143","188514.881254","195386.131647","196153.897761","196920.938564","197688.29101","198438.902856","199205.967775","185395.780517","189281.745212","190049.477936","190816.441447","191567.361844","192334.304022","193101.602673","193868.782911","194619.363222","198448.711567","Mapping"
"Mixed","Both","cave","23","M_bluff.wav","space","626.652820036","143","188514.881254","195386.131647","196153.897761","196920.938564","197688.29101","198438.902856","199205.967775","199973.229325","189281.745212","190049.477936","190816.441447","191567.361844","192334.304022","193101.602673","193868.782911","194619.363222","199215.680024","Mapping"
"Mixed","Both","done","41","F_park.wav","None","723.72708749","143","203075.326978","195386.131647","196153.897761","196920.938564","197688.29101","198438.902856","199205.967775","199973.229325","189281.745212","190049.477936","190816.441447","191567.361844","192334.304022","193101.602673","193868.782911","194619.363222","199983.015157","Mapping"
"Mixed","Both","done","41","M_depth.wav","None","735.079790349","143","203075.326978","195386.131647","196153.897761","196920.938564","197688.29101","198438.902856","199205.967775","199973.229325","203842.532877","190049.477936","190816.441447","191567.361844","192334.304022","193101.602673","193868.782911","194619.363222","203084.912159","Mapping"
"Mixed","Both","done","41","M_done.wav","None","731.487859506","143","203075.326978","195386.131647","196153.897761","196920.938564","197688.29101","198438.902856","199205.967775","199973.229325","203842.532877","204609.766911","190816.441447","191567.361844","192334.304022","193101.602673","193868.782911","194619.363222","203852.077557","Mapping"
"Mixed","Both","done","41","F_romp.wav","space","638.936432311","143","203075.326978","195386.131647","196153.897761","196920.938564","197688.29101","198438.902856","199205.967775","199973.229325","203842.532877","204609.766911","205376.875113","191567.361844","192334.304022","193101.602673","193868.782911","194619.363222","204619.210802","Mapping"
"Mixed","Both","done","41","F_priest.wav","None","723.480370129","143","203075.326978","195386.131647","196153.897761","196920.938564","197688.29101","198438.902856","199205.967775","199973.229325","203842.532877","204609.766911","205376.875113","206144.519724","192334.304022","193101.602673","193868.782911","194619.363222","205385.990975","Mapping"
"Mixed","Both","done","41","M_jaw.wav","None","722.169182496","143","203075.326978","195386.131647","196153.897761","196920.938564","197688.29101","198438.902856","199205.967775","199973.229325","203842.532877","204609.766911","205376.875113","206144.519724","206894.924736","193101.602673","193868.782911","194619.363222","206154.696964","Mapping"
"Mixed","Both","done","41","M_done.wav","None","736.021829769","143","203075.326978","195386.131647","196153.897761","196920.938564","197688.29101","198438.902856","199205.967775","199973.229325","203842.532877","204609.766911","205376.875113","206144.519724","206894.924736","207662.191851","193868.782911","194619.363222","206904.165193","Mapping"
"Mixed","Both","done","41","M_cad.wav","space","505.839283811","143","203075.326978","195386.131647","196153.897761","196920.938564","197688.29101","198438.902856","199205.967775","199973.229325","203842.532877","204609.766911","205376.875113","206144.519724","206894.924736","207662.191851","208429.187515","194619.363222","207672.225018","Mapping"
"Mixed","Both","done","41","M_lash.wav","None","728.192112991","143","203075.326978","195386.131647","196153.897761","196920.938564","197688.29101","198438.902856","199205.967775","199973.229325","203842.532877","204609.766911","205376.875113","206144.519724","206894.924736","207662.191851","208429.187515","209196.590974","208438.124986","Mapping"
"Mixed","Both","done","41","F_done.wav","None","723.506031325","143","203075.326978","209947.112852","196153.897761","196920.938564","197688.29101","198438.902856","199205.967775","199973.229325","203842.532877","204609.766911","205376.875113","206144.519724","206894.924736","207662.191851","208429.187515","209196.590974","209206.079385","Mapping"
"Mixed","Both","done","41","F_greet.wav","space","381.432270864","143","203075.326978","209947.112852","210714.470244","196920.938564","197688.29101","198438.902856","199205.967775","199973.229325","203842.532877","204609.766911","205376.875113","206144.519724","206894.924736","207662.191851","208429.187515","209196.590974","209956.593843","Mapping"
"Mixed","Both","done","41","F_cave.wav","None","731.485695345","143","203075.326978","209947.112852","210714.470244","211481.869375","197688.29101","198438.902856","199205.967775","199973.229325","203842.532877","204609.766911","205376.875113","206144.519724","206894.924736","207662.191851","208429.187515","209196.590974","210723.797887","Mapping"
"Mixed","Both","done","41","M_jaw.wav","None","727.588305017","143","203075.326978","209947.112852","210714.470244","211481.869375","212248.509494","198438.902856","199205.967775","199973.229325","203842.532877","204609.766911","205376.875113","206144.519724","206894.924736","207662.191851","208429.187515","209196.590974","211491.426731","Mapping"
"Mixed","Both","done","41","F_reek.wav","None","725.204608287","143","203075.326978","209947.112852","210714.470244","211481.869375","212248.509494","213016.61013","199205.967775","199973.229325","203842.532877","204609.766911","205376.875113","206144.519724","206894.924736","207662.191851","208429.187515","209196.590974","212257.860943","Mapping"
"Mixed","Both","done","41","F_done.wav","None","720.768335625","143","203075.326978","209947.112852","210714.470244","211481.869375","212248.509494","213016.61013","213766.737508","199973.229325","203842.532877","204609.766911","205376.875113","206144.519724","206894.924736","207662.191851","208429.187515","209196.590974","213025.878103","Mapping"
"Mixed","Both","done","41","M_jaw.wav","space","393.741235137","143","203075.326978","209947.112852","210714.470244","211481.869375","212248.509494","213016.61013","213766.737508","214533.811392","203842.532877","204609.766911","205376.875113","206144.519724","206894.924736","207662.191851","208429.187515","209196.590974","213776.165631","Mapping"
"Mixed","Both","done","39","M_dime.wav","None","729.482895578","143","217652.892961","209947.112852","210714.470244","211481.869375","212248.509494","213016.61013","213766.737508","214533.811392","203842.532877","204609.766911","205376.875113","206144.519724","206894.924736","207662.191851","208429.187515","209196.590974","214543.286199","Mapping"
"Mixed","Both","done","39","F_cling.wav","None","736.833708943","143","217652.892961","209947.112852","210714.470244","211481.869375","212248.509494","213016.61013","213766.737508","214533.811392","218420.145854","204609.766911","205376.875113","206144.519724","206894.924736","207662.191851","208429.187515","209196.590974","217662.22926","Mapping"
"Mixed","Both","done","39","M_done.wav","None","732.845113496","143","217652.892961","209947.112852","210714.470244","211481.869375","212248.509494","213016.61013","213766.737508","214533.811392","218420.145854","219187.503865","205376.875113","206144.519724","206894.924736","207662.191851","208429.187515","209196.590974","218429.607367","Mapping"
"Mixed","Both","done","39","M_jaw.wav","space","444.62094584","143","217652.892961","209947.112852","210714.470244","211481.869375","212248.509494","213016.61013","213766.737508","214533.811392","218420.145854","219187.503865","219954.273835","206144.519724","206894.924736","207662.191851","208429.187515","209196.590974","219197.103268","Mapping"
"Mixed","Both","done","39","F_cad.wav","None","724.737762474","143","217652.892961","209947.112852","210714.470244","211481.869375","212248.509494","213016.61013","213766.737508","214533.811392","218420.145854","219187.503865","219954.273835","220721.786121","206894.924736","207662.191851","208429.187515","209196.590974","219963.688664","Mapping"
"Mixed","Both","done","39","F_park.wav","None","720.6304461","143","217652.892961","209947.112852","210714.470244","211481.869375","212248.509494","213016.61013","213766.737508","214533.811392","218420.145854","219187.503865","219954.273835","220721.786121","221472.440633","207662.191851","208429.187515","209196.590974","220731.837221","Mapping"
"Mixed","Both","done","39","F_done.wav","None","733.503335272","143","217652.892961","209947.112852","210714.470244","211481.869375","212248.509494","213016.61013","213766.737508","214533.811392","218420.145854","219187.503865","219954.273835","220721.786121","221472.440633","222239.654571","208429.187515","209196.590974","221482.471018","Mapping"
"Mixed","Both","done","39","F_gnash.wav","space","464.307930321","143","217652.892961","209947.112852","210714.470244","211481.869375","212248.509494","213016.61013","213766.737508","214533.811392","218420.145854","219187.503865","219954.273835","220721.786121","221472.440633","222239.654571","223006.736184","209196.590974","222249.340851","Mapping"
"Mixed","Both","done","39","M_done.wav","None","726.19456891","143","217652.892961","209947.112852","210714.470244","211481.869375","212248.509494","213016.61013","213766.737508","214533.811392","218420.145854","219187.503865","219954.273835","220721.786121","221472.440633","222239.654571","223006.736184","223774.385124","223015.971386","Mapping"
"Mixed","Both","done","39","M_jaw.wav","space","593.447709456","143","217652.892961","224524.3978","210714.470244","211481.869375","212248.509494","213016.61013","213766.737508","214533.811392","218420.145854","219187.503865","219954.273835","220721.786121","221472.440633","222239.654571","223006.736184","223774.385124","223784.132001","Mapping"
"Mixed","Both","done","39","F_gnash.wav","None","734.270693967","143","217652.892961","224524.3978","225291.67048","211481.869375","212248.509494","213016.61013","213766.737508","214533.811392","218420.145854","219187.503865","219954.273835","220721.786121","221472.440633","222239.654571","223006.736184","223774.385124","224534.132928","Mapping"
"Mixed","Both","done","39","F_romp.wav","None","730.592195527","143","217652.892961","224524.3978","225291.67048","226059.015815","212248.509494","213016.61013","213766.737508","214533.811392","218420.145854","219187.503865","219954.273835","220721.786121","221472.440633","222239.654571","223006.736184","223774.385124","225301.351813","Mapping"
"Mixed","Both","done","39","M_cling.wav","None","726.828675601","143","217652.892961","224524.3978","225291.67048","226059.015815","226826.423293","213016.61013","213766.737508","214533.811392","218420.145854","219187.503865","219954.273835","220721.786121","221472.440633","222239.654571","223006.736184","223774.385124","226068.676433","Mapping"
"Mixed","Both","done","39","F_done.wav","None","722.776082112","143","217652.892961","224524.3978","225291.67048","226059.015815","226826.423293","227593.412464","213766.737508","214533.811392","218420.145854","219187.503865","219954.273835","220721.786121","221472.440633","222239.654571","223006.736184","223774.385124","226836.148527","Mapping"
"Mixed","Both","done","39","M_jolt.wav","space","437.983386451","143","217652.892961","224524.3978","225291.67048","226059.015815","226826.423293","227593.412464","228343.694427","214533.811392","218420.145854","219187.503865","219954.273835","220721.786121","221472.440633","222239.654571","223006.736184","223774.385124","227603.503447","Mapping"
"Mixed","Both","done","39","M_jaw.wav","None","732.590666972","143","217652.892961","224524.3978","225291.67048","226059.015815","226826.423293","227593.412464","228343.694427","229111.073152","218420.145854","219187.503865","219954.273835","220721.786121","221472.440633","222239.654571","223006.736184","223774.385124","228352.991153","Mapping"
"Mixed","Both","tile","31","M_dime.wav","None","728.739033802","143","232213.465753","224524.3978","225291.67048","226059.015815","226826.423293","227593.412464","228343.694427","229111.073152","218420.145854","219187.503865","219954.273835","220721.786121","221472.440633","222239.654571","223006.736184","223774.385124","229120.442224","Mapping"
"Mixed","Both","tile","31","F_tile.wav","None","733.615254634","143","232213.465753","224524.3978","225291.67048","226059.015815","226826.423293","227593.412464","228343.694427","229111.073152","232980.805522","219187.503865","219954.273835","220721.786121","221472.440633","222239.654571","223006.736184","223774.385124","232224.498156","Mapping"
"Mixed","Both","tile","31","F_ball.wav","space","530.540378764","143","232213.465753","224524.3978","225291.67048","226059.015815","226826.423293","227593.412464","228343.694427","229111.073152","232980.805522","233748.263395","219954.273835","220721.786121","221472.440633","222239.654571","223006.736184","223774.385124","232990.78675","Mapping"
"Mixed","Both","tile","31","M_priest.wav","None","724.660779233","143","232213.465753","224524.3978","225291.67048","226059.015815","226826.423293","227593.412464","228343.694427","229111.073152","232980.805522","233748.263395","234515.155178","220721.786121","221472.440633","222239.654571","223006.736184","223774.385124","233759.57807","Mapping"
"Mixed","Both","tile","31","F_greet.wav","None","723.006413435","143","232213.465753","224524.3978","225291.67048","226059.015815","226826.423293","227593.412464","228343.694427","229111.073152","232980.805522","233748.263395","234515.155178","235282.383956","221472.440633","222239.654571","223006.736184","223774.385124","234524.997279","Mapping"
"Mixed","Both","tile","31","M_tile.wav","None","720.130209811","143","232213.465753","224524.3978","225291.67048","226059.015815","226826.423293","227593.412464","228343.694427","229111.073152","232980.805522","233748.263395","234515.155178","235282.383956","236033.054854","222239.654571","223006.736184","223774.385124","235291.936365","Mapping"
"Mixed","Both","tile","31","M_dime.wav","space","420.514383819","143","232213.465753","224524.3978","225291.67048","226059.015815","226826.423293","227593.412464","228343.694427","229111.073152","232980.805522","233748.263395","234515.155178","235282.383956","236033.054854","236800.285178","223006.736184","223774.385124","236044.713326","Mapping"
"Mixed","Both","tile","31","M_tile.wav","None","722.590889665","143","232213.465753","224524.3978","225291.67048","226059.015815","226826.423293","227593.412464","228343.694427","229111.073152","232980.805522","233748.263395","234515.155178","235282.383956","236033.054854","236800.285178","237567.458305","223774.385124","236815.656157","Mapping"
"Mixed","Both","tile","31","F_romp.wav","space","480.155648198","143","232213.465753","224524.3978","225291.67048","226059.015815","226826.423293","227593.412464","228343.694427","229111.073152","232980.805522","233748.263395","234515.155178","235282.383956","236033.054854","236800.285178","237567.458305","238334.556614","237577.024318","Mapping"
"Mixed","Both","tile","31","M_ball.wav","None","720.830169506","143","232213.465753","239084.884024","225291.67048","226059.015815","226826.423293","227593.412464","228343.694427","229111.073152","232980.805522","233748.263395","234515.155178","235282.383956","236033.054854","236800.285178","237567.458305","238334.556614","238343.893841","Mapping"
"Mixed","Both","tile","31","F_tile.wav","None","734.601196134","143","232213.465753","239084.884024","239852.460927","226059.015815","226826.423293","227593.412464","228343.694427","229111.073152","232980.805522","233748.263395","234515.155178","235282.383956","236033.054854","236800.285178","237567.458305","238334.556614","239094.537532","Mapping"
"Mixed","Both","tile","31","F_depth.wav","space","459.447786212","143","232213.465753","239084.884024","239852.460927","240619.736081","226826.423293","227593.412464","228343.694427","229111.073152","232980.805522","233748.263395","234515.155178","235282.383956","236033.054854","236800.285178","237567.458305","238334.556614","239861.651299","Mapping"
"Mixed","Both","tile","31","M_romp.wav","None","726.32040095","143","232213.465753","239084.884024","239852.460927","240619.736081","241386.678258","227593.412464","228343.694427","229111.073152","232980.805522","233748.263395","234515.155178","235282.383956","236033.054854","236800.285178","237567.458305","238334.556614","240629.097114","Mapping"
"Mixed","Both","tile","31","F_jolt.wav","None","723.430284648","143","232213.465753","239084.884024","239852.460927","240619.736081","241386.678258","242137.363996","228343.694427","229111.073152","232980.805522","233748.263395","234515.155178","235282.383956","236033.054854","236800.285178","237567.458305","238334.556614","241395.774334","Mapping"
"Mixed","Both","tile","31","F_park.wav","None","737.110415474","143","232213.465753","239084.884024","239852.460927","240619.736081","241386.678258","242137.363996","242904.390577","229111.073152","232980.805522","233748.263395","234515.155178","235282.383956","236033.054854","236800.285178","237567.458305","238334.556614","242146.591778","Mapping"
"Mixed","Both","tile","31","M_depth.wav","None","734.40796521","143","232213.465753","239084.884024","239852.460927","240619.736081","241386.678258","242137.363996","242904.390577","243671.606061","232980.805522","233748.263395","234515.155178","235282.383956","236033.054854","236800.285178","237567.458305","238334.556614","242913.475213","Mapping"
"Mixed","Both","done","42","M_gnash.wav","None","731.911421637","143","246807.635373","239084.884024","239852.460927","240619.736081","241386.678258","242137.363996","242904.390577","243671.606061","232980.805522","233748.263395","234515.155178","235282.383956","236033.054854","236800.285178","237567.458305","238334.556614","243680.445526","Mapping"
"Mixed","Both","done","42","M_bluff.wav","None","722.264097538","143","246807.635373","239084.884024","239852.460927","240619.736081","241386.678258","242137.363996","242904.390577","243671.606061","247557.721631","233748.263395","234515.155178","235282.383956","236033.054854","236800.285178","237567.458305","238334.556614","246817.166449","Mapping"
"Mixed","Both","done","42","M_bluff.wav","None","735.932479845","143","246807.635373","239084.884024","239852.460927","240619.736081","241386.678258","242137.363996","242904.390577","243671.606061","247557.721631","248325.105612","234515.155178","235282.383956","236033.054854","236800.285178","237567.458305","238334.556614","247567.142643","Mapping"
"Mixed","Both","done","42","M_done.wav","None","732.444429887","143","246807.635373","239084.884024","239852.460927","240619.736081","241386.678258","242137.363996","242904.390577","243671.606061","247557.721631","248325.105612","249092.633975","235282.383956","236033.054854","236800.285178","237567.458305","238334.556614","248334.311133","Mapping"
"Mixed","Both","done","42","F_ball.wav","space","562.228085473","143","246807.635373","239084.884024","239852.460927","240619.736081","241386.678258","242137.363996","242904.390577","243671.606061","247557.721631","248325.105612","249092.633975","249859.816378","236033.054854","236800.285178","237567.458305","238334.556614","249102.611493","Mapping"
"Mixed","Both","done","42","M_done.wav","None","724.06160878","143","246807.635373","239084.884024","239852.460927","240619.736081","241386.678258","242137.363996","242904.390577","243671.606061","247557.721631","248325.105612","249092.633975","249859.816378","250627.414923","236800.285178","237567.458305","238334.556614","249869.277273","Mapping"
"Mixed","Both","done","42","F_jolt.wav","space","635.944290087","143","246807.635373","239084.884024","239852.460927","240619.736081","241386.678258","242137.363996","242904.390577","243671.606061","247557.721631","248325.105612","249092.633975","249859.816378","250627.414923","251377.594241","237567.458305","238334.556614","250636.842427","Mapping"
"Mixed","Both","done","42","F_done.wav","None","732.386305928","143","246807.635373","239084.884024","239852.460927","240619.736081","241386.678258","242137.363996","242904.390577","243671.606061","247557.721631","248325.105612","249092.633975","249859.816378","250627.414923","251377.594241","252144.815908","238334.556614","251387.343282","Mapping"
"Mixed","Both","done","42","M_cling.wav","None","728.711208561","143","246807.635373","239084.884024","239852.460927","240619.736081","241386.678258","242137.363996","242904.390577","243671.606061","247557.721631","248325.105612","249092.633975","249859.816378","250627.414923","251377.594241","252144.815908","252911.626689","252154.796208","Mapping"
"Mixed","Both","done","42","F_bluff.wav","None","726.073065423","143","246807.635373","253679.321385","239852.460927","240619.736081","241386.678258","242137.363996","242904.390577","243671.606061","247557.721631","248325.105612","249092.633975","249859.816378","250627.414923","251377.594241","252144.815908","252911.626689","252921.092222","Mapping"
"Mixed","Both","done","42","F_cave.wav","None","722.141357139","143","246807.635373","253679.321385","254429.701973","240619.736081","241386.678258","242137.363996","242904.390577","243671.606061","247557.721631","248325.105612","249092.633975","249859.816378","250627.414923","251377.594241","252144.815908","252911.626689","253688.848752","Mapping"
"Mixed","Both","done","42","F_cave.wav","None","735.379684833","143","246807.635373","253679.321385","254429.701973","255196.950538","241386.678258","242137.363996","242904.390577","243671.606061","247557.721631","248325.105612","249092.633975","249859.816378","250627.414923","251377.594241","252144.815908","252911.626689","254439.491824","Mapping"
"Mixed","Both","done","42","M_cave.wav","None","732.119183638","143","246807.635373","253679.321385","254429.701973","255196.950538","255964.059049","242137.363996","242904.390577","243671.606061","247557.721631","248325.105612","249092.633975","249859.816378","250627.414923","251377.594241","252144.815908","252911.626689","255206.435548","Mapping"
"Mixed","Both","done","42","F_done.wav","None","728.501591599","143","246807.635373","253679.321385","254429.701973","255196.950538","255964.059049","256731.588958","242904.390577","243671.606061","247557.721631","248325.105612","249092.633975","249859.816378","250627.414923","251377.594241","252144.815908","252911.626689","255973.77841","Mapping"
"Mixed","Both","done","42","F_knife.wav","space","411.530846381","143","246807.635373","253679.321385","254429.701973","255196.950538","255964.059049","256731.588958","257498.68201","243671.606061","247557.721631","248325.105612","249092.633975","249859.816378","250627.414923","251377.594241","252144.815908","252911.626689","256741.065002","Mapping"
"Mixed","Both","done","42","M_bluff.wav","None","720.56181042","143","246807.635373","253679.321385","254429.701973","255196.950538","255964.059049","256731.588958","257498.68201","258249.451843","247557.721631","248325.105612","249092.633975","249859.816378","250627.414923","251377.594241","252144.815908","252911.626689","257507.936689","Mapping"
"Mixed","Both","tile","34","F_romp.wav","None","733.551256591","143","261368.269071","253679.321385","254429.701973","255196.950538","255964.059049","256731.588958","257498.68201","258249.451843","247557.721631","248325.105612","249092.633975","249859.816378","250627.414923","251377.594241","252144.815908","252911.626689","258258.943654","Mapping"
"Mixed","Both","tile","34","M_cling.wav","None","735.353714554","143","261368.269071","253679.321385","254429.701973","255196.950538","255964.059049","256731.588958","257498.68201","258249.451843","262135.462604","248325.105612","249092.633975","249859.816378","250627.414923","251377.594241","252144.815908","252911.626689","261377.991215","Mapping"
"Mixed","Both","tile","34","M_priest.wav","None","732.262947364","143","261368.269071","253679.321385","254429.701973","255196.950538","255964.059049","256731.588958","257498.68201","258249.451843","262135.462604","262902.484857","249092.633975","249859.816378","250627.414923","251377.594241","252144.815908","252911.626689","262144.881143","Mapping"
"Mixed","Both","tile","34","F_cad.wav","None","728.665760602","143","261368.269071","253679.321385","254429.701973","255196.950538","255964.059049","256731.588958","257498.68201","258249.451843","262135.462604","262902.484857","263669.960043","249859.816378","250627.414923","251377.594241","252144.815908","252911.626689","262912.280582","Mapping"
"Mixed","Both","tile","34","M_tile.wav","None","725.557061611","143","261368.269071","253679.321385","254429.701973","255196.950538","255964.059049","256731.588958","257498.68201","258249.451843","262135.462604","262902.484857","263669.960043","264437.403075","250627.414923","251377.594241","252144.815908","252911.626689","263679.356012","Mapping"
"Mixed","Both","tile","34","M_gnash.wav","space","432.913625496","143","261368.269071","253679.321385","254429.701973","255196.950538","255964.059049","256731.588958","257498.68201","258249.451843","262135.462604","262902.484857","263669.960043","264437.403075","265187.27106","251377.594241","252144.815908","252911.626689","264447.447682","Mapping"
"Mixed","Both","tile","34","F_jaw.wav","None","734.478146653","143","261368.269071","253679.321385","254429.701973","255196.950538","255964.059049","256731.588958","257498.68201","258249.451843","262135.462604","262902.484857","263669.960043","264437.403075","265187.27106","265954.97565","252144.815908","252911.626689","265196.705057","Mapping"
"Mixed","Both","tile","34","F_tile.wav","None","730.875394773","143","261368.269071","253679.321385","254429.701973","255196.950538","255964.059049","256731.588958","257498.68201","258249.451843","262135.462604","262902.484857","263669.960043","264437.403075","265187.27106","265954.97565","266721.887529","252911.626689","265964.395116","Mapping"
"Mixed","Both","tile","34","F_jolt.wav","space","469.371817191","143","261368.269071","253679.321385","254429.701973","255196.950538","255964.059049","256731.588958","257498.68201","258249.451843","262135.462604","262902.484857","263669.960043","264437.403075","265187.27106","265954.97565","266721.887529","267489.696927","266730.917442","Mapping"
"Mixed","Both","tile","34","F_knife.wav","None","725.191623205","143","261368.269071","268240.267963","254429.701973","255196.950538","255964.059049","256731.588958","257498.68201","258249.451843","262135.462604","262902.484857","263669.960043","264437.403075","265187.27106","265954.97565","266721.887529","267489.696927","267496.933348","Mapping"
"Mixed","Both","tile","34","F_cave.wav","None","735.58064492","143","261368.269071","268240.267963","269007.163766","255196.950538","255964.059049","256731.588958","257498.68201","258249.451843","262135.462604","262902.484857","263669.960043","264437.403075","265187.27106","265954.97565","266721.887529","267489.696927","268250.35369","Mapping"
"Mixed","Both","tile","34","F_tile.wav","None","733.121820143","143","261368.269071","268240.267963","269007.163766","269774.317416","255964.059049","256731.588958","257498.68201","258249.451843","262135.462604","262902.484857","263669.960043","264437.403075","265187.27106","265954.97565","266721.887529","267489.696927","269016.894875","Mapping"
"Mixed","Both","tile","34","M_romp.wav","space","432.422355283","143","261368.269071","268240.267963","269007.163766","269774.317416","270541.713454","256731.588958","257498.68201","258249.451843","262135.462604","262902.484857","263669.960043","264437.403075","265187.27106","265954.97565","266721.887529","267489.696927","269783.799334","Mapping"
"Mixed","Both","tile","34","M_romp.wav","None","726.832385641","143","261368.269071","268240.267963","269007.163766","269774.317416","270541.713454","271308.889364","257498.68201","258249.451843","262135.462604","262902.484857","263669.960043","264437.403075","265187.27106","265954.97565","266721.887529","267489.696927","270551.053155","Mapping"
"Mixed","Both","tile","34","M_tile.wav","None","724.000702379","143","261368.269071","268240.267963","269007.163766","269774.317416","270541.713454","271308.889364","272076.540777","258249.451843","262135.462604","262902.484857","263669.960043","264437.403075","265187.27106","265954.97565","266721.887529","267489.696927","271318.479183","Mapping"
"Mixed","Both","tile","34","M_park.wav","space","552.926103584","143","261368.269071","268240.267963","269007.163766","269774.317416","270541.713454","271308.889364","272076.540777","272826.189251","262135.462604","262902.484857","263669.960043","264437.403075","265187.27106","265954.97565","266721.887529","267489.696927","272087.2232","Mapping"
"Mixed","Both","done","37","M_cad.wav","None","733.421714511","143","275945.68789","268240.267963","269007.163766","269774.317416","270541.713454","271308.889364","272076.540777","272826.189251","262135.462604","262902.484857","263669.960043","264437.403075","265187.27106","265954.97565","266721.887529","267489.696927","272835.374985","Mapping"
"Mixed","Both","done","37","M_reek.wav","None","735.061240266","143","275945.68789","268240.267963","269007.163766","269774.317416","270541.713454","271308.889364","272076.540777","272826.189251","276712.681081","262902.484857","263669.960043","264437.403075","265187.27106","265954.97565","266721.887529","267489.696927","275954.688122","Mapping"
"Mixed","Both","done","37","F_done.wav","None","731.593904668","143","275945.68789","268240.267963","269007.163766","269774.317416","270541.713454","271308.889364","272076.540777","272826.189251","276712.681081","277480.049912","263669.960043","264437.403075","265187.27106","265954.97565","266721.887529","267489.696927","276721.999139","Mapping"
"Mixed","Both","done","37","M_priest.wav","space","406.652461272","143","275945.68789","268240.267963","269007.163766","269774.317416","270541.713454","271308.889364","272076.540777","272826.189251","276712.681081","277480.049912","278247.281782","264437.403075","265187.27106","265954.97565","266721.887529","267489.696927","277489.322523","Mapping"
"Mixed","Both","done","37","M_done.wav","None","723.530146526","143","275945.68789","268240.267963","269007.163766","269774.317416","270541.713454","271308.889364","272076.540777","272826.189251","276712.681081","277480.049912","278247.281782","279014.357212","265187.27106","265954.97565","266721.887529","267489.696927","278256.890769","Mapping"
"Mixed","Both","done","37","M_park.wav","space","640.18269442","143","275945.68789","268240.267963","269007.163766","269774.317416","270541.713454","271308.889364","272076.540777","272826.189251","276712.681081","277480.049912","278247.281782","279014.357212","279764.990391","265954.97565","266721.887529","267489.696927","279023.751017","Mapping"
"Mixed","Both","done","37","F_romp.wav","None","732.721445733","143","275945.68789","268240.267963","269007.163766","269774.317416","270541.713454","271308.889364","272076.540777","272826.189251","276712.681081","277480.049912","278247.281782","279014.357212","279764.990391","280531.787259","266721.887529","267489.696927","279774.276605","Mapping"
"Mixed","Both","done","37","M_park.wav","None","729.758983944","143","275945.68789","268240.267963","269007.163766","269774.317416","270541.713454","271308.889364","272076.540777","272826.189251","276712.681081","277480.049912","278247.281782","279014.357212","279764.990391","280531.787259","281299.341593","267489.696927","280541.170862","Mapping"
"Mixed","Both","done","37","F_done.wav","None","668.747171178","143","275945.68789","268240.267963","269007.163766","269774.317416","270541.713454","271308.889364","272076.540777","272826.189251","276712.681081","277480.049912","278247.281782","279014.357212","279764.990391","280531.787259","281299.341593","282066.761747","281366.068712","Mapping"
"Mixed","Both","done","37","F_priest.wav","space","395.343351294","143","275945.68789","282817.493551","269007.163766","269774.317416","270541.713454","271308.889364","272076.540777","272826.189251","276712.681081","277480.049912","278247.281782","279014.357212","279764.990391","280531.787259","281299.341593","282066.761747","282076.517898","Mapping"
"Mixed","Both","done","37","F_bluff.wav","None","740.767272073","143","275945.68789","282817.493551","283584.598352","269774.317416","270541.713454","271308.889364","272076.540777","272826.189251","276712.681081","277480.049912","278247.281782","279014.357212","279764.990391","280531.787259","281299.341593","282066.761747","282821.091356","Mapping"
"Mixed","Both","done","37","M_done.wav","None","733.520339592","143","275945.68789","282817.493551","283584.598352","284351.590924","270541.713454","271308.889364","272076.540777","272826.189251","276712.681081","277480.049912","278247.281782","279014.357212","279764.990391","280531.787259","281299.341593","282066.761747","283593.789033","Mapping"
"Mixed","Both","done","37","F_gnash.wav","space","462.875238969","143","275945.68789","282817.493551","283584.598352","284351.590924","285118.713348","271308.889364","272076.540777","272826.189251","276712.681081","277480.049912","278247.281782","279014.357212","279764.990391","280531.787259","281299.341593","282066.761747","284360.909601","Mapping"
"Mixed","Both","done","37","M_cling.wav","None","726.209099987","143","275945.68789","282817.493551","283584.598352","284351.590924","285118.713348","285886.248822","272076.540777","272826.189251","276712.681081","277480.049912","278247.281782","279014.357212","279764.990391","280531.787259","281299.341593","282066.761747","285128.124467","Mapping"
"Mixed","Both","done","37","F_romp.wav","None","723.251275718","143","275945.68789","282817.493551","283584.598352","284351.590924","285118.713348","285886.248822","286636.987737","272826.189251","276712.681081","277480.049912","278247.281782","279014.357212","279764.990391","280531.787259","281299.341593","282066.761747","285895.399002","Mapping"
"Mixed","Both","done","37","F_lash.wav","None","736.529486021","143","275945.68789","282817.493551","283584.598352","284351.590924","285118.713348","285886.248822","286636.987737","287403.705149","276712.681081","277480.049912","278247.281782","279014.357212","279764.990391","280531.787259","281299.341593","282066.761747","286646.080411","Mapping"
"Mixed","Both","ball","1","M_jaw.wav","None","733.641224913","143","290522.923989","282817.493551","283584.598352","284351.590924","285118.713348","285886.248822","286636.987737","287403.705149","276712.681081","277480.049912","278247.281782","279014.357212","279764.990391","280531.787259","281299.341593","282066.761747","287412.856874","Mapping"
"Mixed","Both","ball","1","M_ball.wav","None","736.05460173","143","290522.923989","282817.493551","283584.598352","284351.590924","285118.713348","285886.248822","286636.987737","287403.705149","291289.664897","277480.049912","278247.281782","279014.357212","279764.990391","280531.787259","281299.341593","282066.761747","290531.966887","Mapping"
"Mixed","Both","ball","1","F_cave.wav","space","364.846874611","143","290522.923989","282817.493551","283584.598352","284351.590924","285118.713348","285886.248822","286636.987737","287403.705149","291289.664897","292057.574467","278247.281782","279014.357212","279764.990391","280531.787259","281299.341593","282066.761747","291298.715215","Mapping"
"Mixed","Both","ball","1","F_park.wav","None","727.961472585","143","290522.923989","282817.493551","283584.598352","284351.590924","285118.713348","285886.248822","286636.987737","287403.705149","291289.664897","292057.574467","292824.584662","279014.357212","279764.990391","280531.787259","281299.341593","282066.761747","292067.025468","Mapping"
"Mixed","Both","ball","1","M_jolt.wav","None","725.165343843","143","290522.923989","282817.493551","283584.598352","284351.590924","285118.713348","285886.248822","286636.987737","287403.705149","291289.664897","292057.574467","292824.584662","293591.520965","279764.990391","280531.787259","281299.341593","282066.761747","292833.868093","Mapping"
"Mixed","Both","ball","1","M_dime.wav","None","723.488717806","143","290522.923989","282817.493551","283584.598352","284351.590924","285118.713348","285886.248822","286636.987737","287403.705149","291289.664897","292057.574467","292824.584662","293591.520965","294358.96678","280531.787259","281299.341593","282066.761747","293600.4943","Mapping"
"Mixed","Both","ball","1","F_ball.wav","None","721.074722591","143","290522.923989","282817.493551","283584.598352","284351.590924","285118.713348","285886.248822","286636.987737","287403.705149","291289.664897","292057.574467","292824.584662","293591.520965","294358.96678","295109.578627","281299.341593","282066.761747","294368.25454","Mapping"
"Mixed","Both","ball","1","F_park.wav","None","503.757954924","143","290522.923989","282817.493551","283584.598352","284351.590924","285118.713348","285886.248822","286636.987737","287403.705149","291289.664897","292057.574467","292824.584662","293591.520965","294358.96678","295109.578627","295876.970646","282066.761747","295349.933776","Mapping"
"Mixed","Both","ball","1","F_priest.wav","space","289.005748113","143","290522.923989","282817.493551","283584.598352","284351.590924","285118.713348","285886.248822","286636.987737","287403.705149","291289.664897","292057.574467","292824.584662","293591.520965","294358.96678","295109.578627","295876.970646","296644.225394","295886.432778","Mapping"
"Mixed","Both","ball","1","M_ball.wav","None","726.596489316","143","290522.923989","297411.418927","283584.598352","284351.590924","285118.713348","285886.248822","286636.987737","287403.705149","291289.664897","292057.574467","292824.584662","293591.520965","294358.96678","295109.578627","295876.970646","296644.225394","296653.471107","Mapping"
"Mixed","Both","ball","1","F_bluff.wav","space","554.617878865","143","290522.923989","297411.418927","298161.631017","284351.590924","285118.713348","285886.248822","286636.987737","287403.705149","291289.664897","292057.574467","292824.584662","293591.520965","294358.96678","295109.578627","295876.970646","296644.225394","297420.745024","Mapping"
"Mixed","Both","ball","1","M_jaw.wav","None","735.926914844","143","290522.923989","297411.418927","298161.631017","298928.915446","285118.713348","285886.248822","286636.987737","287403.705149","291289.664897","292057.574467","292824.584662","293591.520965","294358.96678","295109.578627","295876.970646","296644.225394","298170.410194","Mapping"
"Mixed","Both","ball","1","F_gnash.wav","None","732.205751003","143","290522.923989","297411.418927","298161.631017","298928.915446","299696.295099","285886.248822","286636.987737","287403.705149","291289.664897","292057.574467","292824.584662","293591.520965","294358.96678","295109.578627","295876.970646","296644.225394","298938.039346","Mapping"
"Mixed","Both","ball","1","M_knife.wav","None","728.394928155","143","290522.923989","297411.418927","298161.631017","298928.915446","299696.295099","300463.638269","286636.987737","287403.705149","291289.664897","292057.574467","292824.584662","293591.520965","294358.96678","295109.578627","295876.970646","296644.225394","299705.819373","Mapping"
"Mixed","Both","ball","1","F_ball.wav","None","725.842734217","143","290522.923989","297411.418927","298161.631017","298928.915446","299696.295099","300463.638269","301230.498826","287403.705149","291289.664897","292057.574467","292824.584662","293591.520965","294358.96678","295109.578627","295876.970646","296644.225394","300472.560591","Mapping"
"Mixed","Both","ball","1","M_reek.wav","space","295.729565667","143","290522.923989","297411.418927","298161.631017","298928.915446","299696.295099","300463.638269","301230.498826","301981.108199","291289.664897","292057.574467","292824.584662","293591.520965","294358.96678","295109.578627","295876.970646","296644.225394","301239.555946","Mapping"
"Mixed","Both","ball","9","M_priest.wav","None","734.672614257","143","305100.225323","297411.418927","298161.631017","298928.915446","299696.295099","300463.638269","301230.498826","301981.108199","291289.664897","292057.574467","292824.584662","293591.520965","294358.96678","295109.578627","295876.970646","296644.225394","301990.395032","Mapping"
"Mixed","Both","ball","9","M_ball.wav","None","729.586158064","143","305100.225323","297411.418927","298161.631017","298928.915446","299696.295099","300463.638269","301230.498826","301981.108199","305867.522118","292057.574467","292824.584662","293591.520965","294358.96678","295109.578627","295876.970646","296644.225394","305115.301663","Mapping"
"Mixed","Both","ball","9","F_gnash.wav","space","330.600790447","143","305100.225323","297411.418927","298161.631017","298928.915446","299696.295099","300463.638269","301230.498826","301981.108199","305867.522118","306634.506652","292824.584662","293591.520965","294358.96678","295109.578627","295876.970646","296644.225394","305876.529152","Mapping"
"Mixed","Both","ball","9","F_tile.wav","None","728.098434629","143","305100.225323","297411.418927","298161.631017","298928.915446","299696.295099","300463.638269","301230.498826","301981.108199","305867.522118","306634.506652","307401.809012","293591.520965","294358.96678","295109.578627","295876.970646","296644.225394","306643.234815","Mapping"
"Mixed","Both","ball","9","F_ball.wav","None","724.703753833","143","305100.225323","297411.418927","298161.631017","298928.915446","299696.295099","300463.638269","301230.498826","301981.108199","305867.522118","306634.506652","307401.809012","308168.84054","294358.96678","295109.578627","295876.970646","296644.225394","307410.63611","Mapping"
"Mixed","Both","ball","9","M_greet.wav","space","404.88184779","143","305100.225323","297411.418927","298161.631017","298928.915446","299696.295099","300463.638269","301230.498826","301981.108199","305867.522118","306634.506652","307401.809012","308168.84054","308919.794946","295109.578627","295876.970646","296644.225394","308178.191371","Mapping"
"Mixed","Both","ball","9","F_romp.wav","None","732.62189317","143","305100.225323","297411.418927","298161.631017","298928.915446","299696.295099","300463.638269","301230.498826","301981.108199","305867.522118","306634.506652","307401.809012","308168.84054","308919.794946","309687.060206","295876.970646","296644.225394","308929.17453","Mapping"
"Mixed","Both","ball","9","F_priest.wav","None","729.644591222","143","305100.225323","297411.418927","298161.631017","298928.915446","299696.295099","300463.638269","301230.498826","301981.108199","305867.522118","306634.506652","307401.809012","308168.84054","308919.794946","309687.060206","310454.065146","296644.225394","309696.135258","Mapping"
"Mixed","Both","ball","9","F_ball.wav","None","726.590615115","143","305100.225323","297411.418927","298161.631017","298928.915446","299696.295099","300463.638269","301230.498826","301981.108199","305867.522118","306634.506652","307401.809012","308168.84054","308919.794946","309687.060206","310454.065146","311221.360086","310463.143907","Mapping"
"Mixed","Both","ball","9","F_cling.wav","space","352.402803255","143","305100.225323","311971.509106","298161.631017","298928.915446","299696.295099","300463.638269","301230.498826","301981.108199","305867.522118","306634.506652","307401.809012","308168.84054","308919.794946","309687.060206","310454.065146","311221.360086","311230.561279","Mapping"
"Mixed","Both","ball","9","M_bluff.wav","None","736.773729906","143","305100.225323","311971.509106","312738.774675","298928.915446","299696.295099","300463.638269","301230.498826","301981.108199","305867.522118","306634.506652","307401.809012","308168.84054","308919.794946","309687.060206","310454.065146","311221.360086","311980.253655","Mapping"
"Mixed","Both","ball","9","F_done.wav","None","735.17872463","143","305100.225323","311971.509106","312738.774675","313506.374456","299696.295099","300463.638269","301230.498826","301981.108199","305867.522118","306634.506652","307401.809012","308168.84054","308919.794946","309687.060206","310454.065146","311221.360086","312747.634544","Mapping"
"Mixed","Both","ball","9","M_done.wav","None","731.784662232","143","305100.225323","311971.509106","312738.774675","313506.374456","314273.968054","300463.638269","301230.498826","301981.108199","305867.522118","306634.506652","307401.809012","308168.84054","308919.794946","309687.060206","310454.065146","311221.360086","313515.357375","Mapping"
"Mixed","Both","ball","9","M_romp.wav","None","728.272187873","143","305100.225323","311971.509106","312738.774675","313506.374456","314273.968054","315040.809443","301230.498826","301981.108199","305867.522118","306634.506652","307401.809012","308168.84054","308919.794946","309687.060206","310454.065146","311221.360086","314283.249631","Mapping"
"Mixed","Both","ball","9","M_ball.wav","None","726.374814752","143","305100.225323","311971.509106","312738.774675","313506.374456","314273.968054","315040.809443","315807.856738","301981.108199","305867.522118","306634.506652","307401.809012","308168.84054","308919.794946","309687.060206","310454.065146","311221.360086","315050.077725","Mapping"
