"Condition","Talker","Target","Trial","current_stimulus","response_response","response_time_response","subject_nr","time_Audio1","time_Audio10","time_Audio11","time_Audio12","time_Audio13","time_Audio14","time_Audio15","time_Audio16","time_Audio2","time_Audio3","time_Audio4","time_Audio5","time_Audio6","time_Audio7","time_Audio8","time_Audio9","time_response"
"Mixed","Female","cave","22","M_gnash.wav","NA","NA","420","98207.5792748","NA","NA","NA","NA","NA","NA","NA","NA","NA","NA","NA","NA","NA","NA","NA","NA"
"Mixed","Female","cave","22","M_dime.wav","None","738.571797596","420","98207.5792748","NA","NA","NA","NA","NA","NA","NA","98974.124731","NA","NA","NA","NA","NA","NA","NA","98214.4802037"
"Mixed","Female","cave","22","M_cling.wav","None","735.566083057","420","98207.5792748","NA","NA","NA","NA","NA","NA","NA","98974.124731","99740.8379182","NA","NA","NA","NA","NA","NA","98979.7960228"
"Mixed","Female","cave","22","F_cave.wav","None","731.81902127","420","98207.5792748","NA","NA","NA","NA","NA","NA","NA","98974.124731","99740.8379182","100507.744843","NA","NA","NA","NA","NA","99746.132546"
"Mixed","Female","cave","22","M_lash.wav","None","727.093042148","420","98207.5792748","NA","NA","NA","NA","NA","NA","NA","98974.124731","99740.8379182","100507.744843","101257.351231","NA","NA","NA","NA","100513.55143"
"Mixed","Female","cave","22","F_cave.wav","space","17.9676624156","420","98207.5792748","NA","NA","NA","NA","NA","NA","NA","98974.124731","99740.8379182","100507.744843","101257.351231","102023.964189","NA","NA","NA","101262.354521"
"Mixed","Female","cave","22","F_dime.wav","None","736.615131783","420","98207.5792748","NA","NA","NA","NA","NA","NA","NA","98974.124731","99740.8379182","100507.744843","101257.351231","102023.964189","102790.644648","NA","NA","102029.226673"
"Mixed","Female","cave","22","F_cave.wav","space","76.337727065","420","98207.5792748","NA","NA","NA","NA","NA","NA","NA","98974.124731","99740.8379182","100507.744843","101257.351231","102023.964189","102790.644648","103557.540177","NA","102795.867391"
"Mixed","Female","cave","22","F_reek.wav","space","644.72167773","420","98207.5792748","NA","NA","NA","NA","NA","NA","NA","98974.124731","99740.8379182","100507.744843","101257.351231","102023.964189","102790.644648","103557.540177","104307.251469","103563.253255"
"Mixed","Female","cave","22","F_romp.wav","None","740.605023512","420","98207.5792748","105073.879622","NA","NA","NA","NA","NA","NA","98974.124731","99740.8379182","100507.744843","101257.351231","102023.964189","102790.644648","103557.540177","104307.251469","104312.576487"
"Mixed","Female","cave","22","M_greet.wav","space","136.81670109","420","98207.5792748","105073.879622","105840.475631","NA","NA","NA","NA","NA","98974.124731","99740.8379182","100507.744843","101257.351231","102023.964189","102790.644648","103557.540177","104307.251469","105079.207562"
"Mixed","Female","cave","22","F_cave.wav","None","732.214386987","420","98207.5792748","105073.879622","105840.475631","106607.423174","NA","NA","NA","NA","98974.124731","99740.8379182","100507.744843","101257.351231","102023.964189","102790.644648","103557.540177","104307.251469","105845.791883"
"Mixed","Female","cave","22","F_romp.wav","space","522.780721348","420","98207.5792748","105073.879622","105840.475631","106607.423174","107357.122193","NA","NA","NA","98974.124731","99740.8379182","100507.744843","101257.351231","102023.964189","102790.644648","103557.540177","104307.251469","106613.088037"
"Mixed","Female","cave","22","M_cad.wav","None","740.980810882","420","98207.5792748","105073.879622","105840.475631","106607.423174","107357.122193","108123.711482","NA","NA","98974.124731","99740.8379182","100507.744843","101257.351231","102023.964189","102790.644648","103557.540177","104307.251469","107361.936129"
"Mixed","Female","cave","22","M_jolt.wav","None","736.51373348","420","98207.5792748","105073.879622","105840.475631","106607.423174","107357.122193","108123.711482","108890.340511","NA","98974.124731","99740.8379182","100507.744843","101257.351231","102023.964189","102790.644648","103557.540177","104307.251469","108128.94679"
"Mixed","Female","cave","22","M_cling.wav","None","732.33770135","420","98207.5792748","105073.879622","105840.475631","106607.423174","107357.122193","108123.711482","108890.340511","109657.511014","98974.124731","99740.8379182","100507.744843","101257.351231","102023.964189","102790.644648","103557.540177","104307.251469","108895.596859"
"Mixed","Female","tile","36","M_park.wav","None","727.443406889","420","113423.437268","105073.879622","105840.475631","106607.423174","107357.122193","108123.711482","108890.340511","109657.511014","98974.124731","99740.8379182","100507.744843","101257.351231","102023.964189","102790.644648","103557.540177","104307.251469","109662.996457"
"Mixed","Female","tile","36","M_lash.wav","None","740.47118944","420","113423.437268","105073.879622","105840.475631","106607.423174","107357.122193","108123.711482","108890.340511","109657.511014","114190.111883","99740.8379182","100507.744843","101257.351231","102023.964189","102790.644648","103557.540177","104307.251469","113428.504553"
"Mixed","Female","tile","36","M_romp.wav","None","736.341911571","420","113423.437268","105073.879622","105840.475631","106607.423174","107357.122193","108123.711482","108890.340511","109657.511014","114190.111883","114956.691528","100507.744843","101257.351231","102023.964189","102790.644648","103557.540177","104307.251469","114195.279105"
"Mixed","Female","tile","36","M_dime.wav","None","732.411923739","420","113423.437268","105073.879622","105840.475631","106607.423174","107357.122193","108123.711482","108890.340511","109657.511014","114190.111883","114956.691528","115723.735794","101257.351231","102023.964189","102790.644648","103557.540177","104307.251469","114961.852614"
"Mixed","Female","tile","36","F_tile.wav","None","727.253175491","420","113423.437268","105073.879622","105840.475631","106607.423174","107357.122193","108123.711482","108890.340511","109657.511014","114190.111883","114956.691528","115723.735794","116473.40793","102023.964189","102790.644648","103557.540177","104307.251469","115729.676799"
"Mixed","Female","tile","36","F_greet.wav","space","640.605257283","420","113423.437268","105073.879622","105840.475631","106607.423174","107357.122193","108123.711482","108890.340511","109657.511014","114190.111883","114956.691528","115723.735794","116473.40793","117239.966536","102790.644648","103557.540177","104307.251469","116478.455344"
"Mixed","Female","tile","36","M_park.wav","None","737.165663203","420","113423.437268","105073.879622","105840.475631","106607.423174","107357.122193","108123.711482","108890.340511","109657.511014","114190.111883","114956.691528","115723.735794","116473.40793","117239.966536","118006.543843","103557.540177","104307.251469","117245.071809"
"Mixed","Female","tile","36","F_tile.wav","None","733.493408234","420","113423.437268","105073.879622","105840.475631","106607.423174","107357.122193","108123.711482","108890.340511","109657.511014","114190.111883","114956.691528","115723.735794","116473.40793","117239.966536","118006.543843","118773.249433","104307.251469","118011.572264"
"Mixed","Female","tile","36","F_greet.wav","space","604.482038766","420","113423.437268","105073.879622","105840.475631","106607.423174","107357.122193","108123.711482","108890.340511","109657.511014","114190.111883","114956.691528","115723.735794","116473.40793","117239.966536","118006.543843","118773.249433","119523.205893","118778.278146"
"Mixed","Female","tile","36","M_dime.wav","None","741.555011648","420","113423.437268","120289.858592","105840.475631","106607.423174","107357.122193","108123.711482","108890.340511","109657.511014","114190.111883","114956.691528","115723.735794","116473.40793","117239.966536","118006.543843","118773.249433","119523.205893","119528.622374"
"Mixed","Female","tile","36","F_tile.wav","None","738.062176154","420","113423.437268","120289.858592","121056.463367","106607.423174","107357.122193","108123.711482","108890.340511","109657.511014","114190.111883","114956.691528","115723.735794","116473.40793","117239.966536","118006.543843","118773.249433","119523.205893","120294.894026"
"Mixed","Female","tile","36","F_jaw.wav","space","609.140808638","420","113423.437268","120289.858592","121056.463367","121823.111391","107357.122193","108123.711482","108890.340511","109657.511014","114190.111883","114956.691528","115723.735794","116473.40793","117239.966536","118006.543843","118773.249433","119523.205893","121061.608674"
"Mixed","Female","tile","36","M_jolt.wav","None","730.028333082","420","113423.437268","120289.858592","121056.463367","121823.111391","122573.04798","108123.711482","108890.340511","109657.511014","114190.111883","114956.691528","115723.735794","116473.40793","117239.966536","118006.543843","118773.249433","119523.205893","121828.123155"
"Mixed","Female","tile","36","F_tile.wav","None","742.56490368","420","113423.437268","120289.858592","121056.463367","121823.111391","122573.04798","123339.688698","108890.340511","109657.511014","114190.111883","114956.691528","115723.735794","116473.40793","117239.966536","118006.543843","118773.249433","119523.205893","122578.298192"
"Mixed","Female","tile","36","M_reek.wav","space","541.722041244","420","113423.437268","120289.858592","121056.463367","121823.111391","122573.04798","123339.688698","124106.307793","109657.511014","114190.111883","114956.691528","115723.735794","116473.40793","117239.966536","118006.543843","118773.249433","119523.205893","123344.848031"
"Mixed","Female","tile","36","F_depth.wav","None","734.402486392","420","113423.437268","120289.858592","121056.463367","121823.111391","122573.04798","123339.688698","124106.307793","124872.952894","114190.111883","114956.691528","115723.735794","116473.40793","117239.966536","118006.543843","118773.249433","119523.205893","124111.601544"
"Mixed","Female","ball","10","F_cling.wav","None","731.229917584","420","127956.140705","120289.858592","121056.463367","121823.111391","122573.04798","123339.688698","124106.307793","124872.952894","114190.111883","114956.691528","115723.735794","116473.40793","117239.966536","118006.543843","118773.249433","119523.205893","124877.706049"
"Mixed","Female","ball","10","F_ball.wav","None","740.324790161","420","127956.140705","120289.858592","121056.463367","121823.111391","122573.04798","123339.688698","124106.307793","124872.952894","128722.72298","114956.691528","115723.735794","116473.40793","117239.966536","118006.543843","118773.249433","119523.205893","127961.305297"
"Mixed","Female","ball","10","M_reek.wav","space","606.251103108","420","127956.140705","120289.858592","121056.463367","121823.111391","122573.04798","123339.688698","124106.307793","124872.952894","128722.72298","129489.403731","115723.735794","116473.40793","117239.966536","118006.543843","118773.249433","119523.205893","128727.845786"
"Mixed","Female","ball","10","M_reek.wav","None","732.350850986","420","127956.140705","120289.858592","121056.463367","121823.111391","122573.04798","123339.688698","124106.307793","124872.952894","128722.72298","129489.403731","130256.064904","116473.40793","117239.966536","118006.543843","118773.249433","119523.205893","129494.543193"
"Mixed","Female","ball","10","M_romp.wav","None","729.078052732","420","127956.140705","120289.858592","121056.463367","121823.111391","122573.04798","123339.688698","124106.307793","124872.952894","128722.72298","129489.403731","130256.064904","131005.980162","117239.966536","118006.543843","118773.249433","119523.205893","130261.106767"
"Mixed","Female","ball","10","F_bluff.wav","None","741.697319929","420","127956.140705","120289.858592","121056.463367","121823.111391","122573.04798","123339.688698","124106.307793","124872.952894","128722.72298","129489.403731","130256.064904","131005.980162","131772.612406","118006.543843","118773.249433","119523.205893","131011.118163"
"Mixed","Female","ball","10","F_bluff.wav","None","737.846522126","420","127956.140705","120289.858592","121056.463367","121823.111391","122573.04798","123339.688698","124106.307793","124872.952894","128722.72298","129489.403731","130256.064904","131005.980162","131772.612406","132539.210169","118773.249433","119523.205893","131777.606345"
"Mixed","Female","ball","10","M_cad.wav","None","733.521168576","420","127956.140705","120289.858592","121056.463367","121823.111391","122573.04798","123339.688698","124106.307793","124872.952894","128722.72298","129489.403731","130256.064904","131005.980162","131772.612406","132539.210169","133305.901147","119523.205893","132544.583986"
"Mixed","Female","ball","10","F_ball.wav","None","730.158952798","420","127956.140705","120289.858592","121056.463367","121823.111391","122573.04798","123339.688698","124106.307793","124872.952894","128722.72298","129489.403731","130256.064904","131005.980162","131772.612406","132539.210169","133305.901147","134055.843581","133310.864404"
"Mixed","Female","ball","10","M_jaw.wav","space","472.648465233","420","127956.140705","134822.470273","121056.463367","121823.111391","122573.04798","123339.688698","124106.307793","124872.952894","128722.72298","129489.403731","130256.064904","131005.980162","131772.612406","132539.210169","133305.901147","134055.843581","134060.906191"
"Mixed","Female","ball","10","M_depth.wav","None","738.368708776","420","127956.140705","134822.470273","135589.046412","121823.111391","122573.04798","123339.688698","124106.307793","124872.952894","128722.72298","129489.403731","130256.064904","131005.980162","131772.612406","132539.210169","133305.901147","134055.843581","134827.738017"
"Mixed","Female","ball","10","F_ball.wav","None","734.913568905","420","127956.140705","134822.470273","135589.046412","136355.754631","122573.04798","123339.688698","124106.307793","124872.952894","128722.72298","129489.403731","130256.064904","131005.980162","131772.612406","132539.210169","133305.901147","134055.843581","135594.06928"
"Mixed","Female","ball","10","F_cling.wav","space","548.610697141","420","127956.140705","134822.470273","135589.046412","136355.754631","137105.698234","123339.688698","124106.307793","124872.952894","128722.72298","129489.403731","130256.064904","131005.980162","131772.612406","132539.210169","133305.901147","134055.843581","136360.838281"
"Mixed","Female","ball","10","F_ball.wav","None","743.422844366","420","127956.140705","134822.470273","135589.046412","136355.754631","137105.698234","137872.257424","124106.307793","124872.952894","128722.72298","129489.403731","130256.064904","131005.980162","131772.612406","132539.210169","133305.901147","134055.843581","137110.773993"
"Mixed","Female","ball","10","M_gnash.wav","space","511.885809731","420","127956.140705","134822.470273","135589.046412","136355.754631","137105.698234","137872.257424","138638.905448","124872.952894","128722.72298","129489.403731","130256.064904","131005.980162","131772.612406","132539.210169","133305.901147","134055.843581","137877.478999"
"Mixed","Female","ball","10","M_knife.wav","None","735.450658475","420","127956.140705","134822.470273","135589.046412","136355.754631","137105.698234","137872.257424","138638.905448","139405.54675","128722.72298","129489.403731","130256.064904","131005.980162","131772.612406","132539.210169","133305.901147","134055.843581","138644.198907"
"Mixed","Male","done","40","M_park.wav","None","731.987044394","420","142505.431968","134822.470273","135589.046412","136355.754631","137105.698234","137872.257424","138638.905448","139405.54675","128722.72298","129489.403731","130256.064904","131005.980162","131772.612406","132539.210169","133305.901147","134055.843581","139410.436369"
"Mixed","Male","done","40","M_gnash.wav","None","739.927963373","420","142505.431968","134822.470273","135589.046412","136355.754631","137105.698234","137872.257424","138638.905448","139405.54675","143272.093434","129489.403731","130256.064904","131005.980162","131772.612406","132539.210169","133305.901147","134055.843581","142510.588087"
"Mixed","Male","done","40","M_done.wav","None","736.048528585","420","142505.431968","134822.470273","135589.046412","136355.754631","137105.698234","137872.257424","138638.905448","139405.54675","143272.093434","144038.6798","130256.064904","131005.980162","131772.612406","132539.210169","133305.901147","134055.843581","143277.201044"
"Mixed","Male","done","40","F_romp.wav","space","608.73550764","420","142505.431968","134822.470273","135589.046412","136355.754631","137105.698234","137872.257424","138638.905448","139405.54675","143272.093434","144038.6798","144805.778125","131005.980162","131772.612406","132539.210169","133305.901147","134055.843581","144044.082255"
"Mixed","Male","done","40","M_done.wav","None","727.195901522","420","142505.431968","134822.470273","135589.046412","136355.754631","137105.698234","137872.257424","138638.905448","139405.54675","143272.093434","144038.6798","144805.778125","145555.271718","131772.612406","132539.210169","133305.901147","134055.843581","144811.156911"
"Mixed","Male","done","40","M_cling.wav","space","660.430524922","420","142505.431968","134822.470273","135589.046412","136355.754631","137105.698234","137872.257424","138638.905448","139405.54675","143272.093434","144038.6798","144805.778125","145555.271718","146321.983737","132539.210169","133305.901147","134055.843581","145560.309782"
"Mixed","Male","done","40","M_priest.wav","None","736.000605468","420","142505.431968","134822.470273","135589.046412","136355.754631","137105.698234","137872.257424","138638.905448","139405.54675","143272.093434","144038.6798","144805.778125","145555.271718","146321.983737","147088.56572","133305.901147","134055.843581","146327.344405"
"Mixed","Male","done","40","F_knife.wav","None","732.392053178","420","142505.431968","134822.470273","135589.046412","136355.754631","137105.698234","137872.257424","138638.905448","139405.54675","143272.093434","144038.6798","144805.778125","145555.271718","146321.983737","147088.56572","147855.137475","134055.843581","147093.750183"
"Mixed","Male","done","40","F_park.wav","None","728.800741523","420","142505.431968","134822.470273","135589.046412","136355.754631","137105.698234","137872.257424","138638.905448","139405.54675","143272.093434","144038.6798","144805.778125","145555.271718","146321.983737","147088.56572","147855.137475","148605.164359","147860.289502"
"Mixed","Male","done","40","M_done.wav","None","741.607317977","420","142505.431968","149371.783745","135589.046412","136355.754631","137105.698234","137872.257424","138638.905448","139405.54675","143272.093434","144038.6798","144805.778125","145555.271718","146321.983737","147088.56572","147855.137475","148605.164359","148610.21528"
"Mixed","Male","done","40","F_dime.wav","space","547.646682727","420","142505.431968","149371.783745","150138.5019","136355.754631","137105.698234","137872.257424","138638.905448","139405.54675","143272.093434","144038.6798","144805.778125","145555.271718","146321.983737","147088.56572","147855.137475","148605.164359","149376.793756"
"Mixed","Male","done","40","F_jolt.wav","None","733.247948365","420","142505.431968","149371.783745","150138.5019","150905.047941","137105.698234","137872.257424","138638.905448","139405.54675","143272.093434","144038.6798","144805.778125","145555.271718","146321.983737","147088.56572","147855.137475","148605.164359","150143.814061"
"Mixed","Male","done","40","F_dime.wav","None","729.960539404","420","142505.431968","149371.783745","150138.5019","150905.047941","151655.047941","137872.257424","138638.905448","139405.54675","143272.093434","144038.6798","144805.778125","145555.271718","146321.983737","147088.56572","147855.137475","148605.164359","150910.114934"
"Mixed","Male","done","40","M_done.wav","None","742.568994678","420","142505.431968","149371.783745","150138.5019","150905.047941","151655.047941","152421.59778","138638.905448","139405.54675","143272.093434","144038.6798","144805.778125","145555.271718","146321.983737","147088.56572","147855.137475","148605.164359","151660.298736"
"Mixed","Male","done","40","F_gnash.wav","space","601.421095756","420","142505.431968","149371.783745","150138.5019","150905.047941","151655.047941","152421.59778","153188.270057","139405.54675","143272.093434","144038.6798","144805.778125","145555.271718","146321.983737","147088.56572","147855.137475","148605.164359","152426.741918"
"Mixed","Male","done","40","F_cling.wav","None","734.702298089","420","142505.431968","149371.783745","150138.5019","150905.047941","151655.047941","152421.59778","153188.270057","153954.901132","143272.093434","144038.6798","144805.778125","145555.271718","146321.983737","147088.56572","147855.137475","148605.164359","153193.316011"
"Mixed","Male","cave","15","F_romp.wav","None","730.942963308","420","157038.069072","149371.783745","150138.5019","150905.047941","151655.047941","152421.59778","153188.270057","153954.901132","143272.093434","144038.6798","144805.778125","145555.271718","146321.983737","147088.56572","147855.137475","148605.164359","153960.225566"
"Mixed","Male","cave","15","M_cave.wav","None","740.0918955","420","157038.069072","149371.783745","150138.5019","150905.047941","151655.047941","152421.59778","153188.270057","153954.901132","157804.684368","144038.6798","144805.778125","145555.271718","146321.983737","147088.56572","147855.137475","148605.164359","157043.155059"
"Mixed","Male","cave","15","F_depth.wav","space","569.828657323","420","157038.069072","149371.783745","150138.5019","150905.047941","151655.047941","152421.59778","153188.270057","153954.901132","157804.684368","158571.298787","144805.778125","145555.271718","146321.983737","147088.56572","147855.137475","148605.164359","157809.927566"
"Mixed","Male","cave","15","F_dime.wav","None","731.467779886","420","157038.069072","149371.783745","150138.5019","150905.047941","151655.047941","152421.59778","153188.270057","153954.901132","157804.684368","158571.298787","159338.232595","145555.271718","146321.983737","147088.56572","147855.137475","148605.164359","158576.662085"
"Mixed","Male","cave","15","F_priest.wav","None","727.140673051","420","157038.069072","149371.783745","150138.5019","150905.047941","151655.047941","152421.59778","153188.270057","153954.901132","157804.684368","158571.298787","159338.232595","160087.94155","146321.983737","147088.56572","147855.137475","148605.164359","159343.810963"
"Mixed","Male","cave","15","F_jolt.wav","None","740.845223526","420","157038.069072","149371.783745","150138.5019","150905.047941","151655.047941","152421.59778","153188.270057","153954.901132","157804.684368","158571.298787","159338.232595","160087.94155","160854.601847","147088.56572","147855.137475","148605.164359","160092.96851"
"Mixed","Male","cave","15","M_dime.wav","None","736.812960749","420","157038.069072","149371.783745","150138.5019","150905.047941","151655.047941","152421.59778","153188.270057","153954.901132","157804.684368","158571.298787","159338.232595","160087.94155","160854.601847","161621.22474","147855.137475","148605.164359","160859.811732"
"Mixed","Male","cave","15","M_cave.wav","None","736.442725446","420","157038.069072","149371.783745","150138.5019","150905.047941","151655.047941","152421.59778","153188.270057","153954.901132","157804.684368","158571.298787","159338.232595","160087.94155","160854.601847","161621.22474","162387.813151","148605.164359","161622.937114"
"Mixed","Male","cave","15","F_knife.wav","space","650.188419671","420","157038.069072","149371.783745","150138.5019","150905.047941","151655.047941","152421.59778","153188.270057","153954.901132","157804.684368","158571.298787","159338.232595","160087.94155","160854.601847","161621.22474","162387.813151","163137.82484","162393.189891"
"Mixed","Male","cave","15","M_cave.wav","None","741.621344255","420","157038.069072","163904.438674","150138.5019","150905.047941","151655.047941","152421.59778","153188.270057","153954.901132","157804.684368","158571.298787","159338.232595","160087.94155","160854.601847","161621.22474","162387.813151","163137.82484","163142.849754"
"Mixed","Male","cave","15","F_jaw.wav","space","613.73587583","420","157038.069072","163904.438674","164671.01043","150905.047941","151655.047941","152421.59778","153188.270057","153954.901132","157804.684368","158571.298787","159338.232595","160087.94155","160854.601847","161621.22474","162387.813151","163137.82484","163909.519693"
"Mixed","Male","cave","15","M_cling.wav","None","733.771888299","420","157038.069072","163904.438674","164671.01043","165437.657284","151655.047941","152421.59778","153188.270057","153954.901132","157804.684368","158571.298787","159338.232595","160087.94155","160854.601847","161621.22474","162387.813151","163137.82484","164676.105183"
"Mixed","Male","cave","15","M_greet.wav","None","729.848036964","420","157038.069072","163904.438674","164671.01043","165437.657284","166187.648226","152421.59778","153188.270057","153954.901132","157804.684368","158571.298787","159338.232595","160087.94155","160854.601847","161621.22474","162387.813151","163137.82484","165442.789733"
"Mixed","Male","cave","15","M_cave.wav","None","742.643509281","420","157038.069072","163904.438674","164671.01043","165437.657284","166187.648226","166954.355568","153188.270057","153954.901132","157804.684368","158571.298787","159338.232595","160087.94155","160854.601847","161621.22474","162387.813151","163137.82484","166192.80113"
"Mixed","Male","cave","15","M_bluff.wav","space","691.683118322","420","157038.069072","163904.438674","164671.01043","165437.657284","166187.648226","166954.355568","167720.865959","153954.901132","157804.684368","158571.298787","159338.232595","160087.94155","160854.601847","161621.22474","162387.813151","163137.82484","166959.301877"
"Mixed","Male","cave","15","F_dime.wav","None","735.075455532","420","157038.069072","163904.438674","164671.01043","165437.657284","166187.648226","166954.355568","167720.865959","168487.538236","157804.684368","158571.298787","159338.232595","160087.94155","160854.601847","161621.22474","162387.813151","163137.82484","167725.867496"
"Mixed","Male","ball","5","F_greet.wav","None","731.048744823","420","171570.752638","163904.438674","164671.01043","165437.657284","166187.648226","166954.355568","167720.865959","168487.538236","157804.684368","158571.298787","159338.232595","160087.94155","160854.601847","161621.22474","162387.813151","163137.82484","168492.648185"
"Mixed","Male","ball","5","M_ball.wav","None","740.322452448","420","171570.752638","163904.438674","164671.01043","165437.657284","166187.648226","166954.355568","167720.865959","168487.538236","172337.372025","158571.298787","159338.232595","160087.94155","160854.601847","161621.22474","162387.813151","163137.82484","171575.868431"
"Mixed","Male","ball","5","F_reek.wav","space","476.07642919","420","171570.752638","163904.438674","164671.01043","165437.657284","166187.648226","166954.355568","167720.865959","168487.538236","172337.372025","173103.954008","159338.232595","160087.94155","160854.601847","161621.22474","162387.813151","163137.82484","172342.557365"
"Mixed","Male","ball","5","F_priest.wav","None","732.813718168","420","171570.752638","163904.438674","164671.01043","165437.657284","166187.648226","166954.355568","167720.865959","168487.538236","172337.372025","173103.954008","173870.576901","160087.94155","160854.601847","161621.22474","162387.813151","163137.82484","173109.047885"
"Mixed","Male","ball","5","M_jolt.wav","None","728.891912331","420","171570.752638","163904.438674","164671.01043","165437.657284","166187.648226","166954.355568","167720.865959","168487.538236","172337.372025","173103.954008","173870.576901","174620.581576","160854.601847","161621.22474","162387.813151","163137.82484","173875.902796"
"Mixed","Male","ball","5","F_knife.wav","None","742.056743309","420","171570.752638","163904.438674","164671.01043","165437.657284","166187.648226","166954.355568","167720.865959","168487.538236","172337.372025","173103.954008","173870.576901","174620.581576","175387.18606","161621.22474","162387.813151","163137.82484","174625.626069"
"Mixed","Male","ball","5","M_ball.wav","None","738.206822148","420","171570.752638","163904.438674","164671.01043","165437.657284","166187.648226","166954.355568","167720.865959","168487.538236","172337.372025","173103.954008","173870.576901","174620.581576","175387.18606","176153.826778","162387.813151","163137.82484","175392.503772"
"Mixed","Male","ball","5","F_bluff.wav","space","435.383858325","420","171570.752638","163904.438674","164671.01043","165437.657284","166187.648226","166954.355568","167720.865959","168487.538236","172337.372025","173103.954008","173870.576901","174620.581576","175387.18606","176153.826778","176920.519802","163137.82484","176158.980558"
"Mixed","Male","ball","5","M_ball.wav","None","730.558993942","420","171570.752638","163904.438674","164671.01043","165437.657284","166187.648226","166954.355568","167720.865959","168487.538236","172337.372025","173103.954008","173870.576901","174620.581576","175387.18606","176153.826778","176920.519802","177670.454054","176925.472247"
"Mixed","Male","ball","5","F_cling.wav","space","478.803079236","420","171570.752638","178437.079577","164671.01043","165437.657284","166187.648226","166954.355568","167720.865959","168487.538236","172337.372025","173103.954008","173870.576901","174620.581576","175387.18606","176153.826778","176920.519802","177670.454054","177675.398609"
"Mixed","Male","ball","5","M_jaw.wav","None","739.126420015","420","171570.752638","178437.079577","179203.656008","165437.657284","166187.648226","166954.355568","167720.865959","168487.538236","172337.372025","173103.954008","173870.576901","174620.581576","175387.18606","176153.826778","176920.519802","177670.454054","178442.090757"
"Mixed","Male","ball","5","F_dime.wav","None","735.493906167","420","171570.752638","178437.079577","179203.656008","179970.346402","166187.648226","166954.355568","167720.865959","168487.538236","172337.372025","173103.954008","173870.576901","174620.581576","175387.18606","176153.826778","176920.519802","177670.454054","179208.675954"
"Mixed","Male","ball","5","M_ball.wav","None","731.352939733","420","171570.752638","178437.079577","179203.656008","179970.346402","180737.354726","166954.355568","167720.865959","168487.538236","172337.372025","173103.954008","173870.576901","174620.581576","175387.18606","176153.826778","176920.519802","177670.454054","179975.565054"
"Mixed","Male","ball","5","F_depth.wav","space","450.881142487","420","171570.752638","178437.079577","179203.656008","179970.346402","180737.354726","181486.944165","167720.865959","168487.538236","172337.372025","173103.954008","173870.576901","174620.581576","175387.18606","176153.826778","176920.519802","177670.454054","180742.950334"
"Mixed","Male","ball","5","M_bluff.wav","None","740.353427146","420","171570.752638","178437.079577","179203.656008","179970.346402","180737.354726","181486.944165","182253.562382","168487.538236","172337.372025","173103.954008","173870.576901","174620.581576","175387.18606","176153.826778","176920.519802","177670.454054","181492.013496"
"Mixed","Male","ball","5","M_knife.wav","None","736.77555734","420","171570.752638","178437.079577","179203.656008","179970.346402","180737.354726","181486.944165","182253.562382","183020.213328","172337.372025","173103.954008","173870.576901","174620.581576","175387.18606","176153.826778","176920.519802","177670.454054","182258.650707"
"Mixed","Male","tile","27","F_romp.wav","None","733.096873659","420","186137.197748","178437.079577","179203.656008","179970.346402","180737.354726","181486.944165","182253.562382","183020.213328","172337.372025","173103.954008","173870.576901","174620.581576","175387.18606","176153.826778","176920.519802","177670.454054","183025.348115"
"Mixed","Male","tile","27","F_knife.wav","None","723.593777943","420","186137.197748","178437.079577","179203.656008","179970.346402","180737.354726","181486.944165","182253.562382","183020.213328","186886.704491","173103.954008","173870.576901","174620.581576","175387.18606","176153.826778","176920.519802","177670.454054","186142.621535"
"Mixed","Male","tile","27","M_tile.wav","None","737.890354245","420","186137.197748","178437.079577","179203.656008","179970.346402","180737.354726","181486.944165","182253.562382","183020.213328","186886.704491","187653.336735","173870.576901","174620.581576","175387.18606","176153.826778","176920.519802","177670.454054","186891.568687"
"Mixed","Male","tile","27","F_lash.wav","space","439.187317439","420","186137.197748","178437.079577","179203.656008","179970.346402","180737.354726","181486.944165","182253.562382","183020.213328","186886.704491","187653.336735","188419.899724","174620.581576","175387.18606","176153.826778","176920.519802","177670.454054","187658.260835"
"Mixed","Male","tile","27","F_greet.wav","None","729.649915784","420","186137.197748","178437.079577","179203.656008","179970.346402","180737.354726","181486.944165","182253.562382","183020.213328","186886.704491","187653.336735","188419.899724","189169.908198","175387.18606","176153.826778","176920.519802","177670.454054","188425.300425"
"Mixed","Male","tile","27","F_jaw.wav","None","743.147286441","420","186137.197748","178437.079577","179203.656008","179970.346402","180737.354726","181486.944165","182253.562382","183020.213328","186886.704491","187653.336735","188419.899724","189169.908198","189936.524662","176153.826778","176920.519802","177670.454054","189174.920547"
"Mixed","Male","tile","27","M_tile.wav","None","739.570001064","420","186137.197748","178437.079577","179203.656008","179970.346402","180737.354726","181486.944165","182253.562382","183020.213328","186886.704491","187653.336735","188419.899724","189169.908198","189936.524662","190703.243694","176920.519802","177670.454054","189941.590779"
"Mixed","Male","tile","27","F_jaw.wav","space","436.785025078","420","186137.197748","178437.079577","179203.656008","179970.346402","180737.354726","181486.944165","182253.562382","183020.213328","186886.704491","187653.336735","188419.899724","189169.908198","189936.524662","190703.243694","191469.748824","177670.454054","190708.352181"
"Mixed","Male","tile","27","M_tile.wav","None","731.380407861","420","186137.197748","178437.079577","179203.656008","179970.346402","180737.354726","181486.944165","182253.562382","183020.213328","186886.704491","187653.336735","188419.899724","189169.908198","189936.524662","190703.243694","191469.748824","192236.598768","191475.149818"
"Mixed","Male","tile","27","F_depth.wav","space","559.240278328","420","186137.197748","192986.373471","179203.656008","179970.346402","180737.354726","181486.944165","182253.562382","183020.213328","186886.704491","187653.336735","188419.899724","189169.908198","189936.524662","190703.243694","191469.748824","192236.598768","192241.786445"
"Mixed","Male","tile","27","M_park.wav","None","740.551548326","420","186137.197748","192986.373471","193753.057436","179970.346402","180737.354726","181486.944165","182253.562382","183020.213328","186886.704491","187653.336735","188419.899724","189169.908198","189936.524662","190703.243694","191469.748824","192236.598768","192991.611409"
"Mixed","Male","tile","27","M_knife.wav","None","737.276704573","420","186137.197748","192986.373471","193753.057436","194519.715395","180737.354726","181486.944165","182253.562382","183020.213328","186886.704491","187653.336735","188419.899724","189169.908198","189936.524662","190703.243694","191469.748824","192236.598768","193758.047577"
"Mixed","Male","tile","27","M_tile.wav","None","733.484934024","420","186137.197748","192986.373471","193753.057436","194519.715395","195286.290949","181486.944165","182253.562382","183020.213328","186886.704491","187653.336735","188419.899724","189169.908198","189936.524662","190703.243694","191469.748824","192236.598768","194524.912131"
"Mixed","Male","tile","27","M_park.wav","space","461.458709559","420","186137.197748","192986.373471","193753.057436","194519.715395","195286.290949","196036.173187","182253.562382","183020.213328","186886.704491","187653.336735","188419.899724","189169.908198","189936.524662","190703.243694","191469.748824","192236.598768","195291.302422"
"Mixed","Male","tile","27","F_romp.wav","None","743.747494264","420","186137.197748","192986.373471","193753.057436","194519.715395","195286.290949","196036.173187","196802.915888","183020.213328","186886.704491","187653.336735","188419.899724","189169.908198","189936.524662","190703.243694","191469.748824","192236.598768","196041.298039"
"Mixed","Male","tile","27","M_jolt.wav","None","740.401934691","420","186137.197748","192986.373471","193753.057436","194519.715395","195286.290949","196036.173187","196802.915888","197569.514235","186886.704491","187653.336735","188419.899724","189169.908198","189936.524662","190703.243694","191469.748824","192236.598768","196807.904568"
"Mixed","Male","tile","26","F_jaw.wav","None","737.046147624","420","200669.366433","192986.373471","193753.057436","194519.715395","195286.290949","196036.173187","196802.915888","197569.514235","186886.704491","187653.336735","188419.899724","189169.908198","189936.524662","190703.243694","191469.748824","192236.598768","197574.808863"
"Mixed","Male","tile","26","M_bluff.wav","None","740.534307692","420","200669.366433","192986.373471","193753.057436","194519.715395","195286.290949","196036.173187","196802.915888","197569.514235","201435.998677","187653.336735","188419.899724","189169.908198","189936.524662","190703.243694","191469.748824","192236.598768","200674.235597"
"Mixed","Male","tile","26","M_lash.wav","None","736.901209416","420","200669.366433","192986.373471","193753.057436","194519.715395","195286.290949","196036.173187","196802.915888","197569.514235","201435.998677","202202.628291","188419.899724","189169.908198","189936.524662","190703.243694","191469.748824","192236.598768","201441.081449"
"Mixed","Male","tile","26","F_depth.wav","None","733.549805561","420","200669.366433","192986.373471","193753.057436","194519.715395","195286.290949","196036.173187","196802.915888","197569.514235","201435.998677","202202.628291","202969.280113","189169.908198","189936.524662","190703.243694","191469.748824","192236.598768","202207.747006"
"Mixed","Male","tile","26","M_tile.wav","None","730.115997321","420","200669.366433","192986.373471","193753.057436","194519.715395","195286.290949","196036.173187","196802.915888","197569.514235","201435.998677","202202.628291","202969.280113","203719.231898","189936.524662","190703.243694","191469.748824","192236.598768","202974.386263"
"Mixed","Male","tile","26","M_knife.wav","space","435.413664167","420","200669.366433","192986.373471","193753.057436","194519.715395","195286.290949","196036.173187","196802.915888","197569.514235","201435.998677","202202.628291","202969.280113","203719.231898","204485.808036","190703.243694","191469.748824","192236.598768","203724.65773"
"Mixed","Male","tile","26","F_reek.wav","None","739.413666504","420","200669.366433","192986.373471","193753.057436","194519.715395","195286.290949","196036.173187","196802.915888","197569.514235","201435.998677","202202.628291","202969.280113","203719.231898","204485.808036","205252.494632","191469.748824","192236.598768","204490.874737"
"Mixed","Male","tile","26","M_tile.wav","None","736.047944157","420","200669.366433","192986.373471","193753.057436","194519.715395","195286.290949","196036.173187","196802.915888","197569.514235","201435.998677","202202.628291","202969.280113","203719.231898","204485.808036","205252.494632","206019.233534","192236.598768","205257.528605"
"Mixed","Male","tile","26","F_park.wav","space","503.290038888","420","200669.366433","192986.373471","193753.057436","194519.715395","195286.290949","196036.173187","196802.915888","197569.514235","201435.998677","202202.628291","202969.280113","203719.231898","204485.808036","205252.494632","206019.233534","206786.193642","206024.589235"
"Mixed","Male","tile","26","M_tile.wav","None","727.645034639","420","200669.366433","207535.657137","193753.057436","194519.715395","195286.290949","196036.173187","196802.915888","197569.514235","201435.998677","202202.628291","202969.280113","203719.231898","204485.808036","205252.494632","206019.233534","206786.193642","206791.667982"
"Mixed","Male","tile","26","F_cling.wav","space","578.992784649","420","200669.366433","207535.657137","208302.341687","194519.715395","195286.290949","196036.173187","196802.915888","197569.514235","201435.998677","202202.628291","202969.280113","203719.231898","204485.808036","205252.494632","206019.233534","206786.193642","207540.834003"
"Mixed","Male","tile","26","M_tile.wav","None","738.154515819","420","200669.366433","207535.657137","208302.341687","209068.939742","195286.290949","196036.173187","196802.915888","197569.514235","201435.998677","202202.628291","202969.280113","203719.231898","204485.808036","205252.494632","206019.233534","206786.193642","208307.374199"
"Mixed","Male","tile","26","F_romp.wav","space","477.790557276","420","200669.366433","207535.657137","208302.341687","209068.939742","209835.597116","196036.173187","196802.915888","197569.514235","201435.998677","202202.628291","202969.280113","203719.231898","204485.808036","205252.494632","206019.233534","206786.193642","209073.883713"
"Mixed","Male","tile","26","F_gnash.wav","None","730.581202216","420","200669.366433","207535.657137","208302.341687","209068.939742","209835.597116","210602.53823","196802.915888","197569.514235","201435.998677","202202.628291","202969.280113","203719.231898","204485.808036","205252.494632","206019.233534","206786.193642","209840.897588"
"Mixed","Male","tile","26","F_cling.wav","None","726.573485425","420","200669.366433","207535.657137","208302.341687","209068.939742","209835.597116","210602.53823","211352.158936","197569.514235","201435.998677","202202.628291","202969.280113","203719.231898","204485.808036","205252.494632","206019.233534","206786.193642","210608.224717"
"Mixed","Male","tile","26","M_jaw.wav","None","740.644180205","420","200669.366433","207535.657137","208302.341687","209068.939742","209835.597116","210602.53823","211352.158936","212118.830045","201435.998677","202202.628291","202969.280113","203719.231898","204485.808036","205252.494632","206019.233534","206786.193642","211357.363562"
"Mixed","Female","tile","34","M_jaw.wav","None","737.599308972","420","215235.345754","207535.657137","208302.341687","209068.939742","209835.597116","210602.53823","211352.158936","212118.830045","201435.998677","202202.628291","202969.280113","203719.231898","204485.808036","205252.494632","206019.233534","206786.193642","212123.85116"
"Mixed","Female","tile","34","M_cad.wav","None","740.361609141","420","215235.345754","207535.657137","208302.341687","209068.939742","209835.597116","210602.53823","211352.158936","212118.830045","216001.977997","202202.628291","202969.280113","203719.231898","204485.808036","205252.494632","206019.233534","206786.193642","215240.404857"
"Mixed","Female","tile","34","F_knife.wav","None","737.085304318","420","215235.345754","207535.657137","208302.341687","209068.939742","209835.597116","210602.53823","211352.158936","212118.830045","216001.977997","216768.605858","202969.280113","203719.231898","204485.808036","205252.494632","206019.233534","206786.193642","216007.258599"
"Mixed","Female","tile","34","F_tile.wav","None","733.913319938","420","215235.345754","207535.657137","208302.341687","209068.939742","209835.597116","210602.53823","211352.158936","212118.830045","216001.977997","216768.605858","217535.225829","203719.231898","204485.808036","205252.494632","206019.233534","206786.193642","216773.664377"
"Mixed","Female","tile","34","M_park.wav","space","602.781936959","420","215235.345754","207535.657137","208302.341687","209068.939742","209835.597116","210602.53823","211352.158936","212118.830045","216001.977997","216768.605858","217535.225829","218285.213556","204485.808036","205252.494632","206019.233534","206786.193642","217540.209541"
"Mixed","Female","tile","34","F_tile.wav","None","743.237288393","420","215235.345754","207535.657137","208302.341687","209068.939742","209835.597116","210602.53823","211352.158936","212118.830045","216001.977997","216768.605858","217535.225829","218285.213556","219051.807812","205252.494632","206019.233534","206786.193642","218290.156066"
"Mixed","Female","tile","34","M_priest.wav","space","693.94222576","420","215235.345754","207535.657137","208302.341687","209068.939742","209835.597116","210602.53823","211352.158936","212118.830045","216001.977997","216768.605858","217535.225829","218285.213556","219051.807812","219818.423692","206019.233534","206786.193642","219056.942014"
"Mixed","Female","tile","34","M_cling.wav","None","735.874368964","420","215235.345754","207535.657137","208302.341687","209068.939742","209835.597116","210602.53823","211352.158936","212118.830045","216001.977997","216768.605858","217535.225829","218285.213556","219051.807812","219818.423692","220585.112041","206786.193642","219823.461463"
"Mixed","Female","tile","34","F_lash.wav","None","732.383578969","420","215235.345754","207535.657137","208302.341687","209068.939742","209835.597116","210602.53823","211352.158936","212118.830045","216001.977997","216768.605858","217535.225829","218285.213556","219051.807812","219818.423692","220585.112041","221351.793961","220590.244782"
"Mixed","Female","tile","34","F_tile.wav","None","728.718337138","420","215235.345754","222101.688764","208302.341687","209068.939742","209835.597116","210602.53823","211352.158936","212118.830045","216001.977997","216768.605858","217535.225829","218285.213556","219051.807812","219818.423692","220585.112041","221351.793961","221357.265378"
"Mixed","Female","tile","34","F_jolt.wav","space","515.896156449","420","215235.345754","222101.688764","222868.319547","209068.939742","209835.597116","210602.53823","211352.158936","212118.830045","216001.977997","216768.605858","217535.225829","218285.213556","219051.807812","219818.423692","220585.112041","221351.793961","222106.779426"
"Mixed","Female","tile","34","M_priest.wav","None","738.236335775","420","215235.345754","222101.688764","222868.319547","223634.926076","209835.597116","210602.53823","211352.158936","212118.830045","216001.977997","216768.605858","217535.225829","218285.213556","219051.807812","219818.423692","220585.112041","221351.793961","222873.409332"
"Mixed","Female","tile","34","F_jaw.wav","None","734.886392991","420","215235.345754","222101.688764","222868.319547","223634.926076","224401.559488","210602.53823","211352.158936","212118.830045","216001.977997","216768.605858","217535.225829","218285.213556","219051.807812","219818.423692","220585.112041","221351.793961","223639.971445"
"Mixed","Female","tile","34","M_lash.wav","None","731.626159944","420","215235.345754","222101.688764","222868.319547","223634.926076","224401.559488","225168.493882","211352.158936","212118.830045","216001.977997","216768.605858","217535.225829","218285.213556","219051.807812","219818.423692","220585.112041","221351.793961","224406.680541"
"Mixed","Female","tile","34","F_tile.wav","None","727.262818557","420","215235.345754","222101.688764","222868.319547","223634.926076","224401.559488","225168.493882","225918.137965","212118.830045","216001.977997","216768.605858","217535.225829","218285.213556","219051.807812","219818.423692","220585.112041","221351.793961","225174.388133"
"Mixed","Female","tile","34","M_gnash.wav","space","594.966962271","420","215235.345754","222101.688764","222868.319547","223634.926076","224401.559488","225168.493882","225918.137965","226684.75063","216001.977997","216768.605858","217535.225829","218285.213556","219051.807812","219818.423692","220585.112041","221351.793961","225923.339961"
"Mixed","Female","ball","11","M_priest.wav","None","737.87866568","420","229801.356341","222101.688764","222868.319547","223634.926076","224401.559488","225168.493882","225918.137965","226684.75063","216001.977997","216768.605858","217535.225829","218285.213556","219051.807812","219818.423692","220585.112041","221351.793961","226689.755966"
"Mixed","Female","ball","11","M_dime.wav","None","739.768122244","420","229801.356341","222101.688764","222868.319547","223634.926076","224401.559488","225168.493882","225918.137965","226684.75063","230567.938324","216768.605858","217535.225829","218285.213556","219051.807812","219818.423692","220585.112041","221351.793961","229806.717594"
"Mixed","Female","ball","11","F_knife.wav","None","736.559903312","420","229801.356341","222101.688764","222868.319547","223634.926076","224401.559488","225168.493882","225918.137965","226684.75063","230567.938324","231334.592484","217535.225829","218285.213556","219051.807812","219818.423692","220585.112041","221351.793961","230573.126294"
"Mixed","Female","ball","11","F_ball.wav","None","733.472368816","420","229801.356341","222101.688764","222868.319547","223634.926076","224401.559488","225168.493882","225918.137965","226684.75063","230567.938324","231334.592484","232101.219176","218285.213556","219051.807812","219818.423692","220585.112041","221351.793961","231339.742174"
"Mixed","Female","ball","11","F_gnash.wav","space","475.734830872","420","229801.356341","222101.688764","222868.319547","223634.926076","224401.559488","225168.493882","225918.137965","226684.75063","230567.938324","231334.592484","232101.219176","232851.204273","219051.807812","219818.423692","220585.112041","221351.793961","232106.166361"
"Mixed","Female","ball","11","F_ball.wav","None","742.798090556","420","229801.356341","222101.688764","222868.319547","223634.926076","224401.559488","225168.493882","225918.137965","226684.75063","230567.938324","231334.592484","232101.219176","232851.204273","233617.83564","219818.423692","220585.112041","221351.793961","232856.234739"
"Mixed","Female","ball","11","M_romp.wav","space","502.544308429","420","229801.356341","222101.688764","222868.319547","223634.926076","224401.559488","225168.493882","225918.137965","226684.75063","230567.938324","231334.592484","232101.219176","232851.204273","233617.83564","234384.417331","220585.112041","221351.793961","233623.198354"
"Mixed","Female","ball","11","F_ball.wav","None","735.472866749","420","229801.356341","222101.688764","222868.319547","223634.926076","224401.559488","225168.493882","225918.137965","226684.75063","230567.938324","231334.592484","232101.219176","232851.204273","233617.83564","234384.417331","235151.035841","221351.793961","234389.663743"
"Mixed","Female","ball","11","M_depth.wav","space","521.391243161","420","229801.356341","222101.688764","222868.319547","223634.926076","224401.559488","225168.493882","225918.137965","226684.75063","230567.938324","231334.592484","232101.219176","232851.204273","233617.83564","234384.417331","235151.035841","235918.146147","235156.215336"
"Mixed","Female","ball","11","F_depth.wav","None","727.381457494","420","229801.356341","236667.688247","222868.319547","223634.926076","224401.559488","225168.493882","225918.137965","226684.75063","230567.938324","231334.592484","232101.219176","232851.204273","233617.83564","234384.417331","235151.035841","235918.146147","235923.616395"
"Mixed","Female","ball","11","M_romp.wav","None","741.653195595","420","229801.356341","236667.688247","237434.277536","223634.926076","224401.559488","225168.493882","225918.137965","226684.75063","230567.938324","231334.592484","232101.219176","232851.204273","233617.83564","234384.417331","235151.035841","235918.146147","236672.691538"
"Mixed","Female","ball","11","M_lash.wav","None","738.113898055","420","229801.356341","236667.688247","237434.277536","238200.932864","224401.559488","225168.493882","225918.137965","226684.75063","230567.938324","231334.592484","232101.219176","232851.204273","233617.83564","234384.417331","235151.035841","235918.146147","237439.521026"
"Mixed","Female","ball","11","F_jaw.wav","None","735.019058206","420","229801.356341","236667.688247","237434.277536","238200.932864","238967.567446","225168.493882","225918.137965","226684.75063","230567.938324","231334.592484","232101.219176","232851.204273","233617.83564","234384.417331","235151.035841","235918.146147","238205.954856"
"Mixed","Female","ball","11","M_greet.wav","None","731.473624168","420","229801.356341","236667.688247","237434.277536","238200.932864","238967.567446","239734.619017","225918.137965","226684.75063","230567.938324","231334.592484","232101.219176","232851.204273","233617.83564","234384.417331","235151.035841","235918.146147","238972.694635"
"Mixed","Female","ball","11","F_ball.wav","None","727.425874041","420","229801.356341","236667.688247","237434.277536","238200.932864","238967.567446","239734.619017","240484.170468","226684.75063","230567.938324","231334.592484","232101.219176","232851.204273","233617.83564","234384.417331","235151.035841","235918.146147","239740.432617"
"Mixed","Female","ball","11","M_bluff.wav","space","563.897879344","420","229801.356341","236667.688247","237434.277536","238200.932864","238967.567446","239734.619017","240484.170468","241250.798913","230567.938324","231334.592484","232101.219176","232851.204273","233617.83564","234384.417331","235151.035841","235918.146147","240489.24915"
"Mixed","Female","ball","12","M_knife.wav","None","737.859963976","420","244367.305856","236667.688247","237434.277536","238200.932864","238967.567446","239734.619017","240484.170468","241250.798913","230567.938324","231334.592484","232101.219176","232851.204273","233617.83564","234384.417331","235151.035841","235918.146147","241255.867075"
"Mixed","Female","ball","12","F_ball.wav","None","740.931426695","420","244367.305856","236667.688247","237434.277536","238200.932864","238967.567446","239734.619017","240484.170468","241250.798913","245133.938392","231334.592484","232101.219176","232851.204273","233617.83564","234384.417331","235151.035841","235918.146147","244372.441811"
"Mixed","Female","ball","12","M_gnash.wav","space","521.822259002","420","244367.305856","236667.688247","237434.277536","238200.932864","238967.567446","239734.619017","240484.170468","241250.798913","245133.938392","245900.558071","232101.219176","232851.204273","233617.83564","234384.417331","235151.035841","235918.146147","245139.002463"
"Mixed","Female","ball","12","M_cling.wav","None","733.232461016","420","244367.305856","236667.688247","237434.277536","238200.932864","238967.567446","239734.619017","240484.170468","241250.798913","245133.938392","245900.558071","246667.167814","232851.204273","233617.83564","234384.417331","235151.035841","235918.146147","245905.95585"
"Mixed","Female","ball","12","F_ball.wav","None","730.478050628","420","244367.305856","236667.688247","237434.277536","238200.932864","238967.567446","239734.619017","240484.170468","241250.798913","245133.938392","245900.558071","246667.167814","247417.13567","233617.83564","234384.417331","235151.035841","235918.146147","246672.241528"
"Mixed","Female","ball","12","M_knife.wav","space","438.218335385","420","244367.305856","236667.688247","237434.277536","238200.932864","238967.567446","239734.619017","240484.170468","241250.798913","245133.938392","245900.558071","246667.167814","247417.13567","248183.842721","234384.417331","235151.035841","235918.146147","247422.294711"
"Mixed","Female","ball","12","M_romp.wav","None","739.213499825","420","244367.305856","236667.688247","237434.277536","238200.932864","238967.567446","239734.619017","240484.170468","241250.798913","245133.938392","245900.558071","246667.167814","247417.13567","248183.842721","248950.439023","235151.035841","235918.146147","248189.17709"
"Mixed","Female","ball","12","F_reek.wav","None","736.272656823","420","244367.305856","236667.688247","237434.277536","238200.932864","238967.567446","239734.619017","240484.170468","241250.798913","245133.938392","245900.558071","246667.167814","247417.13567","248183.842721","248950.439023","249716.996752","235918.146147","248955.555984"
"Mixed","Female","ball","12","M_cling.wav","None","733.816304847","420","244367.305856","236667.688247","237434.277536","238200.932864","238967.567446","239734.619017","240484.170468","241250.798913","245133.938392","245900.558071","246667.167814","247417.13567","248183.842721","248950.439023","249716.996752","250483.687146","249721.74114"
"Mixed","Female","ball","12","F_ball.wav","None","730.569805865","420","244367.305856","251250.526278","237434.277536","238200.932864","238967.567446","239734.619017","240484.170468","241250.798913","245133.938392","245900.558071","246667.167814","247417.13567","248183.842721","248950.439023","249716.996752","250483.687146","250488.522706"
"Mixed","Female","ball","12","M_romp.wav","space","468.742438959","420","244367.305856","251250.526278","252000.263869","238200.932864","238967.567446","239734.619017","240484.170468","241250.798913","245133.938392","245900.558071","246667.167814","247417.13567","248183.842721","248950.439023","249716.996752","250483.687146","251255.457391"
"Mixed","Female","ball","12","M_jaw.wav","None","739.369542171","420","244367.305856","251250.526278","252000.263869","252766.96566","238967.567446","239734.619017","240484.170468","241250.798913","245133.938392","245900.558071","246667.167814","247417.13567","248183.842721","248950.439023","249716.996752","250483.687146","252005.609342"
"Mixed","Female","ball","12","F_cling.wav","None","736.279962176","420","244367.305856","251250.526278","252000.263869","252766.96566","253533.604041","239734.619017","240484.170468","241250.798913","245133.938392","245900.558071","246667.167814","247417.13567","248183.842721","248950.439023","249716.996752","250483.687146","252772.218209"
"Mixed","Female","ball","12","F_jolt.wav","None","733.256422574","420","244367.305856","251250.526278","252000.263869","252766.96566","253533.604041","254300.160601","240484.170468","241250.798913","245133.938392","245900.558071","246667.167814","247417.13567","248183.842721","248950.439023","249716.996752","250483.687146","253538.666358"
"Mixed","Female","ball","12","F_ball.wav","None","730.172686862","420","244367.305856","251250.526278","252000.263869","252766.96566","253533.604041","254300.160601","255067.223276","241250.798913","245133.938392","245900.558071","246667.167814","247417.13567","248183.842721","248950.439023","249716.996752","250483.687146","254305.28779"
"Mixed","Female","ball","12","F_gnash.wav","space","467.058993357","420","244367.305856","251250.526278","252000.263869","252766.96566","253533.604041","254300.160601","255067.223276","255816.760993","245133.938392","245900.558071","246667.167814","247417.13567","248183.842721","248950.439023","249716.996752","250483.687146","255072.931971"
"Mixed","Male","tile","29","M_knife.wav","None","739.408114436","420","258933.342743","251250.526278","252000.263869","252766.96566","253533.604041","254300.160601","255067.223276","255816.760993","245133.938392","245900.558071","246667.167814","247417.13567","248183.842721","248950.439023","249716.996752","250483.687146","255821.96708"
"Mixed","Male","tile","29","M_jolt.wav","None","740.794962696","420","258933.342743","251250.526278","252000.263869","252766.96566","253533.604041","254300.160601","255067.223276","255816.760993","259699.885277","245900.558071","246667.167814","247417.13567","248183.842721","248950.439023","249716.996752","250483.687146","258938.385482"
"Mixed","Male","tile","29","M_tile.wav","None","737.750383677","420","258933.342743","251250.526278","252000.263869","252766.96566","253533.604041","254300.160601","255067.223276","255816.760993","259699.885277","260466.491221","246667.167814","247417.13567","248183.842721","248950.439023","249716.996752","250483.687146","259704.94438"
"Mixed","Male","tile","29","M_bluff.wav","space","371.900630832","420","258933.342743","251250.526278","252000.263869","252766.96566","253533.604041","254300.160601","255067.223276","255816.760993","259699.885277","260466.491221","261233.238598","247417.13567","248183.842721","248950.439023","249716.996752","250483.687146","260471.734712"
"Mixed","Male","tile","29","F_depth.wav","None","730.357366192","420","258933.342743","251250.526278","252000.263869","252766.96566","253533.604041","254300.160601","255067.223276","255816.760993","259699.885277","260466.491221","261233.238598","262000.11484","248183.842721","248950.439023","249716.996752","250483.687146","261238.4441"
"Mixed","Male","tile","29","M_tile.wav","None","726.766638965","420","258933.342743","251250.526278","252000.263869","252766.96566","253533.604041","254300.160601","255067.223276","255816.760993","259699.885277","260466.491221","261233.238598","262000.11484","262749.770612","248950.439023","249716.996752","250483.687146","262005.689117"
"Mixed","Male","tile","29","M_jaw.wav","space","560.381958933","420","258933.342743","251250.526278","252000.263869","252766.96566","253533.604041","254300.160601","255067.223276","255816.760993","259699.885277","260466.491221","261233.238598","262000.11484","262749.770612","263516.43909","249716.996752","250483.687146","262755.03222"
"Mixed","Male","tile","29","F_depth.wav","None","737.042348841","420","258933.342743","251250.526278","252000.263869","252766.96566","253533.604041","254300.160601","255067.223276","255816.760993","259699.885277","260466.491221","261233.238598","262000.11484","262749.770612","263516.43909","264283.023703","250483.687146","263521.541441"
"Mixed","Male","tile","29","F_cling.wav","None","733.861890252","420","258933.342743","251250.526278","252000.263869","252766.96566","253533.604041","254300.160601","255067.223276","255816.760993","259699.885277","260466.491221","261233.238598","262000.11484","262749.770612","263516.43909","264283.023703","265049.682831","264288.294077"
"Mixed","Male","tile","29","M_tile.wav","None","730.911988611","420","258933.342743","265816.627452","252000.263869","252766.96566","253533.604041","254300.160601","255067.223276","255816.760993","259699.885277","260466.491221","261233.238598","262000.11484","262749.770612","263516.43909","264283.023703","265049.682831","265054.802422"
"Mixed","Male","tile","29","F_dime.wav","space","500.580337262","420","258933.342743","265816.627452","266566.240268","252766.96566","253533.604041","254300.160601","255067.223276","255816.760993","259699.885277","260466.491221","261233.238598","262000.11484","262749.770612","263516.43909","264283.023703","265049.682831","265822.572256"
"Mixed","Male","tile","29","F_park.wav","None","740.589536163","420","258933.342743","265816.627452","266566.240268","267332.833939","253533.604041","254300.160601","255067.223276","255816.760993","259699.885277","260466.491221","261233.238598","262000.11484","262749.770612","263516.43909","264283.023703","265049.682831","266571.337359"
"Mixed","Male","tile","29","F_reek.wav","None","741.369163461","420","258933.342743","265816.627452","266566.240268","267332.833939","268099.47232","254300.160601","255067.223276","255816.760993","259699.885277","260466.491221","261233.238598","262000.11484","262749.770612","263516.43909","264283.023703","265049.682831","267334.455728"
"Mixed","Male","tile","29","M_tile.wav","None","734.898665984","420","258933.342743","265816.627452","266566.240268","267332.833939","268099.47232","268866.221157","255067.223276","255816.760993","259699.885277","260466.491221","261233.238598","262000.11484","262749.770612","263516.43909","264283.023703","265049.682831","268104.592203"
"Mixed","Male","tile","29","F_priest.wav","space","427.601319405","420","258933.342743","265816.627452","266566.240268","267332.833939","268099.47232","268866.221157","269633.129543","255816.760993","259699.885277","260466.491221","261233.238598","262000.11484","262749.770612","263516.43909","264283.023703","265049.682831","268871.320878"
"Mixed","Male","tile","29","F_romp.wav","None","726.513581529","420","258933.342743","265816.627452","266566.240268","267332.833939","268099.47232","268866.221157","269633.129543","270382.745866","259699.885277","260466.491221","261233.238598","262000.11484","262749.770612","263516.43909","264283.023703","265049.682831","269638.983469"
"Mixed","Male","cave","16","M_cling.wav","None","741.358059324","420","273482.661475","265816.627452","266566.240268","267332.833939","268099.47232","268866.221157","269633.129543","270382.745866","259699.885277","260466.491221","261233.238598","262000.11484","262749.770612","263516.43909","264283.023703","265049.682831","270387.90929"
"Mixed","Male","cave","16","M_gnash.wav","None","740.149461683","420","273482.661475","265816.627452","266566.240268","267332.833939","268099.47232","268866.221157","269633.129543","270382.745866","274249.230308","260466.491221","261233.238598","262000.11484","262749.770612","263516.43909","264283.023703","265049.682831","273487.740448"
"Mixed","Male","cave","16","F_bluff.wav","None","736.897702846","420","273482.661475","265816.627452","266566.240268","267332.833939","268099.47232","268866.221157","269633.129543","270382.745866","274249.230308","275015.86226","261233.238598","262000.11484","262749.770612","263516.43909","264283.023703","265049.682831","274254.424706"
"Mixed","Male","cave","16","M_cave.wav","None","734.26865232","420","273482.661475","265816.627452","266566.240268","267332.833939","268099.47232","268866.221157","269633.129543","270382.745866","274249.230308","275015.86226","275782.49012","262000.11484","262749.770612","263516.43909","264283.023703","265049.682831","275020.729378"
"Mixed","Male","cave","16","F_greet.wav","space","646.800781264","420","273482.661475","265816.627452","266566.240268","267332.833939","268099.47232","268866.221157","269633.129543","270382.745866","274249.230308","275015.86226","275782.49012","276532.407131","262749.770612","263516.43909","264283.023703","265049.682831","275787.601238"
"Mixed","Male","cave","16","M_cave.wav","None","743.315309566","420","273482.661475","265816.627452","266566.240268","267332.833939","268099.47232","268866.221157","269633.129543","270382.745866","274249.230308","275015.86226","275782.49012","276532.407131","277299.044343","263516.43909","264283.023703","265049.682831","276537.49867"
"Mixed","Male","cave","16","F_park.wav","None","740.001016905","420","273482.661475","265816.627452","266566.240268","267332.833939","268099.47232","268866.221157","269633.129543","270382.745866","274249.230308","275015.86226","275782.49012","276532.407131","277299.044343","278065.728601","264283.023703","265049.682831","277304.273223"
"Mixed","Male","cave","16","F_lash.wav","space","0.022500488034","420","273482.661475","265816.627452","266566.240268","267332.833939","268099.47232","268866.221157","269633.129543","270382.745866","274249.230308","275015.86226","275782.49012","276532.407131","277299.044343","278065.728601","278832.34302","265049.682831","278070.854913"
"Mixed","Male","cave","16","M_knife.wav","None","733.189797753","420","273482.661475","265816.627452","266566.240268","267332.833939","268099.47232","268866.221157","269633.129543","270382.745866","274249.230308","275015.86226","275782.49012","276532.407131","277299.044343","278065.728601","278832.34302","279598.921788","278837.328485"
"Mixed","Male","cave","16","M_cave.wav","None","729.851543533","420","273482.661475","280348.900457","266566.240268","267332.833939","268099.47232","268866.221157","269633.129543","270382.745866","274249.230308","275015.86226","275782.49012","276532.407131","277299.044343","278065.728601","278832.34302","279598.921788","279604.188364"
"Mixed","Male","cave","16","F_knife.wav","space","479.872290737","420","273482.661475","280348.900457","281115.533869","267332.833939","268099.47232","268866.221157","269633.129543","270382.745866","274249.230308","275015.86226","275782.49012","276532.407131","277299.044343","278065.728601","278832.34302","279598.921788","280354.145408"
"Mixed","Male","cave","16","M_cave.wav","None","738.893233139","420","273482.661475","280348.900457","281115.533869","281882.161146","268099.47232","268866.221157","269633.129543","270382.745866","274249.230308","275015.86226","275782.49012","276532.407131","277299.044343","278065.728601","278832.34302","279598.921788","281120.828205"
"Mixed","Male","cave","16","M_reek.wav","space","682.820848192","420","273482.661475","280348.900457","281115.533869","281882.161146","282648.8568","268866.221157","269633.129543","270382.745866","274249.230308","275015.86226","275782.49012","276532.407131","277299.044343","278065.728601","278832.34302","279598.921788","281887.083493"
"Mixed","Male","cave","16","F_reek.wav","None","731.827203265","420","273482.661475","280348.900457","281115.533869","281882.161146","282648.8568","283415.606806","269633.129543","270382.745866","274249.230308","275015.86226","275782.49012","276532.407131","277299.044343","278065.728601","278832.34302","279598.921788","282653.945417"
"Mixed","Male","cave","16","F_romp.wav","None","727.588929526","420","273482.661475","280348.900457","281115.533869","281882.161146","282648.8568","283415.606806","284165.401964","270382.745866","274249.230308","275015.86226","275782.49012","276532.407131","277299.044343","278065.728601","278832.34302","279598.921788","283421.758498"
"Mixed","Male","cave","16","F_park.wav","None","742.454446739","420","273482.661475","280348.900457","281115.533869","281882.161146","282648.8568","283415.606806","284165.401964","284932.01872","274249.230308","275015.86226","275782.49012","276532.407131","277299.044343","278065.728601","278832.34302","279598.921788","284170.513373"
"Mixed","Female","tile","35","M_priest.wav","None","739.349963824","420","288048.692517","280348.900457","281115.533869","281882.161146","282648.8568","283415.606806","284165.401964","284932.01872","274249.230308","275015.86226","275782.49012","276532.407131","277299.044343","278065.728601","278832.34302","279598.921788","284937.07344"
"Mixed","Female","tile","35","F_tile.wav","None","740.159396964","420","288048.692517","280348.900457","281115.533869","281882.161146","282648.8568","283415.606806","284165.401964","284932.01872","288815.243525","275015.86226","275782.49012","276532.407131","277299.044343","278065.728601","278832.34302","279598.921788","288053.734672"
"Mixed","Female","tile","35","F_cling.wav","space","708.919368771","420","288048.692517","280348.900457","281115.533869","281882.161146","282648.8568","283415.606806","284165.401964","284932.01872","288815.243525","289581.831353","275782.49012","276532.407131","277299.044343","278065.728601","278832.34302","279598.921788","288820.393215"
"Mixed","Female","tile","35","F_bluff.wav","None","733.102425728","420","288048.692517","280348.900457","281115.533869","281882.161146","282648.8568","283415.606806","284165.401964","284932.01872","288815.243525","289581.831353","290348.524962","276532.407131","277299.044343","278065.728601","278832.34302","279598.921788","289587.118091"
"Mixed","Female","tile","35","F_tile.wav","None","730.583247715","420","288048.692517","280348.900457","281115.533869","281882.161146","282648.8568","283415.606806","284165.401964","284932.01872","288815.243525","289581.831353","290348.524962","291115.290163","277299.044343","278065.728601","278832.34302","279598.921788","290353.501368"
"Mixed","Female","tile","35","M_gnash.wav","space","640.860944646","420","288048.692517","280348.900457","281115.533869","281882.161146","282648.8568","283415.606806","284165.401964","284932.01872","288815.243525","289581.831353","290348.524962","291115.290163","291865.062236","278065.728601","278832.34302","279598.921788","291120.263939"
"Mixed","Female","tile","35","M_knife.wav","None","740.191248304","420","288048.692517","280348.900457","281115.533869","281882.161146","282648.8568","283415.606806","284165.401964","284932.01872","288815.243525","289581.831353","290348.524962","291115.290163","291865.062236","292631.639836","278832.34302","279598.921788","291870.223906"
"Mixed","Female","tile","35","M_jaw.wav","None","737.325796546","420","288048.692517","280348.900457","281115.533869","281882.161146","282648.8568","283415.606806","284165.401964","284932.01872","288815.243525","289581.831353","290348.524962","291115.290163","291865.062236","292631.639836","293398.324094","279598.921788","292636.836572"
"Mixed","Female","tile","35","F_gnash.wav","None","734.58775015","420","288048.692517","280348.900457","281115.533869","281882.161146","282648.8568","283415.606806","284165.401964","284932.01872","288815.243525","289581.831353","290348.524962","291115.290163","291865.062236","292631.639836","293398.324094","294164.963643","293403.304007"
"Mixed","Female","tile","35","F_dime.wav","None","731.42277891","420","288048.692517","294931.69933","281115.533869","281882.161146","282648.8568","283415.606806","284165.401964","284932.01872","288815.243525","289581.831353","290348.524962","291115.290163","291865.062236","292631.639836","293398.324094","294164.963643","294170.054305"
"Mixed","Female","tile","35","M_bluff.wav","None","727.888156795","420","288048.692517","294931.69933","295681.523125","281882.161146","282648.8568","283415.606806","284165.401964","284932.01872","288815.243525","289581.831353","290348.524962","291115.290163","291865.062236","292631.639836","293398.324094","294164.963643","294937.451273"
"Mixed","Female","tile","35","F_tile.wav","None","742.192330665","420","288048.692517","294931.69933","295681.523125","296448.177285","282648.8568","283415.606806","284165.401964","284932.01872","288815.243525","289581.831353","290348.524962","291115.290163","291865.062236","292631.639836","293398.324094","294164.963643","295686.924996"
"Mixed","Female","tile","35","M_priest.wav","space","587.382252316","420","288048.692517","294931.69933","295681.523125","296448.177285","297214.825309","283415.606806","284165.401964","284932.01872","288815.243525","289581.831353","290348.524962","291115.290163","291865.062236","292631.639836","293398.324094","294164.963643","296453.338956"
"Mixed","Female","tile","35","F_tile.wav","None","735.483094244","420","288048.692517","294931.69933","295681.523125","296448.177285","297214.825309","297981.41635","284165.401964","284932.01872","288815.243525","289581.831353","290348.524962","291115.290163","291865.062236","292631.639836","293398.324094","294164.963643","297219.854898"
"Mixed","Female","tile","35","M_greet.wav","None","732.447573863","420","288048.692517","294931.69933","295681.523125","296448.177285","297214.825309","297981.41635","298748.04801","284932.01872","288815.243525","289581.831353","290348.524962","291115.290163","291865.062236","292631.639836","293398.324094","294164.963643","297986.57393"
"Mixed","Female","tile","35","M_depth.wav","space","0.0204549892223","420","288048.692517","294931.69933","295681.523125","296448.177285","297214.825309","297981.41635","298748.04801","299497.996872","288815.243525","289581.831353","290348.524962","291115.290163","291865.062236","292631.639836","293398.324094","294164.963643","298753.213479"
"Mixed","Female","tile","31","M_knife.wav","None","741.891642325","420","302614.556998","294931.69933","295681.523125","296448.177285","297214.825309","297981.41635","298748.04801","299497.996872","288815.243525","289581.831353","290348.524962","291115.290163","291865.062236","292631.639836","293398.324094","294164.963643","299503.395528"
"Mixed","Female","tile","31","F_tile.wav","None","741.041883636","420","302614.556998","294931.69933","295681.523125","296448.177285","297214.825309","297981.41635","298748.04801","299497.996872","303381.206774","289581.831353","290348.524962","291115.290163","291865.062236","292631.639836","293398.324094","294164.963643","302619.700258"
"Mixed","Female","tile","31","M_bluff.wav","space","613.909158809","420","302614.556998","294931.69933","295681.523125","296448.177285","297214.825309","297981.41635","298748.04801","299497.996872","303381.206774","304147.818271","290348.524962","291115.290163","291865.062236","292631.639836","293398.324094","294164.963643","303386.252436"
"Mixed","Female","tile","31","F_lash.wav","None","733.767797302","420","302614.556998","294931.69933","295681.523125","296448.177285","297214.825309","297981.41635","298748.04801","299497.996872","303381.206774","304147.818271","304914.447885","291115.290163","291865.062236","292631.639836","293398.324094","294164.963643","304153.243518"
"Mixed","Female","tile","31","F_reek.wav","None","731.298003476","420","302614.556998","294931.69933","295681.523125","296448.177285","297214.825309","297981.41635","298748.04801","299497.996872","303381.206774","304147.818271","304914.447885","305681.307763","291865.062236","292631.639836","293398.324094","294164.963643","304919.587055"
"Mixed","Female","tile","31","F_depth.wav","None","727.814518834","420","302614.556998","294931.69933","295681.523125","296448.177285","297214.825309","297981.41635","298748.04801","299497.996872","303381.206774","304147.818271","304914.447885","305681.307763","306431.035128","292631.639836","293398.324094","294164.963643","305686.812201"
"Mixed","Female","tile","31","M_park.wav","None","742.197006091","420","302614.556998","294931.69933","295681.523125","296448.177285","297214.825309","297981.41635","298748.04801","299497.996872","303381.206774","304147.818271","304914.447885","305681.307763","306431.035128","307197.720262","293398.324094","294164.963643","306436.053905"
"Mixed","Female","tile","31","M_park.wav","None","739.588702768","420","302614.556998","294931.69933","295681.523125","296448.177285","297214.825309","297981.41635","298748.04801","299497.996872","303381.206774","304147.818271","304914.447885","305681.307763","306431.035128","307197.720262","307964.361273","294164.963643","307202.835763"
"Mixed","Female","tile","31","F_tile.wav","None","736.505551484","420","302614.556998","294931.69933","295681.523125","296448.177285","297214.825309","297981.41635","298748.04801","299497.996872","303381.206774","304147.818271","304914.447885","305681.307763","306431.035128","307197.720262","307964.361273","308731.030628","307969.673141"
"Mixed","Female","tile","31","M_dime.wav","space","631.639835565","420","302614.556998","309497.583389","295681.523125","296448.177285","297214.825309","297981.41635","298748.04801","299497.996872","303381.206774","304147.818271","304914.447885","305681.307763","306431.035128","307197.720262","307964.361273","308731.030628","308736.066938"
"Mixed","Female","tile","31","F_dime.wav","None","729.653422353","420","302614.556998","309497.583389","310247.512381","296448.177285","297214.825309","297981.41635","298748.04801","299497.996872","303381.206774","304147.818271","304914.447885","305681.307763","306431.035128","307197.720262","307964.361273","308731.030628","309502.826295"
"Mixed","Female","tile","31","F_tile.wav","None","743.544405444","420","302614.556998","309497.583389","310247.512381","311014.119202","297214.825309","297981.41635","298748.04801","299497.996872","303381.206774","304147.818271","304914.447885","305681.307763","306431.035128","307197.720262","307964.361273","308731.030628","310252.750612"
"Mixed","Female","tile","31","M_greet.wav","space","676.124176979","420","302614.556998","309497.583389","310247.512381","311014.119202","311780.832389","297981.41635","298748.04801","299497.996872","303381.206774","304147.818271","304914.447885","305681.307763","306431.035128","307197.720262","307964.361273","308731.030628","311019.413538"
"Mixed","Female","tile","31","F_tile.wav","None","737.073907966","420","302614.556998","309497.583389","310247.512381","311014.119202","311780.832389","312547.433366","298748.04801","299497.996872","303381.206774","304147.818271","304914.447885","305681.307763","306431.035128","307197.720262","307964.361273","308731.030628","311785.787464"
"Mixed","Female","tile","31","M_bluff.wav","space","726.84203021","420","302614.556998","309497.583389","310247.512381","311014.119202","311780.832389","312547.433366","313314.02733","299497.996872","303381.206774","304147.818271","304914.447885","305681.307763","306431.035128","307197.720262","307964.361273","308731.030628","312552.564647"
"Mixed","Female","tile","31","M_lash.wav","None","730.122133818","420","302614.556998","309497.583389","310247.512381","311014.119202","311780.832389","312547.433366","313314.02733","314081.224424","303381.206774","304147.818271","304914.447885","305681.307763","306431.035128","307197.720262","307964.361273","308731.030628","313319.198936"
"Mixed","Male","done","38","F_dime.wav","None","726.743846263","420","317180.487518","309497.583389","310247.512381","311014.119202","311780.832389","312547.433366","313314.02733","314081.224424","303381.206774","304147.818271","304914.447885","305681.307763","306431.035128","307197.720262","307964.361273","308731.030628","314086.523435"
"Mixed","Male","done","38","F_jaw.wav","None","740.981979739","420","317180.487518","309497.583389","310247.512381","311014.119202","311780.832389","312547.433366","313314.02733","314081.224424","317947.164471","304147.818271","304914.447885","305681.307763","306431.035128","307197.720262","307964.361273","308731.030628","317185.530258"
"Mixed","Male","done","38","F_cling.wav","None","738.107761558","420","317180.487518","309497.583389","310247.512381","311014.119202","311780.832389","312547.433366","313314.02733","314081.224424","317947.164471","318713.794962","304914.447885","305681.307763","306431.035128","307197.720262","307964.361273","308731.030628","317952.191431"
"Mixed","Male","done","38","M_knife.wav","None","735.157859917","420","317180.487518","309497.583389","310247.512381","311014.119202","311780.832389","312547.433366","313314.02733","314081.224424","317947.164471","318713.794962","319480.380743","305681.307763","306431.035128","307197.720262","307964.361273","308731.030628","318718.985269"
"Mixed","Male","done","38","M_done.wav","None","732.235426405","420","317180.487518","309497.583389","310247.512381","311014.119202","311780.832389","312547.433366","313314.02733","314081.224424","317947.164471","318713.794962","319480.380743","320247.047761","306431.035128","307197.720262","307964.361273","308731.030628","319485.761282"
"Mixed","Male","done","38","F_depth.wav","space","682.818510479","420","317180.487518","309497.583389","310247.512381","311014.119202","311780.832389","312547.433366","313314.02733","314081.224424","317947.164471","318713.794962","319480.380743","320247.047761","320997.117892","307197.720262","307964.361273","308731.030628","320252.005173"
"Mixed","Male","done","38","M_priest.wav","None","741.94365644","420","317180.487518","309497.583389","310247.512381","311014.119202","311780.832389","312547.433366","313314.02733","314081.224424","317947.164471","318713.794962","319480.380743","320247.047761","320997.117892","321763.667439","307964.361273","308731.030628","321002.20008"
"Mixed","Male","done","38","M_gnash.wav","None","739.100412957","420","317180.487518","309497.583389","310247.512381","311014.119202","311780.832389","312547.433366","313314.02733","314081.224424","317947.164471","318713.794962","319480.380743","320247.047761","320997.117892","321763.667439","322530.245331","308731.030628","321768.784693"
"Mixed","Male","done","38","F_knife.wav","None","736.271195752","420","317180.487518","309497.583389","310247.512381","311014.119202","311780.832389","312547.433366","313314.02733","314081.224424","317947.164471","318713.794962","319480.380743","320247.047761","320997.117892","321763.667439","322530.245331","323296.89803","322535.298882"
"Mixed","Male","done","38","M_done.wav","None","733.427075626","420","317180.487518","324063.59836","310247.512381","311014.119202","311780.832389","312547.433366","313314.02733","314081.224424","317947.164471","318713.794962","319480.380743","320247.047761","320997.117892","321763.667439","322530.245331","323296.89803","323301.90395"
"Mixed","Male","done","38","F_park.wav","space","537.899003784","420","317180.487518","324063.59836","324813.531735","311014.119202","311780.832389","312547.433366","313314.02733","314081.224424","317947.164471","318713.794962","319480.380743","320247.047761","320997.117892","321763.667439","322530.245331","323296.89803","324068.643145"
"Mixed","Male","done","38","M_done.wav","None","743.038874999","420","317180.487518","324063.59836","324813.531735","325580.083036","311780.832389","312547.433366","313314.02733","314081.224424","317947.164471","318713.794962","319480.380743","320247.047761","320997.117892","321763.667439","322530.245331","323296.89803","324818.577689"
"Mixed","Male","done","38","F_bluff.wav","space","696.405006446","420","317180.487518","324063.59836","324813.531735","325580.083036","326346.743624","312547.433366","313314.02733","314081.224424","317947.164471","318713.794962","319480.380743","320247.047761","320997.117892","321763.667439","322530.245331","323296.89803","325581.970739"
"Mixed","Male","done","38","M_cad.wav","None","735.978981622","420","317180.487518","324063.59836","324813.531735","325580.083036","326346.743624","327113.363303","313314.02733","314081.224424","317947.164471","318713.794962","319480.380743","320247.047761","320997.117892","321763.667439","322530.245331","323296.89803","326351.913769"
"Mixed","Male","done","38","M_done.wav","None","733.177232545","420","317180.487518","324063.59836","324813.531735","325580.083036","326346.743624","327113.363303","327879.978306","314081.224424","317947.164471","318713.794962","319480.380743","320247.047761","320997.117892","321763.667439","322530.245331","323296.89803","327118.474712"
"Mixed","Male","done","38","F_dime.wav","None","730.350645267","420","317180.487518","324063.59836","324813.531735","325580.083036","326346.743624","327113.363303","327879.978306","328647.00124","317947.164471","318713.794962","319480.380743","320247.047761","320997.117892","321763.667439","322530.245331","323296.89803","327885.066631"
"Mixed","Female","ball","7","M_jaw.wav","space","0.0225004880922","420","331746.554795","324063.59836","324813.531735","325580.083036","326346.743624","327113.363303","327879.978306","328647.00124","317947.164471","318713.794962","319480.380743","320247.047761","320997.117892","321763.667439","322530.245331","323296.89803","328652.291777"
"Mixed","Female","ball","7","M_jaw.wav","None","740.707882885","420","331746.554795","324063.59836","324813.531735","325580.083036","326346.743624","327113.363303","327879.978306","328647.00124","332513.112232","318713.794962","319480.380743","320247.047761","320997.117892","321763.667439","322530.245331","323296.89803","331751.726109"
"Mixed","Female","ball","7","F_ball.wav","None","738.090813138","420","331746.554795","324063.59836","324813.531735","325580.083036","326346.743624","327113.363303","327879.978306","328647.00124","332513.112232","333279.722268","319480.380743","320247.047761","320997.117892","321763.667439","322530.245331","323296.89803","332518.199096"
"Mixed","Female","ball","7","M_greet.wav","space","608.833399374","420","331746.554795","324063.59836","324813.531735","325580.083036","326346.743624","327113.363303","327879.978306","328647.00124","332513.112232","333279.722268","334046.360064","320247.047761","320997.117892","321763.667439","322530.245331","323296.89803","333284.910822"
"Mixed","Female","ball","7","F_romp.wav","None","731.269658706","420","331746.554795","324063.59836","324813.531735","325580.083036","326346.743624","327113.363303","327879.978306","328647.00124","332513.112232","333279.722268","334046.360064","334813.362835","320997.117892","321763.667439","322530.245331","323296.89803","334051.534592"
"Mixed","Female","ball","7","F_ball.wav","None","727.842279177","420","331746.554795","324063.59836","324813.531735","325580.083036","326346.743624","327113.363303","327879.978306","328647.00124","332513.112232","333279.722268","334046.360064","334813.362835","335562.950521","321763.667439","322530.245331","323296.89803","334818.86026"
"Mixed","Female","ball","7","F_priest.wav","None","747.08341077","420","331746.554795","324063.59836","324813.531735","325580.083036","326346.743624","327113.363303","327879.978306","328647.00124","332513.112232","333279.722268","334046.360064","334813.362835","335562.950521","336329.630688","322530.245331","323296.89803","335564.607667"
"Mixed","Female","ball","7","F_ball.wav","space","102.893270542","420","331746.554795","324063.59836","324813.531735","325580.083036","326346.743624","327113.363303","327879.978306","328647.00124","332513.112232","333279.722268","334046.360064","334813.362835","335562.950521","336329.630688","337096.262055","323296.89803","336334.719597"
"Mixed","Female","ball","7","M_jolt.wav","space","600.134184728","420","331746.554795","324063.59836","324813.531735","325580.083036","326346.743624","327113.363303","327879.978306","328647.00124","332513.112232","333279.722268","334046.360064","334813.362835","335562.950521","336329.630688","337096.262055","337862.849298","337101.34249"
"Mixed","Female","ball","7","M_jaw.wav","None","732.505140047","420","331746.554795","338629.513978","324813.531735","325580.083036","326346.743624","327113.363303","327879.978306","328647.00124","332513.112232","333279.722268","334046.360064","334813.362835","335562.950521","336329.630688","337096.262055","337862.849298","337868.121133"
"Mixed","Female","ball","7","M_jolt.wav","None","729.922259353","420","331746.554795","338629.513978","339396.519671","325580.083036","326346.743624","327113.363303","327879.978306","328647.00124","332513.112232","333279.722268","334046.360064","334813.362835","335562.950521","336329.630688","337096.262055","337862.849298","338634.575419"
"Mixed","Female","ball","7","F_ball.wav","None","726.971773284","420","331746.554795","338629.513978","339396.519671","340146.116708","326346.743624","327113.363303","327879.978306","328647.00124","332513.112232","333279.722268","334046.360064","334813.362835","335562.950521","336329.630688","337096.262055","337862.849298","339402.09687"
"Mixed","Female","ball","7","F_greet.wav","space","485.847777478","420","331746.554795","338629.513978","339396.519671","340146.116708","340912.747199","327113.363303","327879.978306","328647.00124","332513.112232","333279.722268","334046.360064","334813.362835","335562.950521","336329.630688","337096.262055","337862.849298","340151.376855"
"Mixed","Female","ball","7","F_greet.wav","None","737.691940851","420","331746.554795","338629.513978","339396.519671","340146.116708","340912.747199","341679.427658","327879.978306","328647.00124","332513.112232","333279.722268","334046.360064","334813.362835","335562.950521","336329.630688","337096.262055","337862.849298","340917.79023"
"Mixed","Female","ball","7","M_cad.wav","None","734.961492022","420","331746.554795","338629.513978","339396.519671","340146.116708","340912.747199","341679.427658","342445.988894","328647.00124","332513.112232","333279.722268","334046.360064","334813.362835","335562.950521","336329.630688","337096.262055","337862.849298","341684.47478"
"Mixed","Female","ball","7","M_greet.wav","None","732.17143151","420","331746.554795","338629.513978","339396.519671","340146.116708","340912.747199","341679.427658","342445.988894","343212.585195","332513.112232","333279.722268","334046.360064","334813.362835","335562.950521","336329.630688","337096.262055","337862.849298","342451.208422"
"Mixed","Female","cave","20","M_knife.wav","None","729.601992667","420","346295.843137","338629.513978","339396.519671","340146.116708","340912.747199","341679.427658","342445.988894","343212.585195","332513.112232","333279.722268","334046.360064","334813.362835","335562.950521","336329.630688","337096.262055","337862.849298","343218.002845"
"Mixed","Female","cave","20","F_cave.wav","None","740.253489913","420","346295.843137","338629.513978","339396.519671","340146.116708","340912.747199","341679.427658","342445.988894","343212.585195","347062.410217","333279.722268","334046.360064","334813.362835","335562.950521","336329.630688","337096.262055","337862.849298","346300.877402"
"Mixed","Female","cave","20","F_gnash.wav","None","737.443266627","420","346295.843137","338629.513978","339396.519671","340146.116708","340912.747199","341679.427658","342445.988894","343212.585195","347062.410217","347829.065546","334046.360064","334813.362835","335562.950521","336329.630688","337096.262055","337862.849298","347067.626824"
"Mixed","Female","cave","20","M_park.wav","space","0.0222082739929","420","346295.843137","338629.513978","339396.519671","340146.116708","340912.747199","341679.427658","342445.988894","343212.585195","347062.410217","347829.065546","348595.694868","334813.362835","335562.950521","336329.630688","337096.262055","337862.849298","347834.177248"
"Mixed","Female","cave","20","F_depth.wav","None","730.552857445","420","346295.843137","338629.513978","339396.519671","340146.116708","340912.747199","341679.427658","342445.988894","343212.585195","347062.410217","347829.065546","348595.694868","349362.667541","335562.950521","336329.630688","337096.262055","337862.849298","348600.85946"
"Mixed","Female","cave","20","F_cave.wav","None","730.440355005","420","346295.843137","338629.513978","339396.519671","340146.116708","340912.747199","341679.427658","342445.988894","343212.585195","347062.410217","347829.065546","348595.694868","349362.667541","350112.267208","336329.630688","337096.262055","337862.849298","349365.088243"
"Mixed","Female","cave","20","F_depth.wav","space","494.978007965","420","346295.843137","338629.513978","339396.519671","340146.116708","340912.747199","341679.427658","342445.988894","343212.585195","347062.410217","347829.065546","348595.694868","349362.667541","350112.267208","350878.930134","337096.262055","337862.849298","350117.330694"
"Mixed","Female","cave","20","M_cad.wav","None","737.911393663","420","346295.843137","338629.513978","339396.519671","340146.116708","340912.747199","341679.427658","342445.988894","343212.585195","347062.410217","347829.065546","348595.694868","349362.667541","350112.267208","350878.930134","351645.544845","337862.849298","350883.986315"
"Mixed","Female","cave","20","F_cave.wav","None","735.015259422","420","346295.843137","338629.513978","339396.519671","340146.116708","340912.747199","341679.427658","342445.988894","343212.585195","347062.410217","347829.065546","348595.694868","349362.667541","350112.267208","350878.930134","351645.544845","352412.225012","351650.875707"
"Mixed","Female","cave","20","F_cad.wav","space","626.771548162","420","346295.843137","353179.168464","339396.519671","340146.116708","340912.747199","341679.427658","342445.988894","343212.585195","347062.410217","347829.065546","348595.694868","349362.667541","350112.267208","350878.930134","351645.544845","352412.225012","352417.455937"
"Mixed","Female","cave","20","F_cave.wav","None","727.295838754","420","346295.843137","353179.168464","353928.773098","340146.116708","340912.747199","341679.427658","342445.988894","343212.585195","347062.410217","347829.065546","348595.694868","349362.667541","350112.267208","350878.930134","351645.544845","352412.225012","353184.7743"
"Mixed","Female","cave","20","M_jaw.wav","None","742.527208057","420","346295.843137","353179.168464","353928.773098","354695.409141","340912.747199","341679.427658","342445.988894","343212.585195","347062.410217","347829.065546","348595.694868","349362.667541","350112.267208","350878.930134","351645.544845","352412.225012","353933.809116"
"Mixed","Female","cave","20","M_lash.wav","space","0.0207472032635","420","346295.843137","353179.168464","353928.773098","354695.409141","355462.049859","341679.427658","342445.988894","343212.585195","347062.410217","347829.065546","348595.694868","349362.667541","350112.267208","350878.930134","351645.544845","352412.225012","354700.38321"
"Mixed","Female","cave","20","M_priest.wav","None","735.394553363","420","346295.843137","353179.168464","353928.773098","354695.409141","355462.049859","356228.691746","342445.988894","343212.585195","347062.410217","347829.065546","348595.694868","349362.667541","350112.267208","350878.930134","351645.544845","352412.225012","355467.353253"
"Mixed","Female","cave","20","M_knife.wav","None","732.991092144","420","346295.843137","353179.168464","353928.773098","354695.409141","355462.049859","356228.691746","356995.270222","343212.585195","347062.410217","347829.065546","348595.694868","349362.667541","350112.267208","350878.930134","351645.544845","352412.225012","356233.890819"
"Mixed","Female","cave","20","M_cling.wav","None","730.874877416","420","346295.843137","353179.168464","353928.773098","354695.409141","355462.049859","356228.691746","356995.270222","357762.303092","347062.410217","347829.065546","348595.694868","349362.667541","350112.267208","350878.930134","351645.544845","352412.225012","357000.128866"
"Mixed","Male","done","42","F_bluff.wav","None","726.986968418","420","360861.851095","353179.168464","353928.773098","354695.409141","355462.049859","356228.691746","356995.270222","357762.303092","347062.410217","347829.065546","348595.694868","349362.667541","350112.267208","350878.930134","351645.544845","352412.225012","357767.924415"
"Mixed","Male","done","42","F_cling.wav","None","740.266347335","420","360861.851095","353179.168464","353928.773098","354695.409141","355462.049859","356228.691746","356995.270222","357762.303092","361628.410577","347829.065546","348595.694868","349362.667541","350112.267208","350878.930134","351645.544845","352412.225012","360866.764967"
"Mixed","Male","done","42","M_done.wav","None","737.499079525","420","360861.851095","353179.168464","353928.773098","354695.409141","355462.049859","356228.691746","356995.270222","357762.303092","361628.410577","362395.05714","348595.694868","349362.667541","350112.267208","350878.930134","351645.544845","352412.225012","361633.509129"
"Mixed","Male","done","42","M_cad.wav","space","491.276823796","420","360861.851095","353179.168464","353928.773098","354695.409141","355462.049859","356228.691746","356995.270222","357762.303092","361628.410577","362395.05714","363161.681786","349362.667541","350112.267208","350878.930134","351645.544845","352412.225012","362400.05517"
"Mixed","Male","done","42","F_bluff.wav","None","730.741919987","420","360861.851095","353179.168464","353928.773098","354695.409141","355462.049859","356228.691746","356995.270222","357762.303092","361628.410577","362395.05714","363161.681786","363928.79969","350112.267208","350878.930134","351645.544845","352412.225012","363166.555625"
"Mixed","Male","done","42","M_cad.wav","None","727.093626576","420","360861.851095","353179.168464","353928.773098","354695.409141","355462.049859","356228.691746","356995.270222","357762.303092","361628.410577","362395.05714","363161.681786","363928.79969","364678.332147","350878.930134","351645.544845","352412.225012","363934.455202"
"Mixed","Male","done","42","M_done.wav","None","745.82396787","420","360861.851095","353179.168464","353928.773098","354695.409141","355462.049859","356228.691746","356995.270222","357762.303092","361628.410577","362395.05714","363161.681786","363928.79969","364678.332147","365444.897182","351645.544845","352412.225012","364679.807536"
