"Condition","Talker","Target","Trial","current_stimulus","response_response","response_time_response","subject_nr","time_Audio1","time_Audio10","time_Audio11","time_Audio12","time_Audio13","time_Audio14","time_Audio15","time_Audio16","time_Audio2","time_Audio3","time_Audio4","time_Audio5","time_Audio6","time_Audio7","time_Audio8","time_Audio9","time_response","title"
"Mixed","both","tile","26","F_jolt.wav","NA","NA","324","421873.219201","NA","NA","NA","NA","NA","NA","NA","NA","NA","NA","NA","NA","NA","NA","NA","NA","Mapping"
"Mixed","both","tile","26","F_priest.wav","None","717.861214187","324","421873.219201","NA","NA","NA","NA","NA","NA","NA","422640.140328","NA","NA","NA","NA","NA","NA","NA","421888.343645","Mapping"
"Mixed","both","tile","26","M_depth.wav","None","722.029796336","324","421873.219201","NA","NA","NA","NA","NA","NA","NA","422640.140328","423406.359631","NA","NA","NA","NA","NA","NA","422650.438887","Mapping"
"Mixed","both","tile","26","M_cad.wav","None","722.41564421","324","421873.219201","NA","NA","NA","NA","NA","NA","NA","422640.140328","423406.359631","424173.108239","NA","NA","NA","NA","NA","423416.511024","Mapping"
"Mixed","both","tile","26","M_bluff.wav","None","721.748139244","324","421873.219201","NA","NA","NA","NA","NA","NA","NA","422640.140328","423406.359631","424173.108239","424939.804596","NA","NA","NA","NA","424183.419165","Mapping"
"Mixed","both","tile","26","F_depth.wav","None","722.020212095","324","421873.219201","NA","NA","NA","NA","NA","NA","NA","422640.140328","423406.359631","424173.108239","424939.804596","425706.72696","NA","NA","NA","424949.358048","Mapping"
"Mixed","both","tile","26","M_tile.wav","None","720.80083238","324","421873.219201","NA","NA","NA","NA","NA","NA","NA","422640.140328","423406.359631","424173.108239","424939.804596","425706.72696","426473.103014","NA","NA","425716.846199","Mapping"
"Mixed","both","tile","26","M_lash.wav","space","530.963541009","324","421873.219201","NA","NA","NA","NA","NA","NA","NA","422640.140328","423406.359631","424173.108239","424939.804596","425706.72696","426473.103014","427240.111018","NA","426482.83053","Mapping"
"Mixed","both","tile","26","F_tile.wav","None","720.662632491","324","421873.219201","NA","NA","NA","NA","NA","NA","NA","422640.140328","423406.359631","424173.108239","424939.804596","425706.72696","426473.103014","427240.111018","428006.497584","427249.679619","Mapping"
"Mixed","both","tile","26","F_park.wav","space","476.893167943","324","421873.219201","428773.47498","NA","NA","NA","NA","NA","NA","422640.140328","423406.359631","424173.108239","424939.804596","425706.72696","426473.103014","427240.111018","428006.497584","428016.840973","Mapping"
"Mixed","both","tile","26","M_tile.wav","None","719.457166269","324","421873.219201","428773.47498","429523.126001","NA","NA","NA","NA","NA","422640.140328","423406.359631","424173.108239","424939.804596","425706.72696","426473.103014","427240.111018","428006.497584","428783.465603","Mapping"
"Mixed","both","tile","26","M_cad.wav","space","385.095316451","324","421873.219201","428773.47498","429523.126001","430289.978491","NA","NA","NA","NA","422640.140328","423406.359631","424173.108239","424939.804596","425706.72696","426473.103014","427240.111018","428006.497584","429532.608961","Mapping"
"Mixed","both","tile","26","F_knife.wav","None","729.95297797","324","421873.219201","428773.47498","429523.126001","430289.978491","431056.702984","NA","NA","NA","422640.140328","423406.359631","424173.108239","424939.804596","425706.72696","426473.103014","427240.111018","428006.497584","430299.393124","Mapping"
"Mixed","both","tile","26","F_tile.wav","None","729.940301739","324","421873.219201","428773.47498","429523.126001","430289.978491","431056.702984","431823.071926","NA","NA","422640.140328","423406.359631","424173.108239","424939.804596","425706.72696","426473.103014","427240.111018","428006.497584","431065.856365","Mapping"
"Mixed","both","tile","26","F_jolt.wav","space","485.067707486","324","421873.219201","428773.47498","429523.126001","430289.978491","431056.702984","431823.071926","432589.871857","NA","422640.140328","423406.359631","424173.108239","424939.804596","425706.72696","426473.103014","427240.111018","428006.497584","431832.590442","Mapping"
"Mixed","both","tile","26","M_park.wav","None","721.963324118","324","421873.219201","428773.47498","429523.126001","430289.978491","431056.702984","431823.071926","432589.871857","433357.107104","422640.140328","423406.359631","424173.108239","424939.804596","425706.72696","426473.103014","427240.111018","428006.497584","432600.287902","Mapping"
"Mixed","both","done","43","M_greet.wav","None","722.014337778","324","436490.056836","428773.47498","429523.126001","430289.978491","431056.702984","431823.071926","432589.871857","433357.107104","422640.140328","423406.359631","424173.108239","424939.804596","425706.72696","426473.103014","427240.111018","428006.497584","433366.739704","Mapping"
"Mixed","both","done","43","F_priest.wav","None","722.975865938","324","436490.056836","428773.47498","429523.126001","430289.978491","431056.702984","431823.071926","432589.871857","433357.107104","437256.767724","423406.359631","424173.108239","424939.804596","425706.72696","426473.103014","427240.111018","428006.497584","436499.681397","Mapping"
"Mixed","both","done","43","M_done.wav","None","719.177364372","324","436490.056836","428773.47498","429523.126001","430289.978491","431056.702984","431823.071926","432589.871857","433357.107104","437256.767724","438023.504893","424173.108239","424939.804596","425706.72696","426473.103014","427240.111018","428006.497584","437266.812143","Mapping"
"Mixed","both","done","43","M_park.wav","space","628.339186311","324","436490.056836","428773.47498","429523.126001","430289.978491","431056.702984","431823.071926","432589.871857","433357.107104","437256.767724","438023.504893","438773.49384","424939.804596","425706.72696","426473.103014","427240.111018","428006.497584","438033.223134","Mapping"
"Mixed","both","done","43","F_greet.wav","None","731.868614908","324","436490.056836","428773.47498","429523.126001","430289.978491","431056.702984","431823.071926","432589.871857","433357.107104","437256.767724","438023.504893","438773.49384","439539.831866","425706.72696","426473.103014","427240.111018","428006.497584","438783.270515","Mapping"
"Mixed","both","done","43","F_done.wav","None","732.390190475","324","436490.056836","428773.47498","429523.126001","430289.978491","431056.702984","431823.071926","432589.871857","433357.107104","437256.767724","438023.504893","438773.49384","439539.831866","440306.524822","426473.103014","427240.111018","428006.497584","439549.137051","Mapping"
"Mixed","both","done","43","F_cling.wav","space","585.605884902","324","436490.056836","428773.47498","429523.126001","430289.978491","431056.702984","431823.071926","432589.871857","433357.107104","437256.767724","438023.504893","438773.49384","439539.831866","440306.524822","441073.341139","427240.111018","428006.497584","440315.921214","Mapping"
"Mixed","both","done","43","F_romp.wav","None","731.846663635","324","436490.056836","428773.47498","429523.126001","430289.978491","431056.702984","431823.071926","432589.871857","433357.107104","437256.767724","438023.504893","438773.49384","439539.831866","440306.524822","441073.341139","441839.570027","428006.497584","441083.120906","Mapping"
"Mixed","both","done","43","M_reek.wav","None","732.699981425","324","436490.056836","428773.47498","429523.126001","430289.978491","431056.702984","431823.071926","432589.871857","433357.107104","437256.767724","438023.504893","438773.49384","439539.831866","440306.524822","441073.341139","441839.570027","442606.178889","441849.005993","Mapping"
"Mixed","both","done","43","M_reek.wav","None","732.380605768","324","436490.056836","443373.016229","429523.126001","430289.978491","431056.702984","431823.071926","432589.871857","433357.107104","437256.767724","438023.504893","438773.49384","439539.831866","440306.524822","441073.341139","441839.570027","442606.178889","442615.516847","Mapping"
"Mixed","both","done","43","F_cad.wav","None","728.912919294","324","436490.056836","443373.016229","444139.518735","430289.978491","431056.702984","431823.071926","432589.871857","433357.107104","437256.767724","438023.504893","438773.49384","439539.831866","440306.524822","441073.341139","441839.570027","442606.178889","443382.503209","Mapping"
"Mixed","both","done","43","M_done.wav","None","728.996705264","324","436490.056836","443373.016229","444139.518735","444906.350819","431056.702984","431823.071926","432589.871857","433357.107104","437256.767724","438023.504893","438773.49384","439539.831866","440306.524822","441073.341139","441839.570027","442606.178889","444149.009116","Mapping"
"Mixed","both","done","43","M_jaw.wav","space","441.415234003","324","436490.056836","443373.016229","444139.518735","444906.350819","445672.916088","431823.071926","432589.871857","433357.107104","437256.767724","438023.504893","438773.49384","439539.831866","440306.524822","441073.341139","441839.570027","442606.178889","444916.012791","Mapping"
"Mixed","both","done","43","M_dime.wav","None","724.951482844","324","436490.056836","443373.016229","444139.518735","444906.350819","445672.916088","446439.435908","432589.871857","433357.107104","437256.767724","438023.504893","438773.49384","439539.831866","440306.524822","441073.341139","441839.570027","442606.178889","445682.603412","Mapping"
"Mixed","both","done","43","F_done.wav","None","725.056910887","324","436490.056836","443373.016229","444139.518735","444906.350819","445672.916088","446439.435908","447206.809045","433357.107104","437256.767724","438023.504893","438773.49384","439539.831866","440306.524822","441073.341139","441839.570027","442606.178889","446448.908974","Mapping"
"Mixed","both","done","43","F_jolt.wav","space","365.12427358","324","436490.056836","443373.016229","444139.518735","444906.350819","445672.916088","446439.435908","447206.809045","447956.144709","437256.767724","438023.504893","438773.49384","439539.831866","440306.524822","441073.341139","441839.570027","442606.178889","447216.33158","Mapping"
"Mixed","both","tile","36","F_greet.wav","None","734.418675303","324","451090.00001","443373.016229","444139.518735","444906.350819","445672.916088","446439.435908","447206.809045","447956.144709","437256.767724","438023.504893","438773.49384","439539.831866","440306.524822","441073.341139","441839.570027","442606.178889","447965.761851","Mapping"
"Mixed","both","tile","36","M_bluff.wav","None","719.871767331","324","451090.00001","443373.016229","444139.518735","444906.350819","445672.916088","446439.435908","447206.809045","447956.144709","451839.294862","438023.504893","438773.49384","439539.831866","440306.524822","441073.341139","441839.570027","442606.178889","451099.64745","Mapping"
"Mixed","both","tile","36","M_tile.wav","None","734.117231797","324","451090.00001","443373.016229","444139.518735","444906.350819","445672.916088","446439.435908","447206.809045","447956.144709","451839.294862","452606.23052","438773.49384","439539.831866","440306.524822","441073.341139","441839.570027","442606.178889","451848.892526","Mapping"
"Mixed","both","tile","36","M_reek.wav","space","477.451534942","324","451090.00001","443373.016229","444139.518735","444906.350819","445672.916088","446439.435908","447206.809045","447956.144709","451839.294862","452606.23052","453372.842473","439539.831866","440306.524822","441073.341139","441839.570027","442606.178889","452615.866212","Mapping"
"Mixed","both","tile","36","M_tile.wav","None","726.070689969","324","451090.00001","443373.016229","444139.518735","444906.350819","445672.916088","446439.435908","447206.809045","447956.144709","451839.294862","452606.23052","453372.842473","454139.660954","440306.524822","441073.341139","441839.570027","442606.178889","453383.380333","Mapping"
"Mixed","both","tile","36","M_priest.wav","space","479.544637259","324","451090.00001","443373.016229","444139.518735","444906.350819","445672.916088","446439.435908","447206.809045","447956.144709","451839.294862","452606.23052","453372.842473","454139.660954","454906.60867","441073.341139","441839.570027","442606.178889","454149.763498","Mapping"
"Mixed","both","tile","36","F_tile.wav","None","722.36463055","324","451090.00001","443373.016229","444139.518735","444906.350819","445672.916088","446439.435908","447206.809045","447956.144709","451839.294862","452606.23052","453372.842473","454139.660954","454906.60867","455673.258961","441839.570027","442606.178889","454916.962571","Mapping"
"Mixed","both","tile","36","F_dime.wav","space","442.032962106","324","451090.00001","443373.016229","444139.518735","444906.350819","445672.916088","446439.435908","447206.809045","447956.144709","451839.294862","452606.23052","453372.842473","454139.660954","454906.60867","455673.258961","456439.523404","442606.178889","455683.231652","Mapping"
"Mixed","both","tile","36","F_priest.wav","None","719.659983646","324","451090.00001","443373.016229","444139.518735","444906.350819","445672.916088","446439.435908","447206.809045","447956.144709","451839.294862","452606.23052","453372.842473","454139.660954","454906.60867","455673.258961","456439.523404","457189.221418","456449.39283","Mapping"
"Mixed","both","tile","36","M_jaw.wav","None","733.352955431","324","451090.00001","457956.175008","444139.518735","444906.350819","445672.916088","446439.435908","447206.809045","447956.144709","451839.294862","452606.23052","453372.842473","454139.660954","454906.60867","455673.258961","456439.523404","457189.221418","457199.142787","Mapping"
"Mixed","both","tile","36","M_dime.wav","None","730.115602724","324","451090.00001","457956.175008","458722.626192","444906.350819","445672.916088","446439.435908","447206.809045","447956.144709","451839.294862","452606.23052","453372.842473","454139.660954","454906.60867","455673.258961","456439.523404","457189.221418","457965.878719","Mapping"
"Mixed","both","tile","36","M_jolt.wav","None","726.647298317","324","451090.00001","457956.175008","458722.626192","459489.091597","445672.916088","446439.435908","447206.809045","447956.144709","451839.294862","452606.23052","453372.842473","454139.660954","454906.60867","455673.258961","456439.523404","457189.221418","458732.825197","Mapping"
"Mixed","both","tile","36","F_bluff.wav","None","727.203500457","324","451090.00001","457956.175008","458722.626192","459489.091597","460255.827219","446439.435908","447206.809045","447956.144709","451839.294862","452606.23052","453372.842473","454139.660954","454906.60867","455673.258961","456439.523404","457189.221418","459498.685241","Mapping"
"Mixed","both","tile","36","F_cling.wav","None","725.36299238","324","451090.00001","457956.175008","458722.626192","459489.091597","460255.827219","461022.924884","447206.809045","447956.144709","451839.294862","452606.23052","453372.842473","454139.660954","454906.60867","455673.258961","456439.523404","457189.221418","460267.105239","Mapping"
"Mixed","both","tile","36","F_tile.wav","None","723.07201894","324","451090.00001","457956.175008","458722.626192","459489.091597","460255.827219","461022.924884","461789.7412","447956.144709","451839.294862","452606.23052","453372.842473","454139.660954","454906.60867","455673.258961","456439.523404","457189.221418","461032.855527","Mapping"
"Mixed","both","tile","36","F_gnash.wav","space","381.33144239","324","451090.00001","457956.175008","458722.626192","459489.091597","460255.827219","461022.924884","461789.7412","462556.452089","451839.294862","452606.23052","453372.842473","454139.660954","454906.60867","455673.258961","456439.523404","457189.221418","461799.859821","Mapping"
"Mixed","both","done","39","F_cad.wav","None","718.82985346","324","465673.046559","457956.175008","458722.626192","459489.091597","460255.827219","461022.924884","461789.7412","462556.452089","451839.294862","452606.23052","453372.842473","454139.660954","454906.60867","455673.258961","456439.523404","457189.221418","462566.925331","Mapping"
"Mixed","both","done","39","F_done.wav","None","719.822608866","324","465673.046559","457956.175008","458722.626192","459489.091597","460255.827219","461022.924884","461789.7412","462556.452089","466422.461681","452606.23052","453372.842473","454139.660954","454906.60867","455673.258961","456439.523404","457189.221418","465682.407087","Mapping"
"Mixed","both","done","39","F_knife.wav","space","580.97570762","324","465673.046559","457956.175008","458722.626192","459489.091597","460255.827219","461022.924884","461789.7412","462556.452089","466422.461681","467189.076725","453372.842473","454139.660954","454906.60867","455673.258961","456439.523404","457189.221418","466432.092425","Mapping"
"Mixed","both","done","39","F_knife.wav","None","730.415191967","324","465673.046559","457956.175008","458722.626192","459489.091597","460255.827219","461022.924884","461789.7412","462556.452089","466422.461681","467189.076725","467955.716195","454139.660954","454906.60867","455673.258961","456439.523404","457189.221418","467198.724166","Mapping"
"Mixed","both","done","39","M_park.wav","None","726.800957229","324","465673.046559","457956.175008","458722.626192","459489.091597","460255.827219","461022.924884","461789.7412","462556.452089","466422.461681","467189.076725","467955.716195","468722.68277","454906.60867","455673.258961","456439.523404","457189.221418","467965.768034","Mapping"
"Mixed","both","done","39","F_done.wav","None","723.364497069","324","465673.046559","457956.175008","458722.626192","459489.091597","460255.827219","461022.924884","461789.7412","462556.452089","466422.461681","467189.076725","467955.716195","468722.68277","469489.326259","455673.258961","456439.523404","457189.221418","468732.709257","Mapping"
"Mixed","both","done","39","M_jolt.wav","space","641.393715516","324","465673.046559","457956.175008","458722.626192","459489.091597","460255.827219","461022.924884","461789.7412","462556.452089","466422.461681","467189.076725","467955.716195","468722.68277","469489.326259","470239.017782","456439.523404","457189.221418","469499.585244","Mapping"
"Mixed","both","done","39","M_done.wav","None","734.309228137","324","465673.046559","457956.175008","458722.626192","459489.091597","460255.827219","461022.924884","461789.7412","462556.452089","466422.461681","467189.076725","467955.716195","468722.68277","469489.326259","470239.017782","471005.94942","457189.221418","470248.623484","Mapping"
"Mixed","both","done","39","M_jolt.wav","space","492.976357695","324","465673.046559","457956.175008","458722.626192","459489.091597","460255.827219","461022.924884","461789.7412","462556.452089","466422.461681","467189.076725","467955.716195","468722.68277","469489.326259","470239.017782","471005.94942","471772.36443","471016.009607","Mapping"
"Mixed","both","done","39","F_cad.wav","None","730.124569032","324","465673.046559","472538.910839","458722.626192","459489.091597","460255.827219","461022.924884","461789.7412","462556.452089","466422.461681","467189.076725","467955.716195","468722.68277","469489.326259","470239.017782","471005.94942","471772.36443","471781.448248","Mapping"
"Mixed","both","done","39","F_park.wav","None","726.581444032","324","465673.046559","472538.910839","473305.805685","459489.091597","460255.827219","461022.924884","461789.7412","462556.452089","466422.461681","467189.076725","467955.716195","468722.68277","469489.326259","470239.017782","471005.94942","471772.36443","472548.470783","Mapping"
"Mixed","both","done","39","F_priest.wav","None","722.945258487","324","465673.046559","472538.910839","473305.805685","474072.377446","460255.827219","461022.924884","461789.7412","462556.452089","466422.461681","467189.076725","467955.716195","468722.68277","469489.326259","470239.017782","471005.94942","471772.36443","473315.471058","Mapping"
"Mixed","both","done","39","M_romp.wav","None","720.188979059","324","465673.046559","472538.910839","473305.805685","474072.377446","474838.971468","461022.924884","461789.7412","462556.452089","466422.461681","467189.076725","467955.716195","468722.68277","469489.326259","470239.017782","471005.94942","471772.36443","474081.836291","Mapping"
"Mixed","both","done","39","M_dime.wav","None","720.020788722","324","465673.046559","472538.910839","473305.805685","474072.377446","474838.971468","475588.934135","461789.7412","462556.452089","466422.461681","467189.076725","467955.716195","468722.68277","469489.326259","470239.017782","471005.94942","471772.36443","474848.448554","Mapping"
"Mixed","both","done","39","M_done.wav","None","733.168688137","324","465673.046559","472538.910839","473305.805685","474072.377446","474838.971468","475588.934135","476355.887106","462556.452089","466422.461681","467189.076725","467955.716195","468722.68277","469489.326259","470239.017782","471005.94942","471772.36443","475598.820566","Mapping"
"Mixed","both","done","39","M_lash.wav","space","398.880112916","324","465673.046559","472538.910839","473305.805685","474072.377446","474838.971468","475588.934135","476355.887106","477122.370443","466422.461681","467189.076725","467955.716195","468722.68277","469489.326259","470239.017782","471005.94942","471772.36443","476366.009746","Mapping"
"Mixed","both","ball","2","F_lash.wav","None","725.515105762","324","480238.937087","472538.910839","473305.805685","474072.377446","474838.971468","475588.934135","476355.887106","477122.370443","466422.461681","467189.076725","467955.716195","468722.68277","469489.326259","470239.017782","471005.94942","471772.36443","477132.902429","Mapping"
"Mixed","both","ball","2","F_jolt.wav","None","726.276599336","324","480238.937087","472538.910839","473305.805685","474072.377446","474838.971468","475588.934135","476355.887106","477122.370443","481006.171715","467189.076725","467955.716195","468722.68277","469489.326259","470239.017782","471005.94942","471772.36443","480247.728118","Mapping"
"Mixed","both","ball","2","F_ball.wav","None","721.513786353","324","480238.937087","472538.910839","473305.805685","474072.377446","474838.971468","475588.934135","476355.887106","477122.370443","481006.171715","481772.691535","467955.716195","468722.68277","469489.326259","470239.017782","471005.94942","471772.36443","481016.284771","Mapping"
"Mixed","both","ball","2","M_dime.wav","space","326.093321666","324","480238.937087","472538.910839","473305.805685","474072.377446","474838.971468","475588.934135","476355.887106","477122.370443","481006.171715","481772.691535","482522.135101","468722.68277","469489.326259","470239.017782","471005.94942","471772.36443","481782.735954","Mapping"
"Mixed","both","ball","2","M_greet.wav","None","735.441729892","324","480238.937087","472538.910839","473305.805685","474072.377446","474838.971468","475588.934135","476355.887106","477122.370443","481006.171715","481772.691535","482522.135101","483289.085599","469489.326259","470239.017782","471005.94942","471772.36443","482531.791507","Mapping"
"Mixed","both","ball","2","M_romp.wav","None","732.06339404","324","480238.937087","472538.910839","473305.805685","474072.377446","474838.971468","475588.934135","476355.887106","477122.370443","481006.171715","481772.691535","482522.135101","483289.085599","484055.637572","470239.017782","471005.94942","471772.36443","483298.707069","Mapping"
"Mixed","both","ball","2","F_cling.wav","None","728.912919294","324","480238.937087","472538.910839","473305.805685","474072.377446","474838.971468","475588.934135","476355.887106","477122.370443","481006.171715","481772.691535","482522.135101","483289.085599","484055.637572","484822.172232","471005.94942","471772.36443","484065.304491","Mapping"
"Mixed","both","ball","2","F_depth.wav","None","725.789342541","324","480238.937087","472538.910839","473305.805685","474072.377446","474838.971468","475588.934135","476355.887106","477122.370443","481006.171715","481772.691535","482522.135101","483289.085599","484055.637572","484822.172232","485589.154266","471772.36443","484831.968385","Mapping"
"Mixed","both","ball","2","M_ball.wav","None","722.176653333","324","480238.937087","472538.910839","473305.805685","474072.377446","474838.971468","475588.934135","476355.887106","477122.370443","481006.171715","481772.691535","482522.135101","483289.085599","484055.637572","484822.172232","485589.154266","486355.555363","485599.188792","Mapping"
"Mixed","both","ball","2","M_depth.wav","space","407.45163057","324","480238.937087","487122.623966","473305.805685","474072.377446","474838.971468","475588.934135","476355.887106","477122.370443","481006.171715","481772.691535","482522.135101","483289.085599","484055.637572","484822.172232","485589.154266","486355.555363","486365.256909","Mapping"
"Mixed","both","ball","2","M_priest.wav","None","718.830163125","324","480238.937087","487122.623966","487872.182234","474072.377446","474838.971468","475588.934135","476355.887106","477122.370443","481006.171715","481772.691535","482522.135101","483289.085599","484055.637572","484822.172232","485589.154266","486355.555363","487132.344989","Mapping"
"Mixed","both","ball","2","M_ball.wav","None","732.916093897","324","480238.937087","487122.623966","487872.182234","488638.739155","474838.971468","475588.934135","476355.887106","477122.370443","481006.171715","481772.691535","482522.135101","483289.085599","484055.637572","484822.172232","485589.154266","486355.555363","487881.800922","Mapping"
"Mixed","both","ball","2","F_cling.wav","space","443.96313047","324","480238.937087","487122.623966","487872.182234","488638.739155","489405.62318","475588.934135","476355.887106","477122.370443","481006.171715","481772.691535","482522.135101","483289.085599","484055.637572","484822.172232","485589.154266","486355.555363","488648.725449","Mapping"
"Mixed","both","ball","2","M_priest.wav","None","725.580650382","324","480238.937087","487122.623966","487872.182234","488638.739155","489405.62318","490172.493603","476355.887106","477122.370443","481006.171715","481772.691535","482522.135101","483289.085599","484055.637572","484822.172232","485589.154266","486355.555363","489415.770863","Mapping"
"Mixed","both","ball","2","F_ball.wav","None","722.241888754","324","480238.937087","487122.623966","487872.182234","488638.739155","489405.62318","490172.493603","490939.027335","477122.370443","481006.171715","481772.691535","482522.135101","483289.085599","484055.637572","484822.172232","485589.154266","486355.555363","490182.764027","Mapping"
"Mixed","both","ball","2","F_park.wav","space","335.545055103","324","480238.937087","487122.623966","487872.182234","488638.739155","489405.62318","490172.493603","490939.027335","491688.641873","481006.171715","481772.691535","482522.135101","483289.085599","484055.637572","484822.172232","485589.154266","486355.555363","490949.031562","Mapping"
"Mixed","both","cave","20","F_depth.wav","None","733.612351585","324","494822.369176","487122.623966","487872.182234","488638.739155","489405.62318","490172.493603","490939.027335","491688.641873","481006.171715","481772.691535","482522.135101","483289.085599","484055.637572","484822.172232","485589.154266","486355.555363","491698.135964","Mapping"
"Mixed","both","cave","20","F_park.wav","None","719.102853443","324","494822.369176","487122.623966","487872.182234","488638.739155","489405.62318","490172.493603","490939.027335","491688.641873","495572.040293","481772.691535","482522.135101","483289.085599","484055.637572","484822.172232","485589.154266","486355.555363","494832.574365","Mapping"
"Mixed","both","cave","20","M_park.wav","None","731.596852187","324","494822.369176","487122.623966","487872.182234","488638.739155","489405.62318","490172.493603","490939.027335","491688.641873","495572.040293","496338.780244","482522.135101","483289.085599","484055.637572","484822.172232","485589.154266","486355.555363","495583.623776","Mapping"
"Mixed","both","cave","20","F_gnash.wav","None","730.319348164","324","494822.369176","487122.623966","487872.182234","488638.739155","489405.62318","490172.493603","490939.027335","491688.641873","495572.040293","496338.780244","497105.141458","483289.085599","484055.637572","484822.172232","485589.154266","486355.555363","496348.569286","Mapping"
"Mixed","both","cave","20","M_cave.wav","None","727.805769537","324","494822.369176","487122.623966","487872.182234","488638.739155","489405.62318","490172.493603","490939.027335","491688.641873","495572.040293","496338.780244","497105.141458","497871.948808","484055.637572","484822.172232","485589.154266","486355.555363","497114.685635","Mapping"
"Mixed","both","cave","20","M_knife.wav","space","362.997471355","324","494822.369176","487122.623966","487872.182234","488638.739155","489405.62318","490172.493603","490939.027335","491688.641873","495572.040293","496338.780244","497105.141458","497871.948808","498638.552105","484822.172232","485589.154266","486355.555363","497881.520811","Mapping"
"Mixed","both","cave","20","M_cave.wav","None","727.337681688","324","494822.369176","487122.623966","487872.182234","488638.739155","489405.62318","490172.493603","490939.027335","491688.641873","495572.040293","496338.780244","497105.141458","497871.948808","498638.552105","499405.830326","485589.154266","486355.555363","498648.270346","Mapping"
"Mixed","both","cave","20","F_depth.wav","space","492.502395064","324","494822.369176","487122.623966","487872.182234","488638.739155","489405.62318","490172.493603","490939.027335","491688.641873","495572.040293","496338.780244","497105.141458","497871.948808","498638.552105","499405.830326","500172.411363","486355.555363","499415.956058","Mapping"
"Mixed","both","cave","20","M_dime.wav","None","719.356994145","324","494822.369176","487122.623966","487872.182234","488638.739155","489405.62318","490172.493603","490939.027335","491688.641873","495572.040293","496338.780244","497105.141458","497871.948808","498638.552105","499405.830326","500172.411363","500921.900067","500182.961898","Mapping"
"Mixed","both","cave","20","M_gnash.wav","None","733.641414437","324","494822.369176","501688.416795","487872.182234","488638.739155","489405.62318","490172.493603","490939.027335","491688.641873","495572.040293","496338.780244","497105.141458","497871.948808","498638.552105","499405.830326","500172.411363","500921.900067","500932.210375","Mapping"
"Mixed","both","cave","20","F_park.wav","None","735.147087835","324","494822.369176","501688.416795","502455.120882","488638.739155","489405.62318","490172.493603","490939.027335","491688.641873","495572.040293","496338.780244","497105.141458","497871.948808","498638.552105","499405.830326","500172.411363","500921.900067","501697.854925","Mapping"
"Mixed","both","cave","20","F_cave.wav","None","731.869851705","324","494822.369176","501688.416795","502455.120882","503221.986048","489405.62318","490172.493603","490939.027335","491688.641873","495572.040293","496338.780244","497105.141458","497871.948808","498638.552105","499405.830326","500172.411363","500921.900067","502464.846544","Mapping"
"Mixed","both","cave","20","M_jolt.wav","space","388.49591231","324","494822.369176","501688.416795","502455.120882","503221.986048","503988.403223","490172.493603","490939.027335","491688.641873","495572.040293","496338.780244","497105.141458","497871.948808","498638.552105","499405.830326","500172.411363","500921.900067","503231.912673","Mapping"
"Mixed","both","cave","20","M_gnash.wav","None","728.380213957","324","494822.369176","501688.416795","502455.120882","503221.986048","503988.403223","504755.052277","490939.027335","491688.641873","495572.040293","496338.780244","497105.141458","497871.948808","498638.552105","499405.830326","500172.411363","500921.900067","503998.076943","Mapping"
"Mixed","both","cave","20","F_cave.wav","None","725.925687701","324","494822.369176","501688.416795","502455.120882","503221.986048","503988.403223","504755.052277","505522.332971","491688.641873","495572.040293","496338.780244","497105.141458","497871.948808","498638.552105","499405.830326","500172.411363","500921.900067","504764.350351","Mapping"
"Mixed","both","cave","20","F_dime.wav","space","383.987240028","324","494822.369176","501688.416795","502455.120882","503221.986048","503988.403223","504755.052277","505522.332971","506271.880419","495572.040293","496338.780244","497105.141458","497871.948808","498638.552105","499405.830326","500172.411363","500921.900067","505532.369352","Mapping"
"Mixed","both","tile","27","F_gnash.wav","None","735.302292742","324","509405.688107","501688.416795","502455.120882","503221.986048","503988.403223","504755.052277","505522.332971","506271.880419","495572.040293","496338.780244","497105.141458","497871.948808","498638.552105","499405.830326","500172.411363","500921.900067","506281.630815","Mapping"
"Mixed","both","tile","27","F_tile.wav","None","718.820578419","324","509405.688107","501688.416795","502455.120882","503221.986048","503988.403223","504755.052277","505522.332971","506271.880419","510155.059326","496338.780244","497105.141458","497871.948808","498638.552105","499405.830326","500172.411363","500921.900067","509415.79436","Mapping"
"Mixed","both","tile","27","F_depth.wav","space","543.193196412","324","509405.688107","501688.416795","502455.120882","503221.986048","503988.403223","504755.052277","505522.332971","506271.880419","510155.059326","510921.800514","497105.141458","497871.948808","498638.552105","499405.830326","500172.411363","500921.900067","510165.056441","Mapping"
"Mixed","both","tile","27","F_knife.wav","None","730.129206553","324","509405.688107","501688.416795","502455.120882","503221.986048","503988.403223","504755.052277","505522.332971","506271.880419","510155.059326","510921.800514","511688.431017","497871.948808","498638.552105","499405.830326","500172.411363","500921.900067","510931.400032","Mapping"
"Mixed","both","tile","27","M_park.wav","None","727.191133425","324","509405.688107","501688.416795","502455.120882","503221.986048","503988.403223","504755.052277","505522.332971","506271.880419","510155.059326","510921.800514","511688.431017","512455.232184","498638.552105","499405.830326","500172.411363","500921.900067","511698.153896","Mapping"
"Mixed","both","tile","27","M_cad.wav","None","724.326025695","324","509405.688107","501688.416795","502455.120882","503221.986048","503988.403223","504755.052277","505522.332971","506271.880419","510155.059326","510921.800514","511688.431017","512455.232184","513222.122394","499405.830326","500172.411363","500921.900067","512464.843761","Mapping"
"Mixed","both","tile","27","M_tile.wav","None","720.133327879","324","509405.688107","501688.416795","502455.120882","503221.986048","503988.403223","504755.052277","505522.332971","506271.880419","510155.059326","510921.800514","511688.431017","512455.232184","513222.122394","513971.751463","500172.411363","500921.900067","513232.848539","Mapping"
"Mixed","both","tile","27","M_gnash.wav","space","398.27166032","324","509405.688107","501688.416795","502455.120882","503221.986048","503988.403223","504755.052277","505522.332971","506271.880419","510155.059326","510921.800514","511688.431017","512455.232184","513222.122394","513971.751463","514738.255515","500921.900067","513981.935937","Mapping"
"Mixed","both","tile","27","F_tile.wav","None","732.013926376","324","509405.688107","501688.416795","502455.120882","503221.986048","503988.403223","504755.052277","505522.332971","506271.880419","510155.059326","510921.800514","511688.431017","512455.232184","513222.122394","513971.751463","514738.255515","515505.18839","514748.066199","Mapping"
"Mixed","both","tile","27","F_bluff.wav","space","513.017891906","324","509405.688107","516271.591652","502455.120882","503221.986048","503988.403223","504755.052277","505522.332971","506271.880419","510155.059326","510921.800514","511688.431017","512455.232184","513222.122394","513971.751463","514738.255515","515505.18839","515515.148405","Mapping"
"Mixed","both","tile","27","M_tile.wav","None","725.807892624","324","509405.688107","516271.591652","517038.483098","503221.986048","503988.403223","504755.052277","505522.332971","506271.880419","510155.059326","510921.800514","511688.431017","512455.232184","513222.122394","513971.751463","514738.255515","515505.18839","516281.321642","Mapping"
"Mixed","both","tile","27","M_cad.wav","space","379.78186598","324","509405.688107","516271.591652","517038.483098","517805.227068","503988.403223","504755.052277","505522.332971","506271.880419","510155.059326","510921.800514","511688.431017","512455.232184","513222.122394","513971.751463","514738.255515","515505.18839","517048.420233","Mapping"
"Mixed","both","tile","27","M_reek.wav","None","719.056786504","324","509405.688107","516271.591652","517038.483098","517805.227068","518555.030511","504755.052277","505522.332971","506271.880419","510155.059326","510921.800514","511688.431017","512455.232184","513222.122394","513971.751463","514738.255515","515505.18839","517815.063104","Mapping"
"Mixed","both","tile","27","M_jaw.wav","None","732.869717758","324","509405.688107","516271.591652","517038.483098","517805.227068","518555.030511","519321.566098","505522.332971","506271.880419","510155.059326","510921.800514","511688.431017","512455.232184","513222.122394","513971.751463","514738.255515","515505.18839","518565.174484","Mapping"
"Mixed","both","tile","27","F_cad.wav","None","730.367579497","324","509405.688107","516271.591652","517038.483098","517805.227068","518555.030511","519321.566098","520088.173723","506271.880419","510155.059326","510921.800514","511688.431017","512455.232184","513222.122394","513971.751463","514738.255515","515505.18839","519331.505398","Mapping"
"Mixed","both","tile","27","F_reek.wav","None","727.972723544","324","509405.688107","516271.591652","517038.483098","517805.227068","518555.030511","519321.566098","520088.173723","520855.064242","510155.059326","510921.800514","511688.431017","512455.232184","513222.122394","513971.751463","514738.255515","515505.18839","520097.851153","Mapping"
"Mixed","both","ball","4","M_cling.wav","None","727.909342851","324","523988.447125","516271.591652","517038.483098","517805.227068","518555.030511","519321.566098","520088.173723","520855.064242","510155.059326","510921.800514","511688.431017","512455.232184","513222.122394","513971.751463","514738.255515","515505.18839","520864.791449","Mapping"
"Mixed","both","ball","4","F_bluff.wav","None","722.588162869","324","523988.447125","516271.591652","517038.483098","517805.227068","518555.030511","519321.566098","520088.173723","520855.064242","524754.78577","510921.800514","511688.431017","512455.232184","513222.122394","513971.751463","514738.255515","515505.18839","523998.634691","Mapping"
"Mixed","both","ball","4","F_gnash.wav","None","720.594305079","324","523988.447125","516271.591652","517038.483098","517805.227068","518555.030511","519321.566098","520088.173723","520855.064242","524754.78577","525504.662487","511688.431017","512455.232184","513222.122394","513971.751463","514738.255515","515505.18839","524764.555333","Mapping"
"Mixed","both","ball","4","F_ball.wav","None","734.09497086","324","523988.447125","516271.591652","517038.483098","517805.227068","518555.030511","519321.566098","520088.173723","520855.064242","524754.78577","525504.662487","526271.485605","512455.232184","513222.122394","513971.751463","514738.255515","515505.18839","525514.870149","Mapping"
"Mixed","both","ball","4","F_cling.wav","space","385.892674327","324","523988.447125","516271.591652","517038.483098","517805.227068","518555.030511","519321.566098","520088.173723","520855.064242","524754.78577","525504.662487","526271.485605","527038.055511","513222.122394","513971.751463","514738.255515","515505.18839","526282.097357","Mapping"
"Mixed","both","ball","4","F_park.wav","None","728.102885187","324","523988.447125","516271.591652","517038.483098","517805.227068","518555.030511","519321.566098","520088.173723","520855.064242","524754.78577","525504.662487","526271.485605","527038.055511","527804.852659","513971.751463","514738.255515","515505.18839","527047.985227","Mapping"
"Mixed","both","ball","4","M_ball.wav","None","725.352789741","324","523988.447125","516271.591652","517038.483098","517805.227068","518555.030511","519321.566098","520088.173723","520855.064242","524754.78577","525504.662487","526271.485605","527038.055511","527804.852659","528571.655063","514738.255515","515505.18839","527814.639537","Mapping"
"Mixed","both","ball","4","M_dime.wav","space","454.89271218","324","523988.447125","516271.591652","517038.483098","517805.227068","518555.030511","519321.566098","520088.173723","520855.064242","524754.78577","525504.662487","526271.485605","527038.055511","527804.852659","528571.655063","529321.892585","515505.18839","528581.068769","Mapping"
"Mixed","both","ball","4","M_park.wav","None","734.99095533","324","523988.447125","516271.591652","517038.483098","517805.227068","518555.030511","519321.566098","520088.173723","520855.064242","524754.78577","525504.662487","526271.485605","527038.055511","527804.852659","528571.655063","529321.892585","530088.011407","529331.573416","Mapping"
"Mixed","both","ball","4","M_park.wav","None","732.505202759","324","523988.447125","530854.856477","517038.483098","517805.227068","518555.030511","519321.566098","520088.173723","520855.064242","524754.78577","525504.662487","526271.485605","527038.055511","527804.852659","528571.655063","529321.892585","530088.011407","530097.842806","Mapping"
"Mixed","both","ball","4","F_ball.wav","None","729.167987127","324","523988.447125","530854.856477","531621.227585","517805.227068","518555.030511","519321.566098","520088.173723","520855.064242","524754.78577","525504.662487","526271.485605","527038.055511","527804.852659","528571.655063","529321.892585","530088.011407","530865.088255","Mapping"
"Mixed","both","ball","4","M_knife.wav","space","428.861565422","324","523988.447125","530854.856477","531621.227585","532388.531468","518555.030511","519321.566098","520088.173723","520855.064242","524754.78577","525504.662487","526271.485605","527038.055511","527804.852659","528571.655063","529321.892585","530088.011407","531631.035795","Mapping"
"Mixed","both","ball","4","F_bluff.wav","None","722.425538115","324","523988.447125","530854.856477","531621.227585","532388.531468","533154.741496","519321.566098","520088.173723","520855.064242","524754.78577","525504.662487","526271.485605","527038.055511","527804.852659","528571.655063","529321.892585","530088.011407","532398.763245","Mapping"
"Mixed","both","ball","4","M_ball.wav","None","721.266757231","324","523988.447125","530854.856477","531621.227585","532388.531468","533154.741496","533904.614812","520088.173723","520855.064242","524754.78577","525504.662487","526271.485605","527038.055511","527804.852659","528571.655063","529321.892585","530088.011407","533164.045754","Mapping"
"Mixed","both","ball","4","M_cad.wav","space","352.981187403","324","523988.447125","530854.856477","531621.227585","532388.531468","533154.741496","533904.614812","534671.377024","520855.064242","524754.78577","525504.662487","526271.485605","527038.055511","527804.852659","528571.655063","529321.892585","530088.011407","533914.925429","Mapping"
"Mixed","both","ball","4","F_priest.wav","None","730.606879108","324","523988.447125","530854.856477","531621.227585","532388.531468","533154.741496","533904.614812","534671.377024","535437.412369","524754.78577","525504.662487","526271.485605","527038.055511","527804.852659","528571.655063","529321.892585","530088.011407","534681.418351","Mapping"
"Mixed","both","done","48","F_reek.wav","None","731.79750517","324","538571.734211","530854.856477","531621.227585","532388.531468","533154.741496","533904.614812","534671.377024","535437.412369","524754.78577","525504.662487","526271.485605","527038.055511","527804.852659","528571.655063","529321.892585","530088.011407","535446.987153","Mapping"
"Mixed","both","done","48","M_cling.wav","None","719.218793791","324","538571.734211","530854.856477","531621.227585","532388.531468","533154.741496","533904.614812","534671.377024","535437.412369","539321.227863","525504.662487","526271.485605","527038.055511","527804.852659","528571.655063","529321.892585","530088.011407","538581.778012","Mapping"
"Mixed","both","done","48","F_done.wav","None","731.957965996","324","538571.734211","530854.856477","531621.227585","532388.531468","533154.741496","533904.614812","534671.377024","535437.412369","539321.227863","540087.787257","526271.485605","527038.055511","527804.852659","528571.655063","529321.892585","530088.011407","539332.905953","Mapping"
"Mixed","both","done","48","F_priest.wav","space","410.739687737","324","538571.734211","530854.856477","531621.227585","532388.531468","533154.741496","533904.614812","534671.377024","535437.412369","539321.227863","540087.787257","540854.724769","527038.055511","527804.852659","528571.655063","529321.892585","530088.011407","540097.007111","Mapping"
"Mixed","both","done","48","F_jaw.wav","None","727.681173012","324","538571.734211","530854.856477","531621.227585","532388.531468","533154.741496","533904.614812","534671.377024","535437.412369","539321.227863","540087.787257","540854.724769","541621.159876","527804.852659","528571.655063","529321.892585","530088.011407","540864.156717","Mapping"
"Mixed","both","done","48","M_lash.wav","None","729.765619151","324","538571.734211","530854.856477","531621.227585","532388.531468","533154.741496","533904.614812","534671.377024","535437.412369","539321.227863","540087.787257","540854.724769","541621.159876","542387.718342","528571.655063","529321.892585","530088.011407","541630.887083","Mapping"
"Mixed","both","done","48","M_done.wav","None","726.725518703","324","538571.734211","530854.856477","531621.227585","532388.531468","533154.741496","533904.614812","534671.377024","535437.412369","539321.227863","540087.787257","540854.724769","541621.159876","542387.718342","543154.994399","529321.892585","530088.011407","542397.730298","Mapping"
"Mixed","both","done","48","F_gnash.wav","space","454.472855199","324","538571.734211","530854.856477","531621.227585","532388.531468","533154.741496","533904.614812","534671.377024","535437.412369","539321.227863","540087.787257","540854.724769","541621.159876","542387.718342","543154.994399","543921.562759","530088.011407","543165.218757","Mapping"
"Mixed","both","done","48","M_lash.wav","None","719.641742297","324","538571.734211","530854.856477","531621.227585","532388.531468","533154.741496","533904.614812","534671.377024","535437.412369","539321.227863","540087.787257","540854.724769","541621.159876","542387.718342","543154.994399","543921.562759","544670.941398","543931.800102","Mapping"
"Mixed","both","done","48","F_done.wav","None","734.83358603","324","538571.734211","545437.749368","531621.227585","532388.531468","533154.741496","533904.614812","534671.377024","535437.412369","539321.227863","540087.787257","540854.724769","541621.159876","542387.718342","543154.994399","543921.562759","544670.941398","544680.594404","Mapping"
"Mixed","both","done","48","M_gnash.wav","space","444.161928724","324","538571.734211","545437.749368","546204.53384","532388.531468","533154.741496","533904.614812","534671.377024","535437.412369","539321.227863","540087.787257","540854.724769","541621.159876","542387.718342","543154.994399","543921.562759","544670.941398","545447.462971","Mapping"
"Mixed","both","done","48","M_cad.wav","None","728.092064615","324","538571.734211","545437.749368","546204.53384","546971.11333","533154.741496","533904.614812","534671.377024","535437.412369","539321.227863","540087.787257","540854.724769","541621.159876","542387.718342","543154.994399","543921.562759","544670.941398","546214.240332","Mapping"
"Mixed","both","done","48","F_depth.wav","None","724.618812557","324","538571.734211","545437.749368","546204.53384","546971.11333","547737.861938","533904.614812","534671.377024","535437.412369","539321.227863","540087.787257","540854.724769","541621.159876","542387.718342","543154.994399","543921.562759","544670.941398","546981.556891","Mapping"
"Mixed","both","done","48","M_gnash.wav","None","721.253152937","324","538571.734211","545437.749368","546204.53384","546971.11333","547737.861938","548504.944453","534671.377024","535437.412369","539321.227863","540087.787257","540854.724769","541621.159876","542387.718342","543154.994399","543921.562759","544670.941398","547748.87005","Mapping"
"Mixed","both","done","48","M_done.wav","None","711.741130333","324","538571.734211","545437.749368","546204.53384","546971.11333","547737.861938","548504.944453","549254.335459","535437.412369","539321.227863","540087.787257","540854.724769","541621.159876","542387.718342","543154.994399","543921.562759","544670.941398","548522.207757","Mapping"
"Mixed","both","done","48","F_dime.wav","space","411.534262821","324","538571.734211","545437.749368","546204.53384","546971.11333","547737.861938","548504.944453","549254.335459","550021.010483","539321.227863","540087.787257","540854.724769","541621.159876","542387.718342","543154.994399","543921.562759","544670.941398","549264.044115","Mapping"
"Mixed","both","ball","12","M_depth.wav","None","730.503306258","324","553154.908449","545437.749368","546204.53384","546971.11333","547737.861938","548504.944453","549254.335459","550021.010483","539321.227863","540087.787257","540854.724769","541621.159876","542387.718342","543154.994399","543921.562759","544670.941398","550030.469328","Mapping"
"Mixed","both","ball","12","F_knife.wav","None","719.945968594","324","553154.908449","545437.749368","546204.53384","546971.11333","547737.861938","548504.944453","549254.335459","550021.010483","553904.178259","540087.787257","540854.724769","541621.159876","542387.718342","543154.994399","543921.562759","544670.941398","553164.700583","Mapping"
"Mixed","both","ball","12","M_ball.wav","None","734.017986804","324","553154.908449","545437.749368","546204.53384","546971.11333","547737.861938","548504.944453","549254.335459","550021.010483","553904.178259","554670.976026","540854.724769","541621.159876","542387.718342","543154.994399","543921.562759","544670.941398","553914.428279","Mapping"
"Mixed","both","ball","12","M_romp.wav","space","514.975886326","324","553154.908449","545437.749368","546204.53384","546971.11333","547737.861938","548504.944453","549254.335459","550021.010483","553904.178259","554670.976026","555437.618278","541621.159876","542387.718342","543154.994399","543921.562759","544670.941398","554680.509691","Mapping"
"Mixed","both","ball","12","F_greet.wav","None","728.4742021","324","553154.908449","545437.749368","546204.53384","546971.11333","547737.861938","548504.944453","549254.335459","550021.010483","553904.178259","554670.976026","555437.618278","556204.068225","542387.718342","543154.994399","543921.562759","544670.941398","555447.252424","Mapping"
"Mixed","both","ball","12","F_ball.wav","None","726.393157616","324","553154.908449","545437.749368","546204.53384","546971.11333","547737.861938","548504.944453","549254.335459","550021.010483","553904.178259","554670.976026","555437.618278","556204.068225","556971.308418","543154.994399","543921.562759","544670.941398","556213.378976","Mapping"
"Mixed","both","ball","12","M_knife.wav","space","517.961571459","324","553154.908449","545437.749368","546204.53384","546971.11333","547737.861938","548504.944453","549254.335459","550021.010483","553904.178259","554670.976026","555437.618278","556204.068225","556971.308418","557738.038476","543921.562759","544670.941398","556981.46785","Mapping"
"Mixed","both","ball","12","M_ball.wav","None","717.671072576","324","553154.908449","545437.749368","546204.53384","546971.11333","547737.861938","548504.944453","549254.335459","550021.010483","553904.178259","554670.976026","555437.618278","556204.068225","556971.308418","557738.038476","558487.363937","544670.941398","557749.190971","Mapping"
"Mixed","both","ball","12","M_greet.wav","space","482.42118489","324","553154.908449","545437.749368","546204.53384","546971.11333","547737.861938","548504.944453","549254.335459","550021.010483","553904.178259","554670.976026","555437.618278","556204.068225","556971.308418","557738.038476","558487.363937","559254.326802","558496.974895","Mapping"
"Mixed","both","ball","12","F_cad.wav","None","729.889597278","324","553154.908449","560020.884959","546204.53384","546971.11333","547737.861938","548504.944453","549254.335459","550021.010483","553904.178259","554670.976026","555437.618278","556204.068225","556971.308418","557738.038476","558487.363937","559254.326802","559263.979498","Mapping"
"Mixed","both","ball","12","F_park.wav","None","727.930984925","324","553154.908449","560020.884959","560787.406634","546971.11333","547737.861938","548504.944453","549254.335459","550021.010483","553904.178259","554670.976026","555437.618278","556204.068225","556971.308418","557738.038476","558487.363937","559254.326802","560030.403474","Mapping"
"Mixed","both","ball","12","F_ball.wav","None","725.372577086","324","553154.908449","560020.884959","560787.406634","561554.6493","547737.861938","548504.944453","549254.335459","550021.010483","553904.178259","554670.976026","555437.618278","556204.068225","556971.308418","557738.038476","558487.363937","559254.326802","560797.047891","Mapping"
"Mixed","both","ball","12","M_cling.wav","space","414.060826413","324","553154.908449","560020.884959","560787.406634","561554.6493","562304.190564","548504.944453","549254.335459","550021.010483","553904.178259","554670.976026","555437.618278","556204.068225","556971.308418","557738.038476","558487.363937","559254.326802","561565.277747","Mapping"
"Mixed","both","ball","12","M_cling.wav","None","735.457187984","324","553154.908449","560020.884959","560787.406634","561554.6493","562304.190564","563070.83158","549254.335459","550021.010483","553904.178259","554670.976026","555437.618278","556204.068225","556971.308418","557738.038476","558487.363937","559254.326802","562314.025055","Mapping"
"Mixed","both","ball","12","F_greet.wav","None","733.092631679","324","553154.908449","560020.884959","560787.406634","561554.6493","562304.190564","563070.83158","563837.472905","550021.010483","553904.178259","554670.976026","555437.618278","556204.068225","556971.308418","557738.038476","558487.363937","559254.326802","563080.363081","Mapping"
"Mixed","both","ball","12","F_gnash.wav","None","730.335115921","324","553154.908449","560020.884959","560787.406634","561554.6493","562304.190564","563070.83158","563837.472905","564604.186886","553904.178259","554670.976026","555437.618278","556204.068225","556971.308418","557738.038476","558487.363937","559254.326802","563847.229484","Mapping"
"Mixed","both","ball","5","M_greet.wav","None","727.730950341","324","567737.765166","560020.884959","560787.406634","561554.6493","562304.190564","563070.83158","563837.472905","564604.186886","553904.178259","554670.976026","555437.618278","556204.068225","556971.308418","557738.038476","558487.363937","559254.326802","564613.852876","Mapping"
"Mixed","both","ball","5","F_ball.wav","None","718.037751969","324","567737.765166","560020.884959","560787.406634","561554.6493","562304.190564","563070.83158","563837.472905","564604.186886","568487.237485","554670.976026","555437.618278","556204.068225","556971.308418","557738.038476","558487.363937","559254.326802","567749.156035","Mapping"
"Mixed","both","ball","5","M_bluff.wav","space","369.998079725","324","567737.765166","560020.884959","560787.406634","561554.6493","562304.190564","563070.83158","563837.472905","564604.186886","568487.237485","569254.228176","555437.618278","556204.068225","556971.308418","557738.038476","558487.363937","559254.326802","568497.245422","Mapping"
"Mixed","both","ball","5","F_greet.wav","None","735.644856468","324","567737.765166","560020.884959","560787.406634","561554.6493","562304.190564","563070.83158","563837.472905","564604.186886","568487.237485","569254.228176","570020.690489","556204.068225","556971.308418","557738.038476","558487.363937","559254.326802","569258.540523","Mapping"
"Mixed","both","ball","5","M_cling.wav","None","728.115252685","324","567737.765166","560020.884959","560787.406634","561554.6493","562304.190564","563070.83158","563837.472905","564604.186886","568487.237485","569254.228176","570020.690489","570787.446517","556971.308418","557738.038476","558487.363937","559254.326802","570030.133257","Mapping"
"Mixed","both","ball","5","M_priest.wav","None","725.201604422","324","567737.765166","560020.884959","560787.406634","561554.6493","562304.190564","563070.83158","563837.472905","564604.186886","568487.237485","569254.228176","570020.690489","570787.446517","571554.474308","557738.038476","558487.363937","559254.326802","570797.157956","Mapping"
"Mixed","both","ball","5","F_reek.wav","None","722.178199328","324","567737.765166","560020.884959","560787.406634","561554.6493","562304.190564","563070.83158","563837.472905","564604.186886","568487.237485","569254.228176","570020.690489","570787.446517","571554.474308","572321.007423","558487.363937","559254.326802","571564.690937","Mapping"
"Mixed","both","ball","5","F_ball.wav","None","719.721199945","324","567737.765166","560020.884959","560787.406634","561554.6493","562304.190564","563070.83158","563837.472905","564604.186886","568487.237485","569254.228176","570020.690489","570787.446517","571554.474308","572321.007423","573070.384516","559254.326802","572331.252186","Mapping"
"Mixed","both","ball","5","F_priest.wav","space","347.081544343","324","567737.765166","560020.884959","560787.406634","561554.6493","562304.190564","563070.83158","563837.472905","564604.186886","568487.237485","569254.228176","570020.690489","570787.446517","571554.474308","572321.007423","573070.384516","573837.259575","573080.07184","Mapping"
"Mixed","both","ball","5","F_jaw.wav","None","731.149477884","324","567737.765166","574603.965208","560787.406634","561554.6493","562304.190564","563070.83158","563837.472905","564604.186886","568487.237485","569254.228176","570020.690489","570787.446517","571554.474308","572321.007423","573070.384516","573837.259575","573847.065004","Mapping"
"Mixed","both","ball","5","M_reek.wav","None","728.534800466","324","567737.765166","574603.965208","575370.567268","561554.6493","562304.190564","563070.83158","563837.472905","564604.186886","568487.237485","569254.228176","570020.690489","570787.446517","571554.474308","572321.007423","573070.384516","573837.259575","574613.708802","Mapping"
"Mixed","both","ball","5","M_lash.wav","None","726.114592515","324","567737.765166","574603.965208","575370.567268","576137.503853","562304.190564","563070.83158","563837.472905","564604.186886","568487.237485","569254.228176","570020.690489","570787.446517","571554.474308","572321.007423","573070.384516","573837.259575","575380.209452","Mapping"
"Mixed","both","ball","5","M_ball.wav","None","723.516610451","324","567737.765166","574603.965208","575370.567268","576137.503853","576904.434873","563070.83158","563837.472905","564604.186886","568487.237485","569254.228176","570020.690489","570787.446517","571554.474308","572321.007423","573070.384516","573837.259575","576147.021441","Mapping"
"Mixed","both","ball","5","F_jolt.wav","space","424.483363982","324","567737.765166","574603.965208","575370.567268","576137.503853","576904.434873","577653.783832","563837.472905","564604.186886","568487.237485","569254.228176","570020.690489","570787.446517","571554.474308","572321.007423","573070.384516","573837.259575","576914.626149","Mapping"
"Mixed","both","ball","5","M_ball.wav","None","734.10641076","324","567737.765166","574603.965208","575370.567268","576137.503853","576904.434873","577653.783832","578420.482045","564604.186886","568487.237485","569254.228176","570020.690489","570787.446517","571554.474308","572321.007423","573070.384516","573837.259575","577663.600699","Mapping"
"Mixed","both","ball","5","F_jaw.wav","space","572.301544249","324","567737.765166","574603.965208","575370.567268","576137.503853","576904.434873","577653.783832","578420.482045","579186.969092","568487.237485","569254.228176","570020.690489","570787.446517","571554.474308","572321.007423","573070.384516","573837.259575","578430.766073","Mapping"
"Mixed","both","tile","31","F_reek.wav","None","727.954482194","324","582320.867367","574603.965208","575370.567268","576137.503853","576904.434873","577653.783832","578420.482045","579186.969092","568487.237485","569254.228176","570020.690489","570787.446517","571554.474308","572321.007423","573070.384516","573837.259575","579197.075036","Mapping"
"Mixed","both","tile","31","F_tile.wav","None","719.377708156","324","582320.867367","574603.965208","575370.567268","576137.503853","576904.434873","577653.783832","578420.482045","579186.969092","583070.207978","569254.228176","570020.690489","570787.446517","571554.474308","572321.007423","573070.384516","573837.259575","582330.781624","Mapping"
"Mixed","both","tile","31","F_dime.wav","space","459.049236961","324","582320.867367","574603.965208","575370.567268","576137.503853","576904.434873","577653.783832","578420.482045","579186.969092","583070.207978","583836.970808","570020.690489","570787.446517","571554.474308","572321.007423","573070.384516","573837.259575","583079.910142","Mapping"
"Mixed","both","tile","31","F_dime.wav","None","731.143294368","324","582320.867367","574603.965208","575370.567268","576137.503853","576904.434873","577653.783832","578420.482045","579186.969092","583070.207978","583836.970808","584603.791144","570787.446517","571554.474308","572321.007423","573070.384516","573837.259575","583846.481594","Mapping"
"Mixed","both","tile","31","M_gnash.wav","None","728.36939292","324","582320.867367","574603.965208","575370.567268","576137.503853","576904.434873","577653.783832","578420.482045","579186.969092","583070.207978","583836.970808","584603.791144","585370.464932","571554.474308","572321.007423","573070.384516","573837.259575","584613.430546","Mapping"
"Mixed","both","tile","31","M_reek.wav","space","374.572297093","324","582320.867367","574603.965208","575370.567268","576137.503853","576904.434873","577653.783832","578420.482045","579186.969092","583070.207978","583836.970808","584603.791144","585370.464932","586137.235491","572321.007423","573070.384516","573837.259575","585380.369605","Mapping"
"Mixed","both","tile","31","F_romp.wav","None","721.38517024","324","582320.867367","574603.965208","575370.567268","576137.503853","576904.434873","577653.783832","578420.482045","579186.969092","583070.207978","583836.970808","584603.791144","585370.464932","586137.235491","586904.201138","573070.384516","573837.259575","586147.801794","Mapping"
"Mixed","both","tile","31","M_knife.wav","None","719.278463628","324","582320.867367","574603.965208","575370.567268","576137.503853","576904.434873","577653.783832","578420.482045","579186.969092","583070.207978","583836.970808","584603.791144","585370.464932","586137.235491","586904.201138","587653.518252","573837.259575","586914.355932","Mapping"
"Mixed","both","tile","31","M_jolt.wav","None","734.820600599","324","582320.867367","574603.965208","575370.567268","576137.503853","576904.434873","577653.783832","578420.482045","579186.969092","583070.207978","583836.970808","584603.791144","585370.464932","586137.235491","586904.201138","587653.518252","588420.349719","587663.433128","Mapping"
"Mixed","both","tile","31","M_dime.wav","None","732.487270609","324","582320.867367","589186.988261","575370.567268","576137.503853","576904.434873","577653.783832","578420.482045","579186.969092","583070.207978","583836.970808","584603.791144","585370.464932","586137.235491","586904.201138","587653.518252","588420.349719","588429.911518","Mapping"
"Mixed","both","tile","31","F_tile.wav","None","729.822197929","324","582320.867367","589186.988261","589953.69884","576137.503853","576904.434873","577653.783832","578420.482045","579186.969092","583070.207978","583836.970808","584603.791144","585370.464932","586137.235491","586904.201138","587653.518252","588420.349719","589196.810075","Mapping"
"Mixed","both","tile","31","M_romp.wav","space","487.309521995","324","582320.867367","589186.988261","589953.69884","590720.692622","576904.434873","577653.783832","578420.482045","579186.969092","583070.207978","583836.970808","584603.791144","585370.464932","586137.235491","586904.201138","587653.518252","588420.349719","589963.542606","Mapping"
"Mixed","both","tile","31","M_tile.wav","None","722.599911503","324","582320.867367","589186.988261","589953.69884","590720.692622","591487.321271","577653.783832","578420.482045","579186.969092","583070.207978","583836.970808","584603.791144","585370.464932","586137.235491","586904.201138","587653.518252","588420.349719","590731.382904","Mapping"
"Mixed","both","tile","31","F_cling.wav","space","521.090095397","324","582320.867367","589186.988261","589953.69884","590720.692622","591487.321271","592236.771639","578420.482045","579186.969092","583070.207978","583836.970808","584603.791144","585370.464932","586137.235491","586904.201138","587653.518252","588420.349719","591497.772562","Mapping"
"Mixed","both","tile","31","M_tile.wav","None","740.437659435","324","582320.867367","589186.988261","589953.69884","590720.692622","591487.321271","592236.771639","593003.062052","579186.969092","583070.207978","583836.970808","584603.791144","585370.464932","586137.235491","586904.201138","587653.518252","588420.349719","592241.2361","Mapping"
"Mixed","both","tile","31","F_park.wav","space","542.284536641","324","582320.867367","589186.988261","589953.69884","590720.692622","591487.321271","592236.771639","593003.062052","593770.279675","583070.207978","583836.970808","584603.791144","585370.464932","586137.235491","586904.201138","587653.518252","588420.349719","593012.52708","Mapping"
"Mixed","both","cave","21","F_jaw.wav","None","729.043699801","324","596904.056445","589186.988261","589953.69884","590720.692622","591487.321271","592236.771639","593003.062052","593770.279675","583070.207978","583836.970808","584603.791144","585370.464932","586137.235491","586904.201138","587653.518252","588420.349719","593780.127769","Mapping"
"Mixed","both","cave","21","F_cave.wav","None","718.794298824","324","596904.056445","589186.988261","589953.69884","590720.692622","591487.321271","592236.771639","593003.062052","593770.279675","597653.41035","583836.970808","584603.791144","585370.464932","586137.235491","586904.201138","587653.518252","588420.349719","596914.508664","Mapping"
"Mixed","both","cave","21","F_cling.wav","space","515.477056149","324","596904.056445","589186.988261","589953.69884","590720.692622","591487.321271","592236.771639","593003.062052","593770.279675","597653.41035","598420.219866","584603.791144","585370.464932","586137.235491","586904.201138","587653.518252","588420.349719","597663.212378","Mapping"
"Mixed","both","cave","21","M_cave.wav","None","730.662221089","324","596904.056445","589186.988261","589953.69884","590720.692622","591487.321271","592236.771639","593003.062052","593770.279675","597653.41035","598420.219866","599186.769366","585370.464932","586137.235491","586904.201138","587653.518252","588420.349719","598430.169677","Mapping"
"Mixed","both","cave","21","M_jaw.wav","space","501.603835728","324","596904.056445","589186.988261","589953.69884","590720.692622","591487.321271","592236.771639","593003.062052","593770.279675","597653.41035","598420.219866","599186.769366","599953.507153","586137.235491","586904.201138","587653.518252","588420.349719","599197.080911","Mapping"
"Mixed","both","cave","21","F_jolt.wav","None","725.012389943","324","596904.056445","589186.988261","589953.69884","590720.692622","591487.321271","592236.771639","593003.062052","593770.279675","597653.41035","598420.219866","599186.769366","599953.507153","600720.479911","586904.201138","587653.518252","588420.349719","599963.056894","Mapping"
"Mixed","both","cave","21","F_reek.wav","None","721.750612836","324","596904.056445","589186.988261","589953.69884","590720.692622","591487.321271","592236.771639","593003.062052","593770.279675","597653.41035","598420.219866","599186.769366","599953.507153","600720.479911","601487.052599","587653.518252","588420.349719","600730.58431","Mapping"
"Mixed","both","cave","21","F_romp.wav","None","719.790763687","324","596904.056445","589186.988261","589953.69884","590720.692622","591487.321271","592236.771639","593003.062052","593770.279675","597653.41035","598420.219866","599186.769366","599953.507153","600720.479911","601487.052599","602236.60623","588420.349719","601496.852153","Mapping"
"Mixed","both","cave","21","F_cad.wav","None","733.958934899","324","596904.056445","589186.988261","589953.69884","590720.692622","591487.321271","592236.771639","593003.062052","593770.279675","597653.41035","598420.219866","599186.769366","599953.507153","600720.479911","601487.052599","602236.60623","603003.232406","602246.978682","Mapping"
"Mixed","both","cave","21","M_romp.wav","None","732.252608053","324","596904.056445","603770.057071","589953.69884","590720.692622","591487.321271","592236.771639","593003.062052","593770.279675","597653.41035","598420.219866","599186.769366","599953.507153","600720.479911","601487.052599","602236.60623","603003.232406","603012.899324","Mapping"
"Mixed","both","cave","21","M_cave.wav","None","729.581351392","324","596904.056445","603770.057071","604536.510109","590720.692622","591487.321271","592236.771639","593003.062052","593770.279675","597653.41035","598420.219866","599186.769366","599953.507153","600720.479911","601487.052599","602236.60623","603003.232406","603779.741612","Mapping"
"Mixed","both","cave","21","M_dime.wav","space","568.98968108","324","596904.056445","603770.057071","604536.510109","605303.817393","591487.321271","592236.771639","593003.062052","593770.279675","597653.41035","598420.219866","599186.769366","599953.507153","600720.479911","601487.052599","602236.60623","603003.232406","604545.622989","Mapping"
"Mixed","both","cave","21","F_cave.wav","None","722.552917432","324","596904.056445","603770.057071","604536.510109","605303.817393","606070.490253","592236.771639","593003.062052","593770.279675","597653.41035","598420.219866","599186.769366","599953.507153","600720.479911","601487.052599","602236.60623","603003.232406","605314.09431","Mapping"
"Mixed","both","cave","21","M_lash.wav","space","530.087962747","324","596904.056445","603770.057071","604536.510109","605303.817393","606070.490253","606819.819424","593003.062052","593770.279675","597653.41035","598420.219866","599186.769366","599953.507153","600720.479911","601487.052599","602236.60623","603003.232406","606080.451814","Mapping"
"Mixed","both","cave","21","M_gnash.wav","None","734.431969933","324","596904.056445","603770.057071","604536.510109","605303.817393","606070.490253","606819.819424","607586.594621","593770.279675","597653.41035","598420.219866","599186.769366","599953.507153","600720.479911","601487.052599","602236.60623","603003.232406","606829.580332","Mapping"
"Mixed","both","cave","21","M_romp.wav","None","731.965386309","324","596904.056445","603770.057071","604536.510109","605303.817393","606070.490253","606819.819424","607586.594621","608353.48854","597653.41035","598420.219866","599186.769366","599953.507153","600720.479911","601487.052599","602236.60623","603003.232406","607596.697474","Mapping"
"Mixed","both","tile","29","F_greet.wav","None","729.73964829","324","611486.870187","603770.057071","604536.510109","605303.817393","606070.490253","606819.819424","607586.594621","608353.48854","597653.41035","598420.219866","599186.769366","599953.507153","600720.479911","601487.052599","602236.60623","603003.232406","608363.100426","Mapping"
"Mixed","both","tile","29","M_tile.wav","None","719.698939472","324","611486.870187","603770.057071","604536.510109","605303.817393","606070.490253","606819.819424","607586.594621","608353.48854","612236.494619","598420.219866","599186.769366","599953.507153","600720.479911","601487.052599","602236.60623","603003.232406","611496.994064","Mapping"
"Mixed","both","tile","29","F_cad.wav","space","484.094739426","324","611486.870187","603770.057071","604536.510109","605303.817393","606070.490253","606819.819424","607586.594621","608353.48854","612236.494619","613003.416364","599186.769366","599953.507153","600720.479911","601487.052599","602236.60623","603003.232406","612246.382906","Mapping"
"Mixed","both","tile","29","M_greet.wav","None","731.285205577","324","611486.870187","603770.057071","604536.510109","605303.817393","606070.490253","606819.819424","607586.594621","608353.48854","612236.494619","613003.416364","613769.908049","599953.507153","600720.479911","601487.052599","602236.60623","603003.232406","613013.115127","Mapping"
"Mixed","both","tile","29","F_tile.wav","None","729.28330861","324","611486.870187","603770.057071","604536.510109","605303.817393","606070.490253","606819.819424","607586.594621","608353.48854","612236.494619","613003.416364","613769.908049","614536.418284","600720.479911","601487.052599","602236.60623","603003.232406","613779.569712","Mapping"
"Mixed","both","tile","29","F_priest.wav","space","544.315185864","324","611486.870187","603770.057071","604536.510109","605303.817393","606070.490253","606819.819424","607586.594621","608353.48854","612236.494619","613003.416364","613769.908049","614536.418284","615303.679192","601487.052599","602236.60623","603003.232406","614546.070672","Mapping"
"Mixed","both","tile","29","M_tile.wav","None","722.181291319","324","611486.870187","603770.057071","604536.510109","605303.817393","606070.490253","606819.819424","607586.594621","608353.48854","612236.494619","613003.416364","613769.908049","614536.418284","615303.679192","616070.045353","602236.60623","603003.232406","615314.221071","Mapping"
"Mixed","both","tile","29","F_bluff.wav","space","657.866773196","324","611486.870187","603770.057071","604536.510109","605303.817393","606070.490253","606819.819424","607586.594621","608353.48854","612236.494619","613003.416364","613769.908049","614536.418284","615303.679192","616070.045353","616819.819115","603003.232406","616080.511484","Mapping"
"Mixed","both","tile","29","M_priest.wav","None","734.120014124","324","611486.870187","603770.057071","604536.510109","605303.817393","606070.490253","606819.819424","607586.594621","608353.48854","612236.494619","613003.416364","613769.908049","614536.418284","615303.679192","616070.045353","616819.819115","617586.537733","616829.785623","Mapping"
"Mixed","both","tile","29","F_cling.wav","None","731.822857633","324","611486.870187","618353.348485","604536.510109","605303.817393","606070.490253","606819.819424","607586.594621","608353.48854","612236.494619","613003.416364","613769.908049","614536.418284","615303.679192","616070.045353","616819.819115","617586.537733","617596.490328","Mapping"
"Mixed","both","tile","29","F_depth.wav","None","729.858679697","324","611486.870187","618353.348485","619119.920864","605303.817393","606070.490253","606819.819424","607586.594621","608353.48854","612236.494619","613003.416364","613769.908049","614536.418284","615303.679192","616070.045353","616819.819115","617586.537733","618362.805784","Mapping"
"Mixed","both","tile","29","M_lash.wav","None","727.323459927","324","611486.870187","618353.348485","619119.920864","619886.374212","606070.490253","606819.819424","607586.594621","608353.48854","612236.494619","613003.416364","613769.908049","614536.418284","615303.679192","616070.045353","616819.819115","617586.537733","619129.672805","Mapping"
"Mixed","both","tile","29","M_dime.wav","None","725.077625364","324","611486.870187","618353.348485","619119.920864","619886.374212","620653.295647","606819.819424","607586.594621","608353.48854","612236.494619","613003.416364","613769.908049","614536.418284","615303.679192","616070.045353","616819.819115","617586.537733","619896.48603","Mapping"
"Mixed","both","tile","29","F_tile.wav","None","723.212074954","324","611486.870187","618353.348485","619119.920864","619886.374212","620653.295647","621420.324057","607586.594621","608353.48854","612236.494619","613003.416364","613769.908049","614536.418284","615303.679192","616070.045353","616819.819115","617586.537733","620663.212068","Mapping"
"Mixed","both","tile","29","M_cad.wav","space","443.922628649","324","611486.870187","618353.348485","619119.920864","619886.374212","620653.295647","621420.324057","622169.638079","608353.48854","612236.494619","613003.416364","613769.908049","614536.418284","615303.679192","616070.045353","616819.819115","617586.537733","621430.345906","Mapping"
"Mixed","both","tile","29","M_priest.wav","None","734.810088761","324","611486.870187","618353.348485","619119.920864","619886.374212","620653.295647","621420.324057","622169.638079","622936.30692","612236.494619","613003.416364","613769.908049","614536.418284","615303.679192","616070.045353","616819.819115","617586.537733","622179.295104","Mapping"
"Mixed","both","cave","17","M_reek.wav","None","732.729044277","324","626069.997431","618353.348485","619119.920864","619886.374212","620653.295647","621420.324057","622169.638079","622936.30692","612236.494619","613003.416364","613769.908049","614536.418284","615303.679192","616070.045353","616819.819115","617586.537733","622945.947868","Mapping"
"Mixed","both","cave","17","F_cave.wav","None","719.484373461","324","626069.997431","618353.348485","619119.920864","619886.374212","620653.295647","621420.324057","622169.638079","622936.30692","626819.379471","613003.416364","613769.908049","614536.418284","615303.679192","616070.045353","616819.819115","617586.537733","626079.796366","Mapping"
"Mixed","both","cave","17","F_gnash.wav","space","388.641224243","324","626069.997431","618353.348485","619119.920864","619886.374212","620653.295647","621420.324057","622169.638079","622936.30692","626819.379471","627586.343572","613769.908049","614536.418284","615303.679192","616070.045353","616819.819115","617586.537733","626829.548487","Mapping"
"Mixed","both","cave","17","M_cave.wav","None","730.878642295","324","626069.997431","618353.348485","619119.920864","619886.374212","620653.295647","621420.324057","622169.638079","622936.30692","626819.379471","627586.343572","628353.05106","614536.418284","615303.679192","616070.045353","616819.819115","617586.537733","627596.103861","Mapping"
"Mixed","both","cave","17","F_jolt.wav","space","495.032668579","324","626069.997431","618353.348485","619119.920864","619886.374212","620653.295647","621420.324057","622169.638079","622936.30692","626819.379471","627586.343572","628353.05106","629119.688675","615303.679192","616070.045353","616819.819115","617586.537733","628363.11032","Mapping"
"Mixed","both","cave","17","M_cave.wav","None","724.757631309","324","626069.997431","618353.348485","619119.920864","619886.374212","620653.295647","621420.324057","622169.638079","622936.30692","626819.379471","627586.343572","628353.05106","629119.688675","629886.397709","616070.045353","616819.819115","617586.537733","629129.778543","Mapping"
"Mixed","both","cave","17","M_reek.wav","space","369.837928098","324","626069.997431","618353.348485","619119.920864","619886.374212","620653.295647","621420.324057","622169.638079","622936.30692","626819.379471","627586.343572","628353.05106","629119.688675","629886.397709","630652.562907","616819.819115","617586.537733","629896.298362","Mapping"
"Mixed","both","cave","17","M_jaw.wav","None","725.048872642","324","626069.997431","618353.348485","619119.920864","619886.374212","620653.295647","621420.324057","622169.638079","622936.30692","626819.379471","627586.343572","628353.05106","629119.688675","629886.397709","630652.562907","631419.968508","617586.537733","630661.74566","Mapping"
"Mixed","both","cave","17","F_lash.wav","None","721.254080534","324","626069.997431","618353.348485","619119.920864","619886.374212","620653.295647","621420.324057","622169.638079","622936.30692","626819.379471","627586.343572","628353.05106","629119.688675","629886.397709","630652.562907","631419.968508","632186.501004","631430.016018","Mapping"
"Mixed","both","cave","17","F_cave.wav","None","719.305052888","324","626069.997431","632936.114305","619119.920864","619886.374212","620653.295647","621420.324057","622169.638079","622936.30692","626819.379471","627586.343572","628353.05106","629119.688675","629886.397709","630652.562907","631419.968508","632186.501004","632196.394855","Mapping"
"Mixed","both","cave","17","F_greet.wav","space","447.083615698","324","626069.997431","632936.114305","633702.687612","619886.374212","620653.295647","621420.324057","622169.638079","622936.30692","626819.379471","627586.343572","628353.05106","629119.688675","629886.397709","630652.562907","631419.968508","632186.501004","632946.999057","Mapping"
"Mixed","both","cave","17","F_park.wav","None","731.243157294","324","626069.997431","632936.114305","633702.687612","634469.39139","620653.295647","621420.324057","622169.638079","622936.30692","626819.379471","627586.343572","628353.05106","629119.688675","629886.397709","630652.562907","631419.968508","632186.501004","633712.157896","Mapping"
"Mixed","both","cave","17","M_knife.wav","None","728.987429757","324","626069.997431","632936.114305","633702.687612","634469.39139","635235.977991","621420.324057","622169.638079","622936.30692","626819.379471","627586.343572","628353.05106","629119.688675","629886.397709","630652.562907","631419.968508","632186.501004","634478.843124","Mapping"
"Mixed","both","cave","17","F_park.wav","None","727.024489548","324","626069.997431","632936.114305","633702.687612","634469.39139","635235.977991","636002.650233","622169.638079","622936.30692","626819.379471","627586.343572","628353.05106","629119.688675","629886.397709","630652.562907","631419.968508","632186.501004","635245.302964","Mapping"
"Mixed","both","cave","17","M_cling.wav","None","724.918092135","324","626069.997431","632936.114305","633702.687612","634469.39139","635235.977991","636002.650233","636769.860745","622936.30692","626819.379471","627586.343572","628353.05106","629119.688675","629886.397709","630652.562907","631419.968508","632186.501004","636011.88369","Mapping"
"Mixed","both","cave","17","M_greet.wav","None","721.570364665","324","626069.997431","632936.114305","633702.687612","634469.39139","635235.977991","636002.650233","636769.860745","637536.641507","626819.379471","627586.343572","628353.05106","629119.688675","629886.397709","630652.562907","631419.968508","632186.501004","636780.021414","Mapping"
"Mixed","both","tile","35","M_bluff.wav","None","719.259295147","324","640653.226702","632936.114305","633702.687612","634469.39139","635235.977991","636002.650233","636769.860745","637536.641507","626819.379471","627586.343572","628353.05106","629119.688675","629886.397709","630652.562907","631419.968508","632186.501004","637546.766621","Mapping"
"Mixed","both","tile","35","F_tile.wav","None","719.044729136","324","640653.226702","632936.114305","633702.687612","634469.39139","635235.977991","636002.650233","636769.860745","637536.641507","641402.572569","627586.343572","628353.05106","629119.688675","629886.397709","630652.562907","631419.968508","632186.501004","640664.113308","Mapping"
"Mixed","both","tile","35","M_park.wav","space","389.438581653","324","640653.226702","632936.114305","633702.687612","634469.39139","635235.977991","636002.650233","636769.860745","637536.641507","641402.572569","642169.348384","628353.05106","629119.688675","629886.397709","630652.562907","631419.968508","632186.501004","641412.523617","Mapping"
"Mixed","both","tile","35","F_tile.wav","None","731.715573929","324","640653.226702","632936.114305","633702.687612","634469.39139","635235.977991","636002.650233","636769.860745","637536.641507","641402.572569","642169.348384","642935.94426","629119.688675","629886.397709","630652.562907","631419.968508","632186.501004","642179.077446","Mapping"
"Mixed","both","tile","35","F_gnash.wav","space","376.372304279","324","640653.226702","632936.114305","633702.687612","634469.39139","635235.977991","636002.650233","636769.860745","637536.641507","641402.572569","642169.348384","642935.94426","643702.86044","629886.397709","630652.562907","631419.968508","632186.501004","642945.519354","Mapping"
"Mixed","both","tile","35","M_bluff.wav","None","725.814076141","324","640653.226702","632936.114305","633702.687612","634469.39139","635235.977991","636002.650233","636769.860745","637536.641507","641402.572569","642169.348384","642935.94426","643702.86044","644469.734263","630652.562907","631419.968508","632186.501004","643712.652264","Mapping"
"Mixed","both","tile","35","M_tile.wav","None","723.162606824","324","640653.226702","632936.114305","633702.687612","634469.39139","635235.977991","636002.650233","636769.860745","637536.641507","641402.572569","642169.348384","642935.94426","643702.86044","644469.734263","645236.346834","631419.968508","632186.501004","644479.899259","Mapping"
"Mixed","both","tile","35","F_lash.wav","space","451.371538918","324","640653.226702","632936.114305","633702.687612","634469.39139","635235.977991","636002.650233","636769.860745","637536.641507","641402.572569","642169.348384","642935.94426","643702.86044","644469.734263","645236.346834","645985.70074","632186.501004","645246.453088","Mapping"
"Mixed","both","tile","35","M_cad.wav","None","735.373711679","324","640653.226702","632936.114305","633702.687612","634469.39139","635235.977991","636002.650233","636769.860745","637536.641507","641402.572569","642169.348384","642935.94426","643702.86044","644469.734263","645236.346834","645985.70074","646752.611354","645995.53523","Mapping"
"Mixed","both","tile","35","F_priest.wav","None","733.04130882","324","640653.226702","647519.225162","633702.687612","634469.39139","635235.977991","636002.650233","636769.860745","637536.641507","641402.572569","642169.348384","642935.94426","643702.86044","644469.734263","645236.346834","645985.70074","646752.611354","646762.494385","Mapping"
"Mixed","both","tile","35","F_greet.wav","None","731.219969224","324","640653.226702","647519.225162","648285.85412","634469.39139","635235.977991","636002.650233","636769.860745","637536.641507","641402.572569","642169.348384","642935.94426","643702.86044","644469.734263","645236.346834","645985.70074","646752.611354","647529.254123","Mapping"
"Mixed","both","tile","35","F_dime.wav","None","729.303095955","324","640653.226702","647519.225162","648285.85412","649052.774938","635235.977991","636002.650233","636769.860745","637536.641507","641402.572569","642169.348384","642935.94426","643702.86044","644469.734263","645236.346834","645985.70074","646752.611354","648295.902249","Mapping"
"Mixed","both","tile","35","M_tile.wav","None","727.669734042","324","640653.226702","647519.225162","648285.85412","649052.774938","649819.195822","636002.650233","636769.860745","637536.641507","641402.572569","642169.348384","642935.94426","643702.86044","644469.734263","645236.346834","645985.70074","646752.611354","649062.263154","Mapping"
"Mixed","both","tile","35","M_cling.wav","space","500.869549811","324","640653.226702","647519.225162","648285.85412","649052.774938","649819.195822","650585.934537","636769.860745","637536.641507","641402.572569","642169.348384","642935.94426","643702.86044","644469.734263","645236.346834","645985.70074","646752.611354","649828.927048","Mapping"
"Mixed","both","tile","35","M_knife.wav","None","722.049892414","324","640653.226702","647519.225162","648285.85412","649052.774938","649819.195822","650585.934537","651353.067447","637536.641507","641402.572569","642169.348384","642935.94426","643702.86044","644469.734263","645236.346834","645985.70074","646752.611354","650595.691424","Mapping"
"Mixed","both","tile","35","F_romp.wav","None","718.720715493","324","640653.226702","647519.225162","648285.85412","649052.774938","649819.195822","650585.934537","651353.067447","652102.17896","641402.572569","642169.348384","642935.94426","643702.86044","644469.734263","645236.346834","645985.70074","646752.611354","651363.701459","Mapping"
"Mixed","both","done","45","M_lash.wav","None","735.54561194","324","655236.103824","647519.225162","648285.85412","649052.774938","649819.195822","650585.934537","651353.067447","652102.17896","641402.572569","642169.348384","642935.94426","643702.86044","644469.734263","645236.346834","645985.70074","646752.611354","652111.702422","Mapping"
"Mixed","both","done","45","M_greet.wav","None","720.258233603","324","655236.103824","647519.225162","648285.85412","649052.774938","649819.195822","650585.934537","651353.067447","652102.17896","655985.598713","642169.348384","642935.94426","643702.86044","644469.734263","645236.346834","645985.70074","646752.611354","655245.595442","Mapping"
"Mixed","both","done","45","M_done.wav","None","735.304147471","324","655236.103824","647519.225162","648285.85412","649052.774938","649819.195822","650585.934537","651353.067447","652102.17896","655985.598713","656752.582601","642935.94426","643702.86044","644469.734263","645236.346834","645985.70074","646752.611354","655995.282017","Mapping"
"Mixed","both","done","45","F_romp.wav","space","517.082592472","324","655236.103824","647519.225162","648285.85412","649052.774938","649819.195822","650585.934537","651353.067447","652102.17896","655985.598713","656752.582601","657519.045842","643702.86044","644469.734263","645236.346834","645985.70074","646752.611354","656756.615456","Mapping"
"Mixed","both","done","45","F_jolt.wav","None","729.952668771","324","655236.103824","647519.225162","648285.85412","649052.774938","649819.195822","650585.934537","651353.067447","652102.17896","655985.598713","656752.582601","657519.045842","658285.65625","644469.734263","645236.346834","645985.70074","646752.611354","657528.575179","Mapping"
"Mixed","both","done","45","M_reek.wav","None","727.399516385","324","655236.103824","647519.225162","648285.85412","649052.774938","649819.195822","650585.934537","651353.067447","652102.17896","655985.598713","656752.582601","657519.045842","658285.65625","659052.552951","645236.346834","645985.70074","646752.611354","658295.653674","Mapping"
"Mixed","both","done","45","F_cad.wav","None","725.512941834","324","655236.103824","647519.225162","648285.85412","649052.774938","649819.195822","650585.934537","651353.067447","652102.17896","655985.598713","656752.582601","657519.045842","658285.65625","659052.552951","659819.236015","645985.70074","646752.611354","659062.197609","Mapping"
"Mixed","both","done","45","M_knife.wav","None","722.231686115","324","655236.103824","647519.225162","648285.85412","649052.774938","649819.195822","650585.934537","651353.067447","652102.17896","655985.598713","656752.582601","657519.045842","658285.65625","659052.552951","659819.236015","660586.005955","646752.611354","659830.024923","Mapping"
"Mixed","both","done","45","M_cling.wav","None","720.265653916","324","655236.103824","647519.225162","648285.85412","649052.774938","649819.195822","650585.934537","651353.067447","652102.17896","655985.598713","656752.582601","657519.045842","658285.65625","659052.552951","659819.236015","660586.005955","661352.549891","660596.490637","Mapping"
"Mixed","both","done","45","M_done.wav","None","719.0335989","324","655236.103824","662102.298301","648285.85412","649052.774938","649819.195822","650585.934537","651353.067447","652102.17896","655985.598713","656752.582601","657519.045842","658285.65625","659052.552951","659819.236015","660586.005955","661352.549891","661362.482389","Mapping"
"Mixed","both","done","45","F_park.wav","space","473.256054334","324","655236.103824","662102.298301","662868.749175","649052.774938","649819.195822","650585.934537","651353.067447","652102.17896","655985.598713","656752.582601","657519.045842","658285.65625","659052.552951","659819.236015","660586.005955","661352.549891","662112.261408","Mapping"
"Mixed","both","done","45","F_cling.wav","None","731.48431303","324","655236.103824","662102.298301","662868.749175","663635.600429","649819.195822","650585.934537","651353.067447","652102.17896","655985.598713","656752.582601","657519.045842","658285.65625","659052.552951","659819.236015","660586.005955","661352.549891","662877.985106","Mapping"
"Mixed","both","done","45","F_done.wav","None","728.89127722","324","655236.103824","662102.298301","662868.749175","663635.600429","664402.286583","650585.934537","651353.067447","652102.17896","655985.598713","656752.582601","657519.045842","658285.65625","659052.552951","659819.236015","660586.005955","661352.549891","663645.182324","Mapping"
"Mixed","both","done","45","F_bluff.wav","space","460.791427642","324","655236.103824","662102.298301","662868.749175","663635.600429","664402.286583","665169.373117","651353.067447","652102.17896","655985.598713","656752.582601","657519.045842","658285.65625","659052.552951","659819.236015","660586.005955","661352.549891","664412.730454","Mapping"
"Mixed","both","done","45","F_done.wav","None","721.012925263","324","655236.103824","662102.298301","662868.749175","663635.600429","664402.286583","665169.373117","665935.926019","652102.17896","655985.598713","656752.582601","657519.045842","658285.65625","659052.552951","659819.236015","660586.005955","661352.549891","665180.602288","Mapping"
"Mixed","both","done","45","M_depth.wav","space","535.055448767","324","655236.103824","662102.298301","662868.749175","663635.600429","664402.286583","665169.373117","665935.926019","666685.191191","655985.598713","656752.582601","657519.045842","658285.65625","659052.552951","659819.236015","660586.005955","661352.549891","665946.41441","Mapping"
"Mixed","both","done","42","F_cling.wav","None","734.636024106","324","669819.279608","662102.298301","662868.749175","663635.600429","664402.286583","665169.373117","665935.926019","666685.191191","655985.598713","656752.582601","657519.045842","658285.65625","659052.552951","659819.236015","660586.005955","661352.549891","666694.556048","Mapping"
"Mixed","both","done","42","F_greet.wav","None","719.568777829","324","669819.279608","662102.298301","662868.749175","663635.600429","664402.286583","665169.373117","665935.926019","666685.191191","670568.503042","656752.582601","657519.045842","658285.65625","659052.552951","659819.236015","660586.005955","661352.549891","669829.075761","Mapping"
"Mixed","both","done","42","F_jolt.wav","None","735.238602851","324","669819.279608","662102.298301","662868.749175","663635.600429","664402.286583","665169.373117","665935.926019","666685.191191","670568.503042","671335.441791","657519.045842","658285.65625","659052.552951","659819.236015","660586.005955","661352.549891","670577.925714","Mapping"
"Mixed","both","done","42","M_depth.wav","None","732.781912666","324","669819.279608","662102.298301","662868.749175","663635.600429","664402.286583","665169.373117","665935.926019","666685.191191","670568.503042","671335.441791","672102.271403","658285.65625","659052.552951","659819.236015","660586.005955","661352.549891","671345.149521","Mapping"
"Mixed","both","done","42","M_done.wav","None","729.162731208","324","669819.279608","662102.298301","662868.749175","663635.600429","664402.286583","665169.373117","665935.926019","666685.191191","670568.503042","671335.441791","672102.271403","672868.835125","659052.552951","659819.236015","660586.005955","661352.549891","672113.51294","Mapping"
"Mixed","both","done","42","M_bluff.wav","space","554.530268535","324","669819.279608","662102.298301","662868.749175","663635.600429","664402.286583","665169.373117","665935.926019","666685.191191","670568.503042","671335.441791","672102.271403","672868.835125","673635.283526","659819.236015","660586.005955","661352.549891","672878.846154","Mapping"
"Mixed","both","done","42","F_dime.wav","None","726.180755533","324","669819.279608","662102.298301","662868.749175","663635.600429","664402.286583","665169.373117","665935.926019","666685.191191","670568.503042","671335.441791","672102.271403","672868.835125","673635.283526","674402.418291","660586.005955","661352.549891","673644.527495","Mapping"
"Mixed","both","done","42","F_done.wav","None","723.372844979","324","669819.279608","662102.298301","662868.749175","663635.600429","664402.286583","665169.373117","665935.926019","666685.191191","670568.503042","671335.441791","672102.271403","672868.835125","673635.283526","674402.418291","675169.150203","661352.549891","674412.06635","Mapping"
"Mixed","both","done","42","M_park.wav","space","397.944245487","324","669819.279608","662102.298301","662868.749175","663635.600429","664402.286583","665169.373117","665935.926019","666685.191191","670568.503042","671335.441791","672102.271403","672868.835125","673635.283526","674402.418291","675169.150203","675918.771234","675179.361267","Mapping"
"Mixed","both","done","42","M_jolt.wav","None","734.767423011","324","669819.279608","676685.405758","662868.749175","663635.600429","664402.286583","665169.373117","665935.926019","666685.191191","670568.503042","671335.441791","672102.271403","672868.835125","673635.283526","674402.418291","675169.150203","675918.771234","675928.501843","Mapping"
"Mixed","both","done","42","M_lash.wav","None","732.831998728","324","669819.279608","676685.405758","677452.154675","663635.600429","664402.286583","665169.373117","665935.926019","666685.191191","670568.503042","671335.441791","672102.271403","672868.835125","673635.283526","674402.418291","675169.150203","675918.771234","676695.223862","Mapping"
"Mixed","both","done","42","M_romp.wav","None","730.777851772","324","669819.279608","676685.405758","677452.154675","678218.487754","664402.286583","665169.373117","665935.926019","666685.191191","670568.503042","671335.441791","672102.271403","672868.835125","673635.283526","674402.418291","675169.150203","675918.771234","677462.034923","Mapping"
"Mixed","both","done","42","M_done.wav","None","729.678741191","324","669819.279608","676685.405758","677452.154675","678218.487754","678985.287994","665169.373117","665935.926019","666685.191191","670568.503042","671335.441791","672102.271403","672868.835125","673635.283526","674402.418291","675169.150203","675918.771234","678228.153126","Mapping"
"Mixed","both","done","42","F_depth.wav","space","494.046406355","324","669819.279608","676685.405758","677452.154675","678218.487754","678985.287994","679752.168927","665935.926019","666685.191191","670568.503042","671335.441791","672102.271403","672868.835125","673635.283526","674402.418291","675169.150203","675918.771234","678995.213381","Mapping"
"Mixed","both","done","42","F_done.wav","None","723.373463377","324","669819.279608","676685.405758","677452.154675","678218.487754","678985.287994","679752.168927","680519.089745","666685.191191","670568.503042","671335.441791","672102.271403","672868.835125","673635.283526","674402.418291","675169.150203","675918.771234","679762.275799","Mapping"
"Mixed","both","done","42","F_jaw.wav","space","536.337589845","324","669819.279608","676685.405758","677452.154675","678218.487754","678985.287994","679752.168927","680519.089745","681268.472094","670568.503042","671335.441791","672102.271403","672868.835125","673635.283526","674402.418291","675169.150203","675918.771234","680528.879405","Mapping"
