"Condition","Talker","Target","Trial","current_stimulus","response_response","response_time_response","subject_nr","time_Audio1","time_Audio10","time_Audio11","time_Audio12","time_Audio13","time_Audio14","time_Audio15","time_Audio16","time_Audio2","time_Audio3","time_Audio4","time_Audio5","time_Audio6","time_Audio7","time_Audio8","time_Audio9","time_response"
"Mixed","Both","cave","21","M_jolt.wav","NA","NA","120","222894.701515","NA","NA","NA","NA","NA","NA","NA","NA","NA","NA","NA","NA","NA","NA","NA","NA"
"Mixed","Both","cave","21","F_bluff.wav","None","718.27271962","120","222894.701515","NA","NA","NA","NA","NA","NA","NA","223661.216112","NA","NA","NA","NA","NA","NA","NA","222908.947736"
"Mixed","Both","cave","21","M_ball.wav","None","722.389001981","120","222894.701515","NA","NA","NA","NA","NA","NA","NA","223661.216112","224427.940944","NA","NA","NA","NA","NA","NA","223670.766357"
"Mixed","Both","cave","21","F_cad.wav","None","722.448053348","120","222894.701515","NA","NA","NA","NA","NA","NA","NA","223661.216112","224427.940944","225194.744304","NA","NA","NA","NA","NA","224437.806232"
"Mixed","Both","cave","21","M_park.wav","None","721.674511326","120","222894.701515","NA","NA","NA","NA","NA","NA","NA","223661.216112","224427.940944","225194.744304","225961.057632","NA","NA","NA","NA","225204.885372"
"Mixed","Both","cave","21","M_gnash.wav","None","722.012742728","120","222894.701515","NA","NA","NA","NA","NA","NA","NA","223661.216112","224427.940944","225194.744304","225961.057632","226727.488752","NA","NA","NA","225970.401042"
"Mixed","Both","cave","21","F_tile.wav","None","721.358230963","120","222894.701515","NA","NA","NA","NA","NA","NA","NA","223661.216112","224427.940944","225194.744304","225961.057632","226727.488752","227494.582733","NA","NA","226736.885959"
"Mixed","Both","cave","21","M_cave.wav","None","720.282012029","120","222894.701515","NA","NA","NA","NA","NA","NA","NA","223661.216112","224427.940944","225194.744304","225961.057632","226727.488752","227494.582733","228261.117734","NA","227504.431635"
"Mixed","Both","cave","21","F_depth.wav","space","456.766977732","120","222894.701515","NA","NA","NA","NA","NA","NA","NA","223661.216112","224427.940944","225194.744304","225961.057632","226727.488752","227494.582733","228261.117734","229027.98633","228270.86863"
"Mixed","Both","cave","21","M_cave.wav","None","719.256806056","120","222894.701515","229777.687981","NA","NA","NA","NA","NA","NA","223661.216112","224427.940944","225194.744304","225961.057632","226727.488752","227494.582733","228261.117734","229027.98633","229037.633036"
"Mixed","Both","cave","21","M_park.wav","space","564.72648395","120","222894.701515","229777.687981","230543.673898","NA","NA","NA","NA","NA","223661.216112","224427.940944","225194.744304","225961.057632","226727.488752","227494.582733","228261.117734","229027.98633","229786.863204"
"Mixed","Both","cave","21","F_cave.wav","None","735.564877366","120","222894.701515","229777.687981","230543.673898","231310.622259","NA","NA","NA","NA","223661.216112","224427.940944","225194.744304","225961.057632","226727.488752","227494.582733","228261.117734","229027.98633","230553.114079"
"Mixed","Both","cave","21","F_reek.wav","space","567.151918469","120","222894.701515","229777.687981","230543.673898","231310.622259","232077.021226","NA","NA","NA","223661.216112","224427.940944","225194.744304","225961.057632","226727.488752","227494.582733","228261.117734","229027.98633","231320.395725"
"Mixed","Both","cave","21","M_reek.wav","None","735.216752524","120","222894.701515","229777.687981","230543.673898","231310.622259","232077.021226","232843.677422","NA","NA","223661.216112","224427.940944","225194.744304","225961.057632","226727.488752","227494.582733","228261.117734","229027.98633","232085.803494"
"Mixed","Both","cave","21","F_cave.wav","None","734.874811096","120","222894.701515","229777.687981","230543.673898","231310.622259","232077.021226","232843.677422","233610.624547","NA","223661.216112","224427.940944","225194.744304","225961.057632","226727.488752","227494.582733","228261.117734","229027.98633","232853.067518"
"Mixed","Both","cave","21","F_done.wav","space","475.155141234","120","222894.701515","229777.687981","230543.673898","231310.622259","232077.021226","232843.677422","233610.624547","234377.313824","223661.216112","224427.940944","225194.744304","225961.057632","226727.488752","227494.582733","228261.117734","229027.98633","233620.344217"
"Mixed","Both","cave","18","F_dime.wav","None","734.106834134","120","237527.828963","229777.687981","230543.673898","231310.622259","232077.021226","232843.677422","233610.624547","234377.313824","223661.216112","224427.940944","225194.744304","225961.057632","226727.488752","227494.582733","228261.117734","229027.98633","234387.014017"
"Mixed","Both","cave","18","M_priest.wav","None","722.875016378","120","237527.828963","229777.687981","230543.673898","231310.622259","232077.021226","232843.677422","233610.624547","234377.313824","238293.983995","224427.940944","225194.744304","225961.057632","226727.488752","227494.582733","228261.117734","229027.98633","237537.380444"
"Mixed","Both","cave","18","M_jolt.wav","None","723.727087447","120","237527.828963","229777.687981","230543.673898","231310.622259","232077.021226","232843.677422","233610.624547","234377.313824","238293.983995","239060.732014","225194.744304","225961.057632","226727.488752","227494.582733","228261.117734","229027.98633","238303.197554"
"Mixed","Both","cave","18","F_ball.wav","None","722.164235762","120","237527.828963","229777.687981","230543.673898","231310.622259","232077.021226","232843.677422","233610.624547","234377.313824","238293.983995","239060.732014","239827.853201","225961.057632","226727.488752","227494.582733","228261.117734","229027.98633","239070.635331"
"Mixed","Both","cave","18","F_lash.wav","None","721.379872819","120","237527.828963","229777.687981","230543.673898","231310.622259","232077.021226","232843.677422","233610.624547","234377.313824","238293.983995","239060.732014","239827.853201","240594.157563","226727.488752","227494.582733","228261.117734","229027.98633","239837.784962"
"Mixed","Both","cave","18","M_cave.wav","None","722.396731202","120","237527.828963","229777.687981","230543.673898","231310.622259","232077.021226","232843.677422","233610.624547","234377.313824","238293.983995","239060.732014","239827.853201","240594.157563","241360.749452","227494.582733","228261.117734","229027.98633","240603.772115"
"Mixed","Both","cave","18","F_lash.wav","space","437.357936637","120","237527.828963","229777.687981","230543.673898","231310.622259","232077.021226","232843.677422","233610.624547","234377.313824","238293.983995","239060.732014","239827.853201","240594.157563","241360.749452","242127.574145","228261.117734","229027.98633","241369.921273"
"Mixed","Both","cave","18","M_jaw.wav","None","721.388529564","120","237527.828963","229777.687981","230543.673898","231310.622259","232077.021226","232843.677422","233610.624547","234377.313824","238293.983995","239060.732014","239827.853201","240594.157563","241360.749452","242127.574145","242894.086268","229027.98633","242137.230435"
"Mixed","Both","cave","18","F_cave.wav","None","720.09929287","120","237527.828963","229777.687981","230543.673898","231310.622259","232077.021226","232843.677422","233610.624547","234377.313824","238293.983995","239060.732014","239827.853201","240594.157563","241360.749452","242127.574145","242894.086268","243661.028755","242904.490439"
"Mixed","Both","cave","18","M_tile.wav","space","560.557951962","120","237527.828963","244427.352285","230543.673898","231310.622259","232077.021226","232843.677422","233610.624547","234377.313824","238293.983995","239060.732014","239827.853201","240594.157563","241360.749452","242127.574145","242894.086268","243661.028755","243670.632177"
"Mixed","Both","cave","18","M_cave.wav","None","719.151070094","120","237527.828963","244427.352285","245193.984057","231310.622259","232077.021226","232843.677422","233610.624547","234377.313824","238293.983995","239060.732014","239827.853201","240594.157563","241360.749452","242127.574145","242894.086268","243661.028755","244437.169034"
"Mixed","Both","cave","18","M_greet.wav","space","658.934750405","120","237527.828963","244427.352285","245193.984057","245943.077572","232077.021226","232843.677422","233610.624547","234377.313824","238293.983995","239060.732014","239827.853201","240594.157563","241360.749452","242127.574145","242894.086268","243661.028755","245204.185103"
"Mixed","Both","cave","18","F_dime.wav","None","736.594411705","120","237527.828963","244427.352285","245193.984057","245943.077572","246709.896082","232843.677422","233610.624547","234377.313824","238293.983995","239060.732014","239827.853201","240594.157563","241360.749452","242127.574145","242894.086268","243661.028755","245951.957228"
"Mixed","Both","cave","18","F_cave.wav","None","736.299154858","120","237527.828963","244427.352285","245193.984057","245943.077572","246709.896082","247476.892055","233610.624547","234377.313824","238293.983995","239060.732014","239827.853201","240594.157563","241360.749452","242127.574145","242894.086268","243661.028755","246718.780685"
"Mixed","Both","cave","18","F_romp.wav","space","600.780281908","120","237527.828963","244427.352285","245193.984057","245943.077572","246709.896082","247476.892055","248243.438496","234377.313824","238293.983995","239060.732014","239827.853201","240594.157563","241360.749452","242127.574145","242894.086268","243661.028755","247486.283078"
"Mixed","Both","cave","18","M_lash.wav","None","734.416312771","120","237527.828963","244427.352285","245193.984057","245943.077572","246709.896082","247476.892055","248243.438496","249010.091292","238293.983995","239060.732014","239827.853201","240594.157563","241360.749452","242127.574145","242894.086268","243661.028755","248252.552503"
"Mixed","Both","tile","26","M_jaw.wav","None","733.825799078","120","252143.615403","244427.352285","245193.984057","245943.077572","246709.896082","247476.892055","248243.438496","249010.091292","238293.983995","239060.732014","239827.853201","240594.157563","241360.749452","242127.574145","242894.086268","243661.028755","249019.732432"
"Mixed","Both","tile","26","F_tile.wav","None","722.817820031","120","252143.615403","244427.352285","245193.984057","245943.077572","246709.896082","247476.892055","248243.438496","249010.091292","252910.371152","239060.732014","239827.853201","240594.157563","241360.749452","242127.574145","242894.086268","243661.028755","252153.329199"
"Mixed","Both","tile","26","F_romp.wav","space","550.946491421","120","252143.615403","244427.352285","245193.984057","245943.077572","246709.896082","247476.892055","248243.438496","249010.091292","252910.371152","253676.877092","239827.853201","240594.157563","241360.749452","242127.574145","242894.086268","243661.028755","252919.942729"
"Mixed","Both","tile","26","F_tile.wav","None","721.845172884","120","252143.615403","244427.352285","245193.984057","245943.077572","246709.896082","247476.892055","248243.438496","249010.091292","252910.371152","253676.877092","254443.697147","240594.157563","241360.749452","242127.574145","242894.086268","243661.028755","253686.565844"
"Mixed","Both","tile","26","F_jolt.wav","None","721.551152717","120","252143.615403","244427.352285","245193.984057","245943.077572","246709.896082","247476.892055","248243.438496","249010.091292","252910.371152","253676.877092","254443.697147","255210.233077","241360.749452","242127.574145","242894.086268","243661.028755","254453.414035"
"Mixed","Both","tile","26","F_jaw.wav","space","50.9393805114","120","252143.615403","244427.352285","245193.984057","245943.077572","246709.896082","247476.892055","248243.438496","249010.091292","252910.371152","253676.877092","254443.697147","255210.233077","255976.743036","242127.574145","242894.086268","243661.028755","255219.870198"
"Mixed","Both","tile","26","M_cave.wav","None","721.081524287","120","252143.615403","244427.352285","245193.984057","245943.077572","246709.896082","247476.892055","248243.438496","249010.091292","252910.371152","253676.877092","254443.697147","255210.233077","255976.743036","256743.749212","242894.086268","243661.028755","255985.986894"
"Mixed","Both","tile","26","F_jolt.wav","None","712.521858281","120","252143.615403","244427.352285","245193.984057","245943.077572","246709.896082","247476.892055","248243.438496","249010.091292","252910.371152","253676.877092","254443.697147","255210.233077","255976.743036","256743.749212","257510.153435","243661.028755","256760.950783"
"Mixed","Both","tile","26","M_knife.wav","None","720.352502656","120","252143.615403","244427.352285","245193.984057","245943.077572","246709.896082","247476.892055","248243.438496","249010.091292","252910.371152","253676.877092","254443.697147","255210.233077","255976.743036","256743.749212","257510.153435","258277.097158","257519.290938"
"Mixed","Both","tile","26","M_tile.wav","None","719.22217909","120","252143.615403","259043.573727","245193.984057","245943.077572","246709.896082","247476.892055","248243.438496","249010.091292","252910.371152","253676.877092","254443.697147","255210.233077","255976.743036","256743.749212","257510.153435","258277.097158","258286.696561"
"Mixed","Both","tile","26","M_greet.wav","space","665.214909895","120","252143.615403","259043.573727","259792.945186","245943.077572","246709.896082","247476.892055","248243.438496","249010.091292","252910.371152","253676.877092","254443.697147","255210.233077","255976.743036","256743.749212","257510.153435","258277.097158","259053.477044"
"Mixed","Both","tile","26","M_done.wav","None","735.405655083","120","252143.615403","259043.573727","259792.945186","260559.690422","246709.896082","247476.892055","248243.438496","249010.091292","252910.371152","253676.877092","254443.697147","255210.233077","255976.743036","256743.749212","257510.153435","258277.097158","259802.490484"
"Mixed","Both","tile","26","M_jaw.wav","None","735.378757337","120","252143.615403","259043.573727","259792.945186","260559.690422","261325.896468","247476.892055","248243.438496","249010.091292","252910.371152","253676.877092","254443.697147","255210.233077","255976.743036","256743.749212","257510.153435","258277.097158","260568.833182"
"Mixed","Both","tile","26","M_tile.wav","None","736.318632524","120","252143.615403","259043.573727","259792.945186","260559.690422","261325.896468","262092.611097","248243.438496","249010.091292","252910.371152","253676.877092","254443.697147","255210.233077","255976.743036","256743.749212","257510.153435","258277.097158","261334.452424"
"Mixed","Both","tile","26","F_greet.wav","space","537.26512396","120","252143.615403","259043.573727","259792.945186","260559.690422","261325.896468","262092.611097","262859.763201","249010.091292","252910.371152","253676.877092","254443.697147","255210.233077","255976.743036","256743.749212","257510.153435","258277.097158","262101.314836"
"Mixed","Both","tile","26","F_jaw.wav","None","733.408729473","120","252143.615403","259043.573727","259792.945186","260559.690422","261325.896468","262092.611097","262859.763201","263626.725166","252910.371152","253676.877092","254443.697147","255210.233077","255976.743036","256743.749212","257510.153435","258277.097158","262869.470195"
"Mixed","Both","done","38","F_gnash.wav","None","733.138824507","120","266760.000087","259043.573727","259792.945186","260559.690422","261325.896468","262092.611097","262859.763201","263626.725166","252910.371152","253676.877092","254443.697147","255210.233077","255976.743036","256743.749212","257510.153435","258277.097158","263636.055591"
"Mixed","Both","done","38","M_done.wav","None","722.183095117","120","266760.000087","259043.573727","259792.945186","260559.690422","261325.896468","262092.611097","262859.763201","263626.725166","267526.856625","253676.877092","254443.697147","255210.233077","255976.743036","256743.749212","257510.153435","258277.097158","266769.952561"
"Mixed","Both","done","38","F_bluff.wav","space","597.934995269","120","266760.000087","259043.573727","259792.945186","260559.690422","261325.896468","262092.611097","262859.763201","263626.725166","267526.856625","268293.403684","254443.697147","255210.233077","255976.743036","256743.749212","257510.153435","258277.097158","267536.558363"
"Mixed","Both","done","38","M_jaw.wav","None","721.148614059","120","266760.000087","259043.573727","259792.945186","260559.690422","261325.896468","262092.611097","262859.763201","263626.725166","267526.856625","268293.403684","269059.946106","255210.233077","255976.743036","256743.749212","257510.153435","258277.097158","268303.330497"
"Mixed","Both","done","38","F_romp.wav","None","721.365960198","120","266760.000087","259043.573727","259792.945186","260559.690422","261325.896468","262092.611097","262859.763201","263626.725166","267526.856625","268293.403684","269059.946106","269826.814392","255976.743036","256743.749212","257510.153435","258277.097158","269069.616927"
"Mixed","Both","done","38","F_jaw.wav","None","720.7491671","120","266760.000087","259043.573727","259792.945186","260559.690422","261325.896468","262092.611097","262859.763201","263626.725166","267526.856625","268293.403684","269059.946106","269826.814392","270593.313839","256743.749212","257510.153435","258277.097158","269836.465117"
"Mixed","Both","done","38","M_priest.wav","None","721.123262163","120","266760.000087","259043.573727","259792.945186","260559.690422","261325.896468","262092.611097","262859.763201","263626.725166","267526.856625","268293.403684","269059.946106","269826.814392","270593.313839","271359.838947","257510.153435","258277.097158","270602.709499"
"Mixed","Both","done","38","F_dime.wav","None","726.085741349","120","266760.000087","259043.573727","259792.945186","260559.690422","261325.896468","262092.611097","262859.763201","263626.725166","267526.856625","268293.403684","269059.946106","269826.814392","270593.313839","271359.838947","272126.110228","258277.097158","271364.530594"
"Mixed","Both","done","38","M_done.wav","space","390.753421263","120","266760.000087","259043.573727","259792.945186","260559.690422","261325.896468","262092.611097","262859.763201","263626.725166","267526.856625","268293.403684","269059.946106","269826.814392","270593.313839","271359.838947","272126.110228","272892.910806","272135.589364"
"Mixed","Both","done","38","F_cave.wav","None","720.571703816","120","266760.000087","273659.800116","259792.945186","260559.690422","261325.896468","262092.611097","262859.763201","263626.725166","267526.856625","268293.403684","269059.946106","269826.814392","270593.313839","271359.838947","272126.110228","272892.910806","272902.205677"
"Mixed","Both","done","38","M_cave.wav","space","8.55626513658","120","266760.000087","273659.800116","274426.213923","260559.690422","261325.896468","262092.611097","262859.763201","263626.725166","267526.856625","268293.403684","269059.946106","269826.814392","270593.313839","271359.838947","272126.110228","272892.910806","273669.737132"
"Mixed","Both","done","38","M_cling.wav","None","719.513416712","120","266760.000087","273659.800116","274426.213923","275192.850951","261325.896468","262092.611097","262859.763201","263626.725166","267526.856625","268293.403684","269059.946106","269826.814392","270593.313839","271359.838947","272126.110228","272892.910806","274436.168871"
"Mixed","Both","done","38","F_done.wav","None","719.853812305","120","266760.000087","273659.800116","274426.213923","275192.850951","275959.609791","262092.611097","262859.763201","263626.725166","267526.856625","268293.403684","269059.946106","269826.814392","270593.313839","271359.838947","272126.110228","272892.910806","275202.505386"
"Mixed","Both","done","38","M_reek.wav","space","716.607842027","120","266760.000087","273659.800116","274426.213923","275192.850951","275959.609791","276709.411923","262859.763201","263626.725166","267526.856625","268293.403684","269059.946106","269826.814392","270593.313839","271359.838947","272126.110228","272892.910806","275969.591018"
"Mixed","Both","done","38","F_done.wav","None","735.842511538","120","266760.000087","273659.800116","274426.213923","275192.850951","275959.609791","276709.411923","277493.001022","263626.725166","267526.856625","268293.403684","269059.946106","269826.814392","270593.313839","271359.838947","272126.110228","272892.910806","276718.82737"
"Mixed","Both","done","38","M_knife.wav","space","559.59488907","120","266760.000087","273659.800116","274426.213923","275192.850951","275959.609791","276709.411923","277493.001022","278242.259324","267526.856625","268293.403684","269059.946106","269826.814392","270593.313839","271359.838947","272126.110228","272892.910806","277502.573527"
"Mixed","Both","tile","35","M_cave.wav","None","736.177032915","120","281376.091059","273659.800116","274426.213923","275192.850951","275959.609791","276709.411923","277493.001022","278242.259324","267526.856625","268293.403684","269059.946106","269826.814392","270593.313839","271359.838947","272126.110228","272892.910806","278251.553267"
"Mixed","Both","tile","35","F_tile.wav","None","728.384107206","120","281376.091059","273659.800116","274426.213923","275192.850951","275959.609791","276709.411923","277493.001022","278242.259324","282142.861339","268293.403684","269059.946106","269826.814392","270593.313839","271359.838947","272126.110228","272892.910806","281380.134068"
"Mixed","Both","tile","35","F_depth.wav","space","373.520314912","120","281376.091059","273659.800116","274426.213923","275192.850951","275959.609791","276709.411923","277493.001022","278242.259324","282142.861339","282909.281329","269059.946106","269826.814392","270593.313839","271359.838947","272126.110228","272892.910806","282152.497842"
"Mixed","Both","tile","35","M_jolt.wav","None","721.916281866","120","281376.091059","273659.800116","274426.213923","275192.850951","275959.609791","276709.411923","277493.001022","278242.259324","282142.861339","282909.281329","283676.230309","269826.814392","270593.313839","271359.838947","272126.110228","272892.910806","282918.709143"
"Mixed","Both","tile","35","F_romp.wav","None","721.859703845","120","281376.091059","273659.800116","274426.213923","275192.850951","275959.609791","276709.411923","277493.001022","278242.259324","282142.861339","282909.281329","283676.230309","284442.517048","270593.313839","271359.838947","272126.110228","272892.910806","283685.561662"
"Mixed","Both","tile","35","F_tile.wav","None","722.183404287","120","281376.091059","273659.800116","274426.213923","275192.850951","275959.609791","276709.411923","277493.001022","278242.259324","282142.861339","282909.281329","283676.230309","284442.517048","285209.464481","271359.838947","272126.110228","272892.910806","284451.757196"
"Mixed","Both","tile","35","M_park.wav","space","610.338256141","120","281376.091059","273659.800116","274426.213923","275192.850951","275959.609791","276709.411923","277493.001022","278242.259324","282142.861339","282909.281329","283676.230309","284442.517048","285209.464481","285975.734834","272126.110228","272892.910806","285219.481881"
"Mixed","Both","tile","35","M_tile.wav","None","721.565683663","120","281376.091059","273659.800116","274426.213923","275192.850951","275959.609791","276709.411923","277493.001022","278242.259324","282142.861339","282909.281329","283676.230309","284442.517048","285209.464481","285975.734834","286742.757396","272892.910806","285985.175942"
"Mixed","Both","tile","35","F_cad.wav","space","612.451429479","120","281376.091059","273659.800116","274426.213923","275192.850951","275959.609791","276709.411923","277493.001022","278242.259324","282142.861339","282909.281329","283676.230309","284442.517048","285209.464481","285975.734834","286742.757396","287509.397824","286752.476138"
"Mixed","Both","tile","35","M_tile.wav","None","719.891840155","120","281376.091059","288276.109362","274426.213923","275192.850951","275959.609791","276709.411923","277493.001022","278242.259324","282142.861339","282909.281329","283676.230309","284442.517048","285209.464481","285975.734834","286742.757396","287509.397824","287519.284137"
"Mixed","Both","tile","35","F_bluff.wav","None","720.206265512","120","281376.091059","288276.109362","289042.099298","275192.850951","275959.609791","276709.411923","277493.001022","278242.259324","282142.861339","282909.281329","283676.230309","284442.517048","285209.464481","285975.734834","286742.757396","287509.397824","288285.417218"
"Mixed","Both","tile","35","M_priest.wav","space","10.8141297824","120","281376.091059","288276.109362","289042.099298","289809.373833","275959.609791","276709.411923","277493.001022","278242.259324","282142.861339","282909.281329","283676.230309","284442.517048","285209.464481","285975.734834","286742.757396","287509.397824","289050.962259"
"Mixed","Both","tile","35","F_priest.wav","None","719.702628441","120","281376.091059","288276.109362","289042.099298","289809.373833","290575.950882","276709.411923","277493.001022","278242.259324","282142.861339","282909.281329","283676.230309","284442.517048","285209.464481","285975.734834","286742.757396","287509.397824","289819.047127"
"Mixed","Both","tile","35","F_knife.wav","None","720.102693725","120","281376.091059","288276.109362","289042.099298","289809.373833","290575.950882","291342.660564","277493.001022","278242.259324","282142.861339","282909.281329","283676.230309","284442.517048","285209.464481","285975.734834","286742.757396","287509.397824","290585.404357"
"Mixed","Both","tile","35","M_ball.wav","None","719.521764287","120","281376.091059","288276.109362","289042.099298","289809.373833","290575.950882","291342.660564","292109.309649","278242.259324","282142.861339","282909.281329","283676.230309","284442.517048","285209.464481","285975.734834","286742.757396","287509.397824","291352.427228"
"Mixed","Both","tile","35","M_reek.wav","None","719.87638167","120","281376.091059","288276.109362","289042.099298","289809.373833","290575.950882","291342.660564","292109.309649","292875.281963","282142.861339","282909.281329","283676.230309","284442.517048","285209.464481","285975.734834","286742.757396","287509.397824","292118.635746"
"Mixed","Both","cave","14","F_jaw.wav","None","722.993119125","120","296009.102568","288276.109362","289042.099298","289809.373833","290575.950882","291342.660564","292109.309649","292875.281963","282142.861339","282909.281329","283676.230309","284442.517048","285209.464481","285975.734834","286742.757396","287509.397824","292884.153271"
"Mixed","Both","cave","14","F_park.wav","None","722.448671688","120","296009.102568","288276.109362","289042.099298","289809.373833","290575.950882","291342.660564","292109.309649","292875.281963","296775.823071","282909.281329","283676.230309","284442.517048","285209.464481","285975.734834","286742.757396","287509.397824","296018.357865"
"Mixed","Both","cave","14","F_cave.wav","None","721.583924678","120","296009.102568","288276.109362","289042.099298","289809.373833","290575.950882","291342.660564","292109.309649","292875.281963","296775.823071","297542.435365","283676.230309","284442.517048","285209.464481","285975.734834","286742.757396","287509.397824","296785.545833"
"Mixed","Both","cave","14","M_knife.wav","None","720.962494044","120","296009.102568","288276.109362","289042.099298","289809.373833","290575.950882","291342.660564","292109.309649","292875.281963","296775.823071","297542.435365","298309.040548","284442.517048","285209.464481","285975.734834","286742.757396","287509.397824","297552.844174"
"Mixed","Both","cave","14","M_cave.wav","space","342.643559765","120","296009.102568","288276.109362","289042.099298","289809.373833","290575.950882","291342.660564","292109.309649","292875.281963","296775.823071","297542.435365","298309.040548","299075.27782","285209.464481","285975.734834","286742.757396","287509.397824","298318.895943"
"Mixed","Both","cave","14","M_cling.wav","space","569.152244949","120","296009.102568","288276.109362","289042.099298","289809.373833","290575.950882","291342.660564","292109.309649","292875.281963","296775.823071","297542.435365","298309.040548","299075.27782","299842.323569","285975.734834","286742.757396","287509.397824","299084.361528"
"Mixed","Both","cave","14","M_depth.wav","None","719.307509862","120","296009.102568","288276.109362","289042.099298","289809.373833","290575.950882","291342.660564","292109.309649","292875.281963","296775.823071","297542.435365","298309.040548","299075.27782","299842.323569","300609.068188","286742.757396","287509.397824","299852.08374"
"Mixed","Both","cave","14","M_jaw.wav","None","718.906207883","120","296009.102568","288276.109362","289042.099298","289809.373833","290575.950882","291342.660564","292109.309649","292875.281963","296775.823071","297542.435365","298309.040548","299075.27782","299842.323569","300609.068188","301375.081002","287509.397824","300619.149277"
"Mixed","Both","cave","14","M_cave.wav","None","720.07919685","120","296009.102568","288276.109362","289042.099298","289809.373833","290575.950882","291342.660564","292109.309649","292875.281963","296775.823071","297542.435365","298309.040548","299075.27782","299842.323569","300609.068188","301375.081002","302142.32122","301384.303528"
"Mixed","Both","cave","14","M_cling.wav","space","661.265579038","120","296009.102568","302908.493875","289042.099298","289809.373833","290575.950882","291342.660564","292109.309649","292875.281963","296775.823071","297542.435365","298309.040548","299075.27782","299842.323569","300609.068188","301375.081002","302142.32122","302152.135805"
"Mixed","Both","cave","14","F_gnash.wav","None","719.858140685","120","296009.102568","302908.493875","303675.312076","289809.373833","290575.950882","291342.660564","292109.309649","292875.281963","296775.823071","297542.435365","298309.040548","299075.27782","299842.323569","300609.068188","301375.081002","302142.32122","302917.443094"
"Mixed","Both","cave","14","F_gnash.wav","None","718.29157896","120","296009.102568","302908.493875","303675.312076","304425.378856","290575.950882","291342.660564","292109.309649","292875.281963","296775.823071","297542.435365","298309.040548","299075.27782","299842.323569","300609.068188","301375.081002","302142.32122","303685.500446"
"Mixed","Both","cave","14","F_cave.wav","None","735.337946971","120","296009.102568","302908.493875","303675.312076","304425.378856","305191.219463","291342.660564","292109.309649","292875.281963","296775.823071","297542.435365","298309.040548","299075.27782","299842.323569","300609.068188","301375.081002","302142.32122","304434.886436"
"Mixed","Both","cave","14","F_cad.wav","space","708.926217325","120","296009.102568","302908.493875","303675.312076","304425.378856","305191.219463","305958.411759","292109.309649","292875.281963","296775.823071","297542.435365","298309.040548","299075.27782","299842.323569","300609.068188","301375.081002","302142.32122","305200.393758"
"Mixed","Both","cave","14","F_greet.wav","None","734.676015127","120","296009.102568","302908.493875","303675.312076","304425.378856","305191.219463","305958.411759","306724.869469","292875.281963","296775.823071","297542.435365","298309.040548","299075.27782","299842.323569","300609.068188","301375.081002","302142.32122","305967.752697"
"Mixed","Both","cave","14","M_jolt.wav","None","734.437954641","120","296009.102568","302908.493875","303675.312076","304425.378856","305191.219463","305958.411759","306724.869469","307491.592136","296775.823071","297542.435365","298309.040548","299075.27782","299842.323569","300609.068188","301375.081002","302142.32122","306734.425279"
"Mixed","Both","tile","34","F_ball.wav","None","734.234830292","120","310625.290619","302908.493875","303675.312076","304425.378856","305191.219463","305958.411759","306724.869469","307491.592136","296775.823071","297542.435365","298309.040548","299075.27782","299842.323569","300609.068188","301375.081002","302142.32122","307501.106208"
"Mixed","Both","tile","34","M_tile.wav","None","723.125443663","120","310625.290619","302908.493875","303675.312076","304425.378856","305191.219463","305958.411759","306724.869469","307491.592136","311391.613531","297542.435365","298309.040548","299075.27782","299842.323569","300609.068188","301375.081002","302142.32122","310634.997613"
"Mixed","Both","tile","34","F_jolt.wav","space","468.158326912","120","310625.290619","302908.493875","303675.312076","304425.378856","305191.219463","305958.411759","306724.869469","307491.592136","311391.613531","312158.602393","298309.040548","299075.27782","299842.323569","300609.068188","301375.081002","302142.32122","311401.000843"
"Mixed","Both","tile","34","M_cling.wav","None","723.220667845","120","310625.290619","302908.493875","303675.312076","304425.378856","305191.219463","305958.411759","306724.869469","307491.592136","311391.613531","312158.602393","312925.031659","299075.27782","299842.323569","300609.068188","301375.081002","302142.32122","312168.127286"
"Mixed","Both","tile","34","M_dime.wav","None","723.305071107","120","310625.290619","302908.493875","303675.312076","304425.378856","305191.219463","305958.411759","306724.869469","307491.592136","311391.613531","312158.602393","312925.031659","313691.57439","299842.323569","300609.068188","301375.081002","302142.32122","312934.942086"
"Mixed","Both","tile","34","F_park.wav","None","725.213574275","120","310625.290619","302908.493875","303675.312076","304425.378856","305191.219463","305958.411759","306724.869469","307491.592136","311391.613531","312158.602393","312925.031659","313691.57439","314458.176172","300609.068188","301375.081002","302142.32122","313700.566275"
"Mixed","Both","tile","34","F_jaw.wav","None","724.821856551","120","310625.290619","302908.493875","303675.312076","304425.378856","305191.219463","305958.411759","306724.869469","307491.592136","311391.613531","312158.602393","312925.031659","313691.57439","314458.176172","315224.60482","301375.081002","302142.32122","314467.677259"
"Mixed","Both","tile","34","F_tile.wav","None","725.894983785","120","310625.290619","302908.493875","303675.312076","304425.378856","305191.219463","305958.411759","306724.869469","307491.592136","311391.613531","312158.602393","312925.031659","313691.57439","314458.176172","315224.60482","315991.115706","302142.32122","315233.372247"
"Mixed","Both","tile","34","M_depth.wav","space","573.096319888","120","310625.290619","302908.493875","303675.312076","304425.378856","305191.219463","305958.411759","306724.869469","307491.592136","311391.613531","312158.602393","312925.031659","313691.57439","314458.176172","315224.60482","315991.115706","316758.460423","315999.907868"
"Mixed","Both","tile","34","M_priest.wav","None","723.43306728","120","310625.290619","317524.65812","303675.312076","304425.378856","305191.219463","305958.411759","306724.869469","307491.592136","311391.613531","312158.602393","312925.031659","313691.57439","314458.176172","315224.60482","315991.115706","316758.460423","316768.515851"
"Mixed","Both","tile","34","M_priest.wav","None","725.168744699","120","310625.290619","317524.65812","318291.456225","304425.378856","305191.219463","305958.411759","306724.869469","307491.592136","311391.613531","312158.602393","312925.031659","313691.57439","314458.176172","315224.60482","315991.115706","316758.460423","317534.345327"
"Mixed","Both","tile","34","F_tile.wav","None","725.41515276","120","310625.290619","317524.65812","318291.456225","319058.056153","305191.219463","305958.411759","306724.869469","307491.592136","311391.613531","312158.602393","312925.031659","313691.57439","314458.176172","315224.60482","315991.115706","316758.460423","318300.710286"
"Mixed","Both","tile","34","F_priest.wav","space","529.439426289","120","310625.290619","317524.65812","318291.456225","319058.056153","319824.351857","305958.411759","306724.869469","307491.592136","311391.613531","312158.602393","312925.031659","313691.57439","314458.176172","315224.60482","315991.115706","316758.460423","319067.484894"
"Mixed","Both","tile","34","F_depth.wav","None","725.68814941","120","310625.290619","317524.65812","318291.456225","319058.056153","319824.351857","320591.010217","306724.869469","307491.592136","311391.613531","312158.602393","312925.031659","313691.57439","314458.176172","315224.60482","315991.115706","316758.460423","319833.353945"
"Mixed","Both","tile","34","M_tile.wav","None","725.933629976","120","310625.290619","317524.65812","318291.456225","319058.056153","319824.351857","320591.010217","321357.844495","307491.592136","311391.613531","312158.602393","312925.031659","313691.57439","314458.176172","315224.60482","315991.115706","316758.460423","320600.084341"
"Mixed","Both","tile","34","M_jaw.wav","None","725.576230063","120","310625.290619","317524.65812","318291.456225","319058.056153","319824.351857","320591.010217","321357.844495","322124.590041","311391.613531","312158.602393","312925.031659","313691.57439","314458.176172","315224.60482","315991.115706","316758.460423","321366.976125"
"Mixed","Both","ball","8","F_gnash.wav","space","54.5563541673","120","325258.207522","317524.65812","318291.456225","319058.056153","319824.351857","320591.010217","321357.844495","322124.590041","311391.613531","312158.602393","312925.031659","313691.57439","314458.176172","315224.60482","315991.115706","316758.460423","322134.271992"
"Mixed","Both","ball","8","F_priest.wav","None","723.468312601","120","325258.207522","317524.65812","318291.456225","319058.056153","319824.351857","320591.010217","321357.844495","322124.590041","326024.846405","312158.602393","312925.031659","313691.57439","314458.176172","315224.60482","315991.115706","316758.460423","325267.610293"
"Mixed","Both","ball","8","F_lash.wav","None","723.2181945","120","325258.207522","317524.65812","318291.456225","319058.056153","319824.351857","320591.010217","321357.844495","322124.590041","326024.846405","326791.401811","312925.031659","313691.57439","314458.176172","315224.60482","315991.115706","316758.460423","326034.918219"
"Mixed","Both","ball","8","M_ball.wav","None","723.323002952","120","325258.207522","317524.65812","318291.456225","319058.056153","319824.351857","320591.010217","321357.844495","322124.590041","326024.846405","326791.401811","327558.254639","313691.57439","314458.176172","315224.60482","315991.115706","316758.460423","326801.28565"
"Mixed","Both","ball","8","F_dime.wav","None","723.514378857","120","325258.207522","317524.65812","318291.456225","319058.056153","319824.351857","320591.010217","321357.844495","322124.590041","326024.846405","326791.401811","327558.254639","328324.531794","314458.176172","315224.60482","315991.115706","316758.460423","327567.891761"
"Mixed","Both","ball","8","M_ball.wav","space","30.5910825555","120","325258.207522","317524.65812","318291.456225","319058.056153","319824.351857","320591.010217","321357.844495","322124.590041","326024.846405","326791.401811","327558.254639","328324.531794","329091.503034","315224.60482","315991.115706","316758.460423","328333.99238"
"Mixed","Both","ball","8","F_park.wav","space","567.512100897","120","325258.207522","317524.65812","318291.456225","319058.056153","319824.351857","320591.010217","321357.844495","322124.590041","326024.846405","326791.401811","327558.254639","328324.531794","329091.503034","329858.111927","315991.115706","316758.460423","329101.10862"
"Mixed","Both","ball","8","M_reek.wav","None","722.379417726","120","325258.207522","317524.65812","318291.456225","319058.056153","319824.351857","320591.010217","321357.844495","322124.590041","326024.846405","326791.401811","327558.254639","328324.531794","329091.503034","329858.111927","330624.365584","316758.460423","329868.21744"
"Mixed","Both","ball","8","M_tile.wav","None","723.301979422","120","325258.207522","317524.65812","318291.456225","319058.056153","319824.351857","320591.010217","321357.844495","322124.590041","326024.846405","326791.401811","327558.254639","328324.531794","329091.503034","329858.111927","330624.365584","331391.695151","330633.922322"
"Mixed","Both","ball","8","F_ball.wav","None","722.76278786","120","325258.207522","332157.905216","318291.456225","319058.056153","319824.351857","320591.010217","321357.844495","322124.590041","326024.846405","326791.401811","327558.254639","328324.531794","329091.503034","329858.111927","330624.365584","331391.695151","331401.641133"
"Mixed","Both","ball","8","F_reek.wav","space","636.496466803","120","325258.207522","332157.905216","332924.438672","319058.056153","319824.351857","320591.010217","321357.844495","322124.590041","326024.846405","326791.401811","327558.254639","328324.531794","329091.503034","329858.111927","330624.365584","331391.695151","332168.032062"
"Mixed","Both","ball","8","M_jolt.wav","None","723.983698117","120","325258.207522","332157.905216","332924.438672","333691.364155","319824.351857","320591.010217","321357.844495","322124.590041","326024.846405","326791.401811","327558.254639","328324.531794","329091.503034","329858.111927","330624.365584","331391.695151","332934.002211"
"Mixed","Both","ball","8","M_reek.wav","None","723.683803735","120","325258.207522","332157.905216","332924.438672","333691.364155","334457.425818","320591.010217","321357.844495","322124.590041","326024.846405","326791.401811","327558.254639","328324.531794","329091.503034","329858.111927","330624.365584","331391.695151","333701.030338"
"Mixed","Both","ball","8","M_bluff.wav","None","725.005503205","120","325258.207522","332157.905216","332924.438672","333691.364155","334457.425818","335224.11695","321357.844495","322124.590041","326024.846405","326791.401811","327558.254639","328324.531794","329091.503034","329858.111927","330624.365584","331391.695151","334466.369472"
"Mixed","Both","ball","8","F_ball.wav","None","724.114476805","120","325258.207522","332157.905216","332924.438672","333691.364155","334457.425818","335224.11695","335990.912273","322124.590041","326024.846405","326791.401811","327558.254639","328324.531794","329091.503034","329858.111927","330624.365584","331391.695151","335233.968945"
"Mixed","Both","ball","8","M_jolt.wav","None","725.257785511","120","325258.207522","332157.905216","332924.438672","333691.364155","334457.425818","335224.11695","335990.912273","336757.546827","326024.846405","326791.401811","327558.254639","328324.531794","329091.503034","329858.111927","330624.365584","331391.695151","335999.939403"
"Mixed","Both","done","46","M_lash.wav","space","141.150704032","120","339891.125661","332157.905216","332924.438672","333691.364155","334457.425818","335224.11695","335990.912273","336757.546827","326024.846405","326791.401811","327558.254639","328324.531794","329091.503034","329858.111927","330624.365584","331391.695151","336767.25413"
"Mixed","Both","done","46","F_cling.wav","None","722.791231456","120","339891.125661","332157.905216","332924.438672","333691.364155","334457.425818","335224.11695","335990.912273","336757.546827","340657.781548","326791.401811","327558.254639","328324.531794","329091.503034","329858.111927","330624.365584","331391.695151","339901.057112"
"Mixed","Both","done","46","M_done.wav","None","722.666945338","120","339891.125661","332157.905216","332924.438672","333691.364155","334457.425818","335224.11695","335990.912273","336757.546827","340657.781548","341424.141251","327558.254639","328324.531794","329091.503034","329858.111927","330624.365584","331391.695151","340667.730622"
"Mixed","Both","done","46","F_gnash.wav","space","634.57405103","120","339891.125661","332157.905216","332924.438672","333691.364155","334457.425818","335224.11695","335990.912273","336757.546827","340657.781548","341424.141251","342190.556604","328324.531794","329091.503034","329858.111927","330624.365584","331391.695151","341433.689641"
"Mixed","Both","done","46","M_ball.wav","None","723.90114986","120","339891.125661","332157.905216","332924.438672","333691.364155","334457.425818","335224.11695","335990.912273","336757.546827","340657.781548","341424.141251","342190.556604","342957.718292","329091.503034","329858.111927","330624.365584","331391.695151","342199.714822"
"Mixed","Both","done","46","M_tile.wav","None","722.730015914","120","339891.125661","332157.905216","332924.438672","333691.364155","334457.425818","335224.11695","335990.912273","336757.546827","340657.781548","341424.141251","342190.556604","342957.718292","343724.110148","329858.111927","330624.365584","331391.695151","342967.428687"
"Mixed","Both","done","46","F_cling.wav","None","722.818129201","120","339891.125661","332157.905216","332924.438672","333691.364155","334457.425818","335224.11695","335990.912273","336757.546827","340657.781548","341424.141251","342190.556604","342957.718292","343724.110148","344490.65628","330624.365584","331391.695151","343734.385087"
"Mixed","Both","done","46","M_cling.wav","None","724.105510875","120","339891.125661","332157.905216","332924.438672","333691.364155","334457.425818","335224.11695","335990.912273","336757.546827","340657.781548","341424.141251","342190.556604","342957.718292","343724.110148","344490.65628","345257.266101","331391.695151","344500.093369"
"Mixed","Both","done","46","M_gnash.wav","None","725.218520995","120","339891.125661","332157.905216","332924.438672","333691.364155","334457.425818","335224.11695","335990.912273","336757.546827","340657.781548","341424.141251","342190.556604","342957.718292","343724.110148","344490.65628","345257.266101","346023.738341","345266.693296"
"Mixed","Both","done","46","F_done.wav","None","725.881998675","120","339891.125661","346790.585604","332924.438672","333691.364155","334457.425818","335224.11695","335990.912273","336757.546827","340657.781548","341424.141251","342190.556604","342957.718292","343724.110148","344490.65628","345257.266101","346023.738341","346033.351038"
"Mixed","Both","done","46","M_jaw.wav","space","491.947371935","120","339891.125661","346790.585604","347556.971895","333691.364155","334457.425818","335224.11695","335990.912273","336757.546827","340657.781548","341424.141251","342190.556604","342957.718292","343724.110148","344490.65628","345257.266101","346023.738341","346800.127192"
"Mixed","Both","done","46","M_done.wav","None","726.945850824","120","339891.125661","346790.585604","347556.971895","348323.559147","334457.425818","335224.11695","335990.912273","336757.546827","340657.781548","341424.141251","342190.556604","342957.718292","343724.110148","344490.65628","345257.266101","346023.738341","347565.883087"
"Mixed","Both","done","46","F_ball.wav","None","727.00304717","120","339891.125661","346790.585604","347556.971895","348323.559147","349090.549555","335224.11695","335990.912273","336757.546827","340657.781548","341424.141251","342190.556604","342957.718292","343724.110148","344490.65628","345257.266101","346023.738341","348332.525989"
"Mixed","Both","done","46","F_park.wav","space","160.518007266","120","339891.125661","346790.585604","347556.971895","348323.559147","349090.549555","349857.118565","335990.912273","336757.546827","340657.781548","341424.141251","342190.556604","342957.718292","343724.110148","344490.65628","345257.266101","346023.738341","349099.50403"
"Mixed","Both","done","46","F_done.wav","None","726.018033238","120","339891.125661","346790.585604","347556.971895","348323.559147","349090.549555","349857.118565","350623.844634","336757.546827","340657.781548","341424.141251","342190.556604","342957.718292","343724.110148","344490.65628","345257.266101","346023.738341","349866.50124"
"Mixed","Both","done","46","F_park.wav","space","586.441929321","120","339891.125661","346790.585604","347556.971895","348323.559147","349090.549555","349857.118565","350623.844634","351390.147758","340657.781548","341424.141251","342190.556604","342957.718292","343724.110148","344490.65628","345257.266101","346023.738341","350633.493504"
"Mixed","Both","done","41","M_tile.wav","None","726.427064452","120","354523.939611","346790.585604","347556.971895","348323.559147","349090.549555","349857.118565","350623.844634","351390.147758","340657.781548","341424.141251","342190.556604","342957.718292","343724.110148","344490.65628","345257.266101","346023.738341","351399.44603"
"Mixed","Both","done","41","M_done.wav","None","722.640665917","120","354523.939611","346790.585604","347556.971895","348323.559147","349090.549555","349857.118565","350623.844634","351390.147758","355290.689176","341424.141251","342190.556604","342957.718292","343724.110148","344490.65628","345257.266101","346023.738341","354533.513662"
"Mixed","Both","done","41","F_ball.wav","space","526.829726761","120","354523.939611","346790.585604","347556.971895","348323.559147","349090.549555","349857.118565","350623.844634","351390.147758","355290.689176","356056.249675","342190.556604","342957.718292","343724.110148","344490.65628","345257.266101","346023.738341","355300.995031"
"Mixed","Both","done","41","M_greet.wav","None","727.348389482","120","354523.939611","346790.585604","347556.971895","348323.559147","349090.549555","349857.118565","350623.844634","351390.147758","355290.689176","356056.249675","356823.664573","342957.718292","343724.110148","344490.65628","345257.266101","346023.738341","356065.128404"
"Mixed","Both","done","41","F_ball.wav","None","726.563408185","120","354523.939611","346790.585604","347556.971895","348323.559147","349090.549555","349857.118565","350623.844634","351390.147758","355290.689176","356056.249675","356823.664573","357590.203285","343724.110148","344490.65628","345257.266101","346023.738341","356833.019423"
"Mixed","Both","done","41","F_jaw.wav","None","727.169380349","120","354523.939611","346790.585604","347556.971895","348323.559147","349090.549555","349857.118565","350623.844634","351390.147758","355290.689176","356056.249675","356823.664573","357590.203285","358356.863191","344490.65628","345257.266101","346023.738341","357599.379435"
"Mixed","Both","done","41","M_done.wav","None","732.016230162","120","354523.939611","346790.585604","347556.971895","348323.559147","349090.549555","349857.118565","350623.844634","351390.147758","355290.689176","356056.249675","356823.664573","357590.203285","358356.863191","359123.582149","345257.266101","346023.738341","358361.276276"
"Mixed","Both","done","41","F_jolt.wav","space","478.756965575","120","354523.939611","346790.585604","347556.971895","348323.559147","349090.549555","349857.118565","350623.844634","351390.147758","355290.689176","356056.249675","356823.664573","357590.203285","358356.863191","359123.582149","359890.215157","346023.738341","359132.911956"
"Mixed","Both","done","41","F_done.wav","None","727.263986206","120","354523.939611","346790.585604","347556.971895","348323.559147","349090.549555","349857.118565","350623.844634","351390.147758","355290.689176","356056.249675","356823.664573","357590.203285","358356.863191","359123.582149","359890.215157","360656.793443","359899.368738"
"Mixed","Both","done","41","M_cling.wav","None","727.796066873","120","354523.939611","361423.529404","347556.971895","348323.559147","349090.549555","349857.118565","350623.844634","351390.147758","355290.689176","356056.249675","356823.664573","357590.203285","358356.863191","359123.582149","359890.215157","360656.793443","360666.208271"
"Mixed","Both","done","41","F_romp.wav","space","458.767922551","120","354523.939611","361423.529404","362190.130259","348323.559147","349090.549555","349857.118565","350623.844634","351390.147758","355290.689176","356056.249675","356823.664573","357590.203285","358356.863191","359123.582149","359890.215157","360656.793443","361432.864158"
"Mixed","Both","done","41","M_jolt.wav","None","726.981714484","120","354523.939611","361423.529404","362190.130259","362956.569109","349090.549555","349857.118565","350623.844634","351390.147758","355290.689176","356056.249675","356823.664573","357590.203285","358356.863191","359123.582149","359890.215157","360656.793443","362199.494693"
"Mixed","Both","done","41","F_greet.wav","None","727.90705871","120","354523.939611","361423.529404","362190.130259","362956.569109","363723.435231","349857.118565","350623.844634","351390.147758","355290.689176","356056.249675","356823.664573","357590.203285","358356.863191","359123.582149","359890.215157","360656.793443","362965.407337"
"Mixed","Both","done","41","F_done.wav","None","727.783081762","120","354523.939611","361423.529404","362190.130259","362956.569109","363723.435231","364489.936843","350623.844634","351390.147758","355290.689176","356056.249675","356823.664573","357590.203285","358356.863191","359123.582149","359890.215157","360656.793443","363732.717117"
"Mixed","Both","done","41","M_lash.wav","space","720.556245346","120","354523.939611","361423.529404","362190.130259","362956.569109","363723.435231","364489.936843","365256.643124","351390.147758","355290.689176","356056.249675","356823.664573","357590.203285","358356.863191","359123.582149","359890.215157","360656.793443","364498.991798"
"Mixed","Both","done","41","M_romp.wav","None","727.547185452","120","354523.939611","361423.529404","362190.130259","362956.569109","363723.435231","364489.936843","365256.643124","366023.353116","355290.689176","356056.249675","356823.664573","357590.203285","358356.863191","359123.582149","359890.215157","360656.793443","365266.124425"
"Mixed","Both","cave","13","M_reek.wav","None","728.468510468","120","369156.870117","361423.529404","362190.130259","362956.569109","363723.435231","364489.936843","365256.643124","366023.353116","355290.689176","356056.249675","356823.664573","357590.203285","358356.863191","359123.582149","359890.215157","360656.793443","366032.600375"
"Mixed","Both","cave","13","M_ball.wav","None","722.095290985","120","369156.870117","361423.529404","362190.130259","362956.569109","363723.435231","364489.936843","365256.643124","366023.353116","369923.328135","356056.249675","356823.664573","357590.203285","358356.863191","359123.582149","359890.215157","360656.793443","369166.526716"
"Mixed","Both","cave","13","F_cave.wav","None","722.438469093","120","369156.870117","361423.529404","362190.130259","362956.569109","363723.435231","364489.936843","365256.643124","366023.353116","369923.328135","370690.321326","356823.664573","357590.203285","358356.863191","359123.582149","359890.215157","360656.793443","369933.508468"
"Mixed","Both","cave","13","M_lash.wav","None","722.519780655","120","369156.870117","361423.529404","362190.130259","362956.569109","363723.435231","364489.936843","365256.643124","366023.353116","369923.328135","370690.321326","371456.69556","357590.203285","358356.863191","359123.582149","359890.215157","360656.793443","370700.160335"
"Mixed","Both","cave","13","M_priest.wav","space","296.525677142","120","369156.870117","361423.529404","362190.130259","362956.569109","363723.435231","364489.936843","365256.643124","366023.353116","369923.328135","370690.321326","371456.69556","372223.515925","358356.863191","359123.582149","359890.215157","360656.793443","371466.826116"
"Mixed","Both","cave","13","F_done.wav","None","721.914117676","120","369156.870117","361423.529404","362190.130259","362956.569109","363723.435231","364489.936843","365256.643124","366023.353116","369923.328135","370690.321326","371456.69556","372223.515925","372990.162846","359123.582149","359890.215157","360656.793443","372233.482312"
"Mixed","Both","cave","13","F_lash.wav","None","722.540804185","120","369156.870117","361423.529404","362190.130259","362956.569109","363723.435231","364489.936843","365256.643124","366023.353116","369923.328135","370690.321326","371456.69556","372223.515925","372990.162846","373756.828008","359890.215157","360656.793443","372999.708144"
"Mixed","Both","cave","13","F_gnash.wav","None","722.959110484","120","369156.870117","361423.529404","362190.130259","362956.569109","363723.435231","364489.936843","365256.643124","366023.353116","369923.328135","370690.321326","371456.69556","372223.515925","372990.162846","373756.828008","374523.623021","360656.793443","373766.378253"
"Mixed","Both","cave","13","F_greet.wav","None","723.257768186","120","369156.870117","361423.529404","362190.130259","362956.569109","363723.435231","364489.936843","365256.643124","366023.353116","369923.328135","370690.321326","371456.69556","372223.515925","372990.162846","373756.828008","374523.623021","375290.00282","374533.122562"
"Mixed","Both","cave","13","M_cave.wav","None","723.345572318","120","369156.870117","376056.321094","362190.130259","362956.569109","363723.435231","364489.936843","365256.643124","366023.353116","369923.328135","370690.321326","371456.69556","372223.515925","372990.162846","373756.828008","374523.623021","375290.00282","375299.823279"
"Mixed","Both","cave","13","F_dime.wav","space","705.506493803","120","369156.870117","376056.321094","376823.437952","362956.569109","363723.435231","364489.936843","365256.643124","366023.353116","369923.328135","370690.321326","371456.69556","372223.515925","372990.162846","373756.828008","374523.623021","375290.00282","376065.701295"
"Mixed","Both","cave","13","F_cave.wav","None","722.856157052","120","369156.870117","376056.321094","376823.437952","377589.616172","363723.435231","364489.936843","365256.643124","366023.353116","369923.328135","370690.321326","371456.69556","372223.515925","372990.162846","373756.828008","374523.623021","375290.00282","376833.284691"
"Mixed","Both","cave","13","M_knife.wav","None","724.970257899","120","369156.870117","376056.321094","376823.437952","377589.616172","378356.250417","364489.936843","365256.643124","366023.353116","369923.328135","370690.321326","371456.69556","372223.515925","372990.162846","373756.828008","374523.623021","375290.00282","377598.617641"
"Mixed","Both","cave","13","F_depth.wav","space","293.706360739","120","369156.870117","376056.321094","376823.437952","377589.616172","378356.250417","379123.478268","365256.643124","366023.353116","369923.328135","370690.321326","371456.69556","372223.515925","372990.162846","373756.828008","374523.623021","375290.00282","378365.441098"
"Mixed","Both","cave","13","M_cave.wav","None","723.532310672","120","369156.870117","376056.321094","376823.437952","377589.616172","378356.250417","379123.478268","379889.611349","366023.353116","369923.328135","370690.321326","371456.69556","372223.515925","372990.162846","373756.828008","374523.623021","375290.00282","379133.076434"
"Mixed","Both","cave","13","M_jolt.wav","space","679.811109818","120","369156.870117","376056.321094","376823.437952","377589.616172","378356.250417","379123.478268","379889.611349","380656.447791","369923.328135","370690.321326","371456.69556","372223.515925","372990.162846","373756.828008","374523.623021","375290.00282","379899.264548"
"Mixed","Both","done","37","M_gnash.wav","None","723.261169056","120","383789.779599","376056.321094","376823.437952","377589.616172","378356.250417","379123.478268","379889.611349","380656.447791","369923.328135","370690.321326","371456.69556","372223.515925","372990.162846","373756.828008","374523.623021","375290.00282","380666.49178"
"Mixed","Both","done","37","F_done.wav","None","722.852137842","120","383789.779599","376056.321094","376823.437952","377589.616172","378356.250417","379123.478268","379889.611349","380656.447791","384556.381072","370690.321326","371456.69556","372223.515925","372990.162846","373756.828008","374523.623021","375290.00282","383799.760208"
"Mixed","Both","done","37","F_cave.wav","space","581.378351708","120","383789.779599","376056.321094","376823.437952","377589.616172","378356.250417","379123.478268","379889.611349","380656.447791","384556.381072","385322.513226","371456.69556","372223.515925","372990.162846","373756.828008","374523.623021","375290.00282","384565.540218"
"Mixed","Both","done","37","M_done.wav","None","724.954799414","120","383789.779599","376056.321094","376823.437952","377589.616172","378356.250417","379123.478268","379889.611349","380656.447791","384556.381072","385322.513226","386089.418922","372223.515925","372990.162846","373756.828008","374523.623021","375290.00282","385331.626924"
"Mixed","Both","done","37","F_jaw.wav","space","624.421543922","120","383789.779599","376056.321094","376823.437952","377589.616172","378356.250417","379123.478268","379889.611349","380656.447791","384556.381072","385322.513226","386089.418922","386856.385524","372990.162846","373756.828008","374523.623021","375290.00282","386098.447289"
"Mixed","Both","done","37","F_lash.wav","None","723.555807563","120","383789.779599","376056.321094","376823.437952","377589.616172","378356.250417","379123.478268","379889.611349","380656.447791","384556.381072","385322.513226","386089.418922","386856.385524","387622.80366","373756.828008","374523.623021","375290.00282","386865.888467"
"Mixed","Both","done","37","F_gnash.wav","None","724.402931926","120","383789.779599","376056.321094","376823.437952","377589.616172","378356.250417","379123.478268","379889.611349","380656.447791","384556.381072","385322.513226","386089.418922","386856.385524","387622.80366","388389.295996","374523.623021","375290.00282","387632.436144"
"Mixed","Both","done","37","M_cave.wav","None","725.646411534","120","383789.779599","376056.321094","376823.437952","377589.616172","378356.250417","379123.478268","379889.611349","380656.447791","384556.381072","385322.513226","386089.418922","386856.385524","387622.80366","388389.295996","389155.782458","375290.00282","388398.698458"
"Mixed","Both","done","37","M_bluff.wav","None","726.462618928","120","383789.779599","376056.321094","376823.437952","377589.616172","378356.250417","379123.478268","379889.611349","380656.447791","384556.381072","385322.513226","386089.418922","386856.385524","387622.80366","388389.295996","389155.782458","389922.822334","389164.891828"
"Mixed","Both","done","37","F_done.wav","None","726.856810012","120","383789.779599","390689.308796","376823.437952","377589.616172","378356.250417","379123.478268","379889.611349","380656.447791","384556.381072","385322.513226","386089.418922","386856.385524","387622.80366","388389.295996","389155.782458","389922.822334","389931.934177"
"Mixed","Both","done","37","M_cave.wav","space","671.923269081","120","383789.779599","390689.308796","391455.880898","377589.616172","378356.250417","379123.478268","379889.611349","380656.447791","384556.381072","385322.513226","386089.418922","386856.385524","387622.80366","388389.295996","389155.782458","389922.822334","390698.814211"
"Mixed","Both","done","37","M_done.wav","None","726.883089417","120","383789.779599","390689.308796","391455.880898","392222.528437","378356.250417","379123.478268","379889.611349","380656.447791","384556.381072","385322.513226","386089.418922","386856.385524","387622.80366","388389.295996","389155.782458","389922.822334","391465.262955"
"Mixed","Both","done","37","M_ball.wav","None","726.849699116","120","383789.779599","390689.308796","391455.880898","392222.528437","392989.192981","379123.478268","379889.611349","380656.447791","384556.381072","385322.513226","386089.418922","386856.385524","387622.80366","388389.295996","389155.782458","389922.822334","392232.016849"
"Mixed","Both","done","37","M_lash.wav","space","276.469544333","120","383789.779599","390689.308796","391455.880898","392222.528437","392989.192981","393755.638633","379889.611349","380656.447791","384556.381072","385322.513226","386089.418922","386856.385524","387622.80366","388389.295996","389155.782458","389922.822334","392998.230623"
"Mixed","Both","done","37","F_park.wav","None","727.357664553","120","383789.779599","390689.308796","391455.880898","392222.528437","392989.192981","393755.638633","394521.903111","380656.447791","384556.381072","385322.513226","386089.418922","386856.385524","387622.80366","388389.295996","389155.782458","389922.822334","393764.790977"
"Mixed","Both","done","37","F_dime.wav","None","728.352262755","120","383789.779599","390689.308796","391455.880898","392222.528437","392989.192981","393755.638633","394521.903111","395288.771707","384556.381072","385322.513226","386089.418922","386856.385524","387622.80366","388389.295996","389155.782458","389922.822334","394530.823269"
"Mixed","Both","done","48","F_cad.wav","None","728.36153784","120","398422.683208","390689.308796","391455.880898","392222.528437","392989.192981","393755.638633","394521.903111","395288.771707","384556.381072","385322.513226","386089.418922","386856.385524","387622.80366","388389.295996","389155.782458","389922.822334","395297.74195"
"Mixed","Both","done","48","M_done.wav","None","723.149868048","120","398422.683208","390689.308796","391455.880898","392222.528437","392989.192981","393755.638633","394521.903111","395288.771707","399189.521814","385322.513226","386089.418922","386856.385524","387622.80366","388389.295996","389155.782458","389922.822334","398432.005286"
"Mixed","Both","done","48","M_dime.wav","space","611.487129892","120","398422.683208","390689.308796","391455.880898","392222.528437","392989.192981","393755.638633","394521.903111","395288.771707","399189.521814","399955.971485","386089.418922","386856.385524","387622.80366","388389.295996","389155.782458","389922.822334","399199.019809"
"Mixed","Both","done","48","M_park.wav","None","722.746092724","120","398422.683208","390689.308796","391455.880898","392222.528437","392989.192981","393755.638633","394521.903111","395288.771707","399189.521814","399955.971485","400722.636338","386856.385524","387622.80366","388389.295996","389155.782458","389922.822334","399965.358797"
"Mixed","Both","done","48","M_jaw.wav","None","723.019398531","120","398422.683208","390689.308796","391455.880898","392222.528437","392989.192981","393755.638633","394521.903111","395288.771707","399189.521814","399955.971485","400722.636338","401488.772511","387622.80366","388389.295996","389155.782458","389922.822334","400732.040964"
"Mixed","Both","done","48","F_ball.wav","None","723.502939596","120","398422.683208","390689.308796","391455.880898","392222.528437","392989.192981","393755.638633","394521.903111","395288.771707","399189.521814","399955.971485","400722.636338","401488.772511","402255.916576","388389.295996","389155.782458","389922.822334","401498.422617"
"Mixed","Both","done","48","F_done.wav","None","723.276627541","120","398422.683208","390689.308796","391455.880898","392222.528437","392989.192981","393755.638633","394521.903111","395288.771707","399189.521814","399955.971485","400722.636338","401488.772511","402255.916576","403022.247526","389155.782458","389922.822334","402265.957473"
"Mixed","Both","done","48","F_jolt.wav","space","546.781360303","120","398422.683208","390689.308796","391455.880898","392222.528437","392989.192981","393755.638633","394521.903111","395288.771707","399189.521814","399955.971485","400722.636338","401488.772511","402255.916576","403022.247526","403788.887955","389922.822334","403031.57486"
"Mixed","Both","done","48","M_priest.wav","None","725.044149396","120","398422.683208","390689.308796","391455.880898","392222.528437","392989.192981","393755.638633","394521.903111","395288.771707","399189.521814","399955.971485","400722.636338","401488.772511","402255.916576","403022.247526","403788.887955","404555.542296","403797.85727"
"Mixed","Both","done","48","M_tile.wav","None","725.036420161","120","398422.683208","405321.834599","391455.880898","392222.528437","392989.192981","393755.638633","394521.903111","395288.771707","399189.521814","399955.971485","400722.636338","401488.772511","402255.916576","403022.247526","403788.887955","404555.542296","404564.830056"
"Mixed","Both","done","48","M_jaw.wav","None","725.336005387","120","398422.683208","405321.834599","406088.765647","392222.528437","392989.192981","393755.638633","394521.903111","395288.771707","399189.521814","399955.971485","400722.636338","401488.772511","402255.916576","403022.247526","403788.887955","404555.542296","405331.5688"
"Mixed","Both","done","48","M_done.wav","None","726.013395688","120","398422.683208","405321.834599","406088.765647","406855.287664","392989.192981","393755.638633","394521.903111","395288.771707","399189.521814","399955.971485","400722.636338","401488.772511","402255.916576","403022.247526","403788.887955","404555.542296","406097.815965"
"Mixed","Both","done","48","F_greet.wav","space","706.257157275","120","398422.683208","405321.834599","406088.765647","406855.287664","407622.065363","393755.638633","394521.903111","395288.771707","399189.521814","399955.971485","400722.636338","401488.772511","402255.916576","403022.247526","403788.887955","404555.542296","406864.039942"
"Mixed","Both","done","48","F_tile.wav","None","726.189931462","120","398422.683208","405321.834599","406088.765647","406855.287664","407622.065363","408388.373126","394521.903111","395288.771707","399189.521814","399955.971485","400722.636338","401488.772511","402255.916576","403022.247526","403788.887955","404555.542296","407631.373529"
"Mixed","Both","done","48","F_done.wav","None","727.830384683","120","398422.683208","405321.834599","406088.765647","406855.287664","407622.065363","408388.373126","409155.347766","395288.771707","399189.521814","399955.971485","400722.636338","401488.772511","402255.916576","403022.247526","403788.887955","404555.542296","408397.607708"
"Mixed","Both","done","48","F_greet.wav","space","645.438575448","120","398422.683208","405321.834599","406088.765647","406855.287664","407622.065363","408388.373126","409155.347766","409921.88926","399189.521814","399955.971485","400722.636338","401488.772511","402255.916576","403022.247526","403788.887955","404555.542296","409164.770015"
"Mixed","Both","cave","22","F_dime.wav","None","726.937812418","120","413055.593309","405321.834599","406088.765647","406855.287664","407622.065363","408388.373126","409155.347766","409921.88926","399189.521814","399955.971485","400722.636338","401488.772511","402255.916576","403022.247526","403788.887955","404555.542296","409931.421264"
"Mixed","Both","cave","22","M_priest.wav","None","723.364122488","120","413055.593309","405321.834599","406088.765647","406855.287664","407622.065363","408388.373126","409155.347766","409921.88926","413822.094611","399955.971485","400722.636338","401488.772511","402255.916576","403022.247526","403788.887955","404555.542296","413065.444994"
"Mixed","Both","cave","22","M_priest.wav","None","724.248656348","120","413055.593309","405321.834599","406088.765647","406855.287664","407622.065363","408388.373126","409155.347766","409921.88926","413822.094611","414588.556339","400722.636338","401488.772511","402255.916576","403022.247526","403788.887955","404555.542296","413832.29102"
"Mixed","Both","cave","22","F_cave.wav","None","731.547838412","120","413055.593309","405321.834599","406088.765647","406855.287664","407622.065363","408388.373126","409155.347766","409921.88926","413822.094611","414588.556339","415355.19955","401488.772511","402255.916576","403022.247526","403788.887955","404555.542296","414591.93618"
"Mixed","Both","cave","22","F_gnash.wav","space","693.759908885","120","413055.593309","405321.834599","406088.765647","406855.287664","407622.065363","408388.373126","409155.347766","409921.88926","413822.094611","414588.556339","415355.19955","416121.782782","402255.916576","403022.247526","403788.887955","404555.542296","415364.261617"
"Mixed","Both","cave","22","M_jaw.wav","None","725.328894492","120","413055.593309","405321.834599","406088.765647","406855.287664","407622.065363","408388.373126","409155.347766","409921.88926","413822.094611","414588.556339","415355.19955","416121.782782","416888.465876","403022.247526","403788.887955","404555.542296","416131.52564"
"Mixed","Both","cave","22","M_bluff.wav","None","726.57113742","120","413055.593309","405321.834599","406088.765647","406855.287664","407622.065363","408388.373126","409155.347766","409921.88926","413822.094611","414588.556339","415355.19955","416121.782782","416888.465876","417655.084663","403788.887955","404555.542296","416897.537218"
"Mixed","Both","cave","22","M_cling.wav","None","726.674090853","120","413055.593309","405321.834599","406088.765647","406855.287664","407622.065363","408388.373126","409155.347766","409921.88926","413822.094611","414588.556339","415355.19955","416121.782782","416888.465876","417655.084663","418421.843194","404555.542296","417664.560707"
"Mixed","Both","cave","22","F_cave.wav","None","727.45845381","120","413055.593309","405321.834599","406088.765647","406855.287664","407622.065363","408388.373126","409155.347766","409921.88926","413822.094611","414588.556339","415355.19955","416121.782782","416888.465876","417655.084663","418421.843194","419188.434156","418431.155379"
"Mixed","Both","cave","22","F_priest.wav","space","531.798389347","120","413055.593309","419954.769743","406088.765647","406855.287664","407622.065363","408388.373126","409155.347766","409921.88926","413822.094611","414588.556339","415355.19955","416121.782782","416888.465876","417655.084663","418421.843194","419188.434156","419198.138676"
"Mixed","Both","cave","22","F_depth.wav","None","728.1411","120","413055.593309","419954.769743","420721.748094","406855.287664","407622.065363","408388.373126","409155.347766","409921.88926","413822.094611","414588.556339","415355.19955","416121.782782","416888.465876","417655.084663","418421.843194","419188.434156","419963.651564"
"Mixed","Both","cave","22","M_dime.wav","None","727.623859479","120","413055.593309","419954.769743","420721.748094","421488.324833","407622.065363","408388.373126","409155.347766","409921.88926","413822.094611","414588.556339","415355.19955","416121.782782","416888.465876","417655.084663","418421.843194","419188.434156","420731.066771"
"Mixed","Both","cave","22","M_cave.wav","None","728.478713063","120","413055.593309","419954.769743","420721.748094","421488.324833","422254.972373","408388.373126","409155.347766","409921.88926","413822.094611","414588.556339","415355.19955","416121.782782","416888.465876","417655.084663","418421.843194","419188.434156","421497.534992"
"Mixed","Both","cave","22","F_park.wav","space","521.523451127","120","413055.593309","419954.769743","420721.748094","421488.324833","422254.972373","423021.268695","409155.347766","409921.88926","413822.094611","414588.556339","415355.19955","416121.782782","416888.465876","417655.084663","418421.843194","419188.434156","422264.326295"
"Mixed","Both","cave","22","M_cave.wav","None","729.309142262","120","413055.593309","419954.769743","420721.748094","421488.324833","422254.972373","423021.268695","423788.25694","409921.88926","413822.094611","414588.556339","415355.19955","416121.782782","416888.465876","417655.084663","418421.843194","419188.434156","423030.244194"
"Mixed","Both","cave","22","F_greet.wav","space","676.733636894","120","413055.593309","419954.769743","420721.748094","421488.324833","422254.972373","423021.268695","423788.25694","424554.927976","413822.094611","414588.556339","415355.19955","416121.782782","416888.465876","417655.084663","418421.843194","419188.434156","423797.051265"
"Mixed","Both","tile","27","F_cad.wav","None","728.071227699","120","427688.577919","419954.769743","420721.748094","421488.324833","422254.972373","423021.268695","423788.25694","424554.927976","413822.094611","414588.556339","415355.19955","416121.782782","416888.465876","417655.084663","418421.843194","419188.434156","424564.472347"
"Mixed","Both","tile","27","M_greet.wav","None","722.505868049","120","427688.577919","419954.769743","420721.748094","421488.324833","422254.972373","423021.268695","423788.25694","424554.927976","428455.025117","414588.556339","415355.19955","416121.782782","416888.465876","417655.084663","418421.843194","419188.434156","427698.776493"
"Mixed","Both","tile","27","M_depth.wav","None","723.728942467","120","427688.577919","419954.769743","420721.748094","421488.324833","422254.972373","423021.268695","423788.25694","424554.927976","428455.025117","429221.472005","415355.19955","416121.782782","416888.465876","417655.084663","418421.843194","419188.434156","428464.694392"
"Mixed","Both","tile","27","F_tile.wav","None","724.628934811","120","427688.577919","419954.769743","420721.748094","421488.324833","422254.972373","423021.268695","423788.25694","424554.927976","428455.025117","429221.472005","429988.282786","416121.782782","416888.465876","417655.084663","418421.843194","419188.434156","429231.13046"
"Mixed","Both","tile","27","F_cad.wav","space","603.79375676","120","427688.577919","419954.769743","420721.748094","421488.324833","422254.972373","423021.268695","423788.25694","424554.927976","428455.025117","429221.472005","429988.282786","430754.738022","416888.465876","417655.084663","418421.843194","419188.434156","429997.80737"
"Mixed","Both","tile","27","F_tile.wav","None","724.31914699","120","427688.577919","419954.769743","420721.748094","421488.324833","422254.972373","423021.268695","423788.25694","424554.927976","428455.025117","429221.472005","429988.282786","430754.738022","431521.368557","417655.084663","418421.843194","419188.434156","430764.731307"
"Mixed","Both","tile","27","M_cad.wav","space","606.945430351","120","427688.577919","419954.769743","420721.748094","421488.324833","422254.972373","423021.268695","423788.25694","424554.927976","428455.025117","429221.472005","429988.282786","430754.738022","431521.368557","432288.036811","418421.843194","419188.434156","431530.590155"
"Mixed","Both","tile","27","F_gnash.wav","None","724.943360154","120","427688.577919","419954.769743","420721.748094","421488.324833","422254.972373","423021.268695","423788.25694","424554.927976","428455.025117","429221.472005","429988.282786","430754.738022","431521.368557","432288.036811","433054.613551","419188.434156","432297.297673"
"Mixed","Both","tile","27","M_tile.wav","None","725.519033702","120","427688.577919","419954.769743","420721.748094","421488.324833","422254.972373","423021.268695","423788.25694","424554.927976","428455.025117","429221.472005","429988.282786","430754.738022","431521.368557","432288.036811","433054.613551","433821.194","433063.988187"
"Mixed","Both","tile","27","M_cling.wav","None","726.405113426","120","427688.577919","434587.917286","420721.748094","421488.324833","422254.972373","423021.268695","423788.25694","424554.927976","428455.025117","429221.472005","429988.282786","430754.738022","431521.368557","432288.036811","433054.613551","433821.194","433830.589042"
"Mixed","Both","tile","27","F_lash.wav","space","171.85308761","120","427688.577919","434587.917286","435354.557096","421488.324833","422254.972373","423021.268695","423788.25694","424554.927976","428455.025117","429221.472005","429988.282786","430754.738022","431521.368557","432288.036811","433054.613551","433821.194","434597.566156"
"Mixed","Both","tile","27","F_ball.wav","None","727.520596876","120","427688.577919","434587.917286","435354.557096","436121.297077","422254.972373","423021.268695","423788.25694","424554.927976","428455.025117","429221.472005","429988.282786","430754.738022","431521.368557","432288.036811","433054.613551","433821.194","435363.680996"
"Mixed","Both","tile","27","F_gnash.wav","None","727.733305466","120","427688.577919","434587.917286","435354.557096","436121.297077","436887.903806","423021.268695","423788.25694","424554.927976","428455.025117","429221.472005","429988.282786","430754.738022","431521.368557","432288.036811","433054.613551","433821.194","436130.629049"
"Mixed","Both","tile","27","M_depth.wav","None","729.318417347","120","427688.577919","434587.917286","435354.557096","436121.297077","436887.903806","437654.527849","423788.25694","424554.927976","428455.025117","429221.472005","429988.282786","430754.738022","431521.368557","432288.036811","433054.613551","433821.194","436897.489606"
"Mixed","Both","tile","27","M_tile.wav","None","730.961653098","120","427688.577919","434587.917286","435354.557096","436121.297077","436887.903806","437654.527849","438421.414685","424554.927976","428455.025117","429221.472005","429988.282786","430754.738022","431521.368557","432288.036811","433054.613551","433821.194","437663.899394"
"Mixed","Both","tile","27","M_lash.wav","space","562.828801732","120","427688.577919","434587.917286","435354.557096","436121.297077","436887.903806","437654.527849","438421.414685","439187.803759","428455.025117","429221.472005","429988.282786","430754.738022","431521.368557","432288.036811","433054.613551","433821.194","438430.486954"
"Mixed","Both","ball","9","M_tile.wav","None","731.347805762","120","442321.333126","434587.917286","435354.557096","436121.297077","436887.903806","437654.527849","438421.414685","439187.803759","428455.025117","429221.472005","429988.282786","430754.738022","431521.368557","432288.036811","433054.613551","433821.194","439197.187671"
"Mixed","Both","ball","9","M_ball.wav","None","727.706098551","120","442321.333126","434587.917286","435354.557096","436121.297077","436887.903806","437654.527849","438421.414685","439187.803759","443087.704577","429221.472005","429988.282786","430754.738022","431521.368557","432288.036811","433054.613551","433821.194","442326.232844"
"Mixed","Both","ball","9","M_greet.wav","space","464.458186689","120","442321.333126","434587.917286","435354.557096","436121.297077","436887.903806","437654.527849","438421.414685","439187.803759","443087.704577","443854.679527","429988.282786","430754.738022","431521.368557","432288.036811","433054.613551","433821.194","443096.736345"
"Mixed","Both","ball","9","F_ball.wav","None","723.444197385","120","442321.333126","434587.917286","435354.557096","436121.297077","436887.903806","437654.527849","438421.414685","439187.803759","443087.704577","443854.679527","444621.129817","430754.738022","431521.368557","432288.036811","433054.613551","433821.194","443864.132693"
"Mixed","Both","ball","9","M_depth.wav","None","723.575285228","120","442321.333126","434587.917286","435354.557096","436121.297077","436887.903806","437654.527849","438421.414685","439187.803759","443087.704577","443854.679527","444621.129817","445387.647196","431521.368557","432288.036811","433054.613551","433821.194","444631.238731"
"Mixed","Both","ball","9","F_dime.wav","space","0.0346269807778","120","442321.333126","434587.917286","435354.557096","436121.297077","436887.903806","437654.527849","438421.414685","439187.803759","443087.704577","443854.679527","444621.129817","445387.647196","446154.225172","432288.036811","433054.613551","433821.194","445391.866122"
"Mixed","Both","ball","9","F_ball.wav","None","725.250365445","120","442321.333126","434587.917286","435354.557096","436121.297077","436887.903806","437654.527849","438421.414685","439187.803759","443087.704577","443854.679527","444621.129817","445387.647196","446154.225172","446920.778105","433054.613551","433821.194","446163.684212"
"Mixed","Both","ball","9","M_cave.wav","space","454.785510592","120","442321.333126","434587.917286","435354.557096","436121.297077","436887.903806","437654.527849","438421.414685","439187.803759","443087.704577","443854.679527","444621.129817","445387.647196","446154.225172","446920.778105","447687.615784","433821.194","446930.266826"
"Mixed","Both","ball","9","M_gnash.wav","None","725.312817667","120","442321.333126","434587.917286","435354.557096","436121.297077","436887.903806","437654.527849","438421.414685","439187.803759","443087.704577","443854.679527","444621.129817","445387.647196","446154.225172","446920.778105","447687.615784","448454.217875","447697.213641"
"Mixed","Both","ball","9","F_greet.wav","None","726.12129584","120","442321.333126","449220.851811","435354.557096","436121.297077","436887.903806","437654.527849","438421.414685","439187.803759","443087.704577","443854.679527","444621.129817","445387.647196","446154.225172","446920.778105","447687.615784","448454.217875","448464.170041"
"Mixed","Both","ball","9","F_jolt.wav","None","726.902567098","120","442321.333126","449220.851811","449987.513263","436121.297077","436887.903806","437654.527849","438421.414685","439187.803759","443087.704577","443854.679527","444621.129817","445387.647196","446154.225172","446920.778105","447687.615784","448454.217875","449230.388144"
"Mixed","Both","ball","9","F_done.wav","None","727.711972781","120","442321.333126","449220.851811","449987.513263","450754.069598","436887.903806","437654.527849","438421.414685","439187.803759","443087.704577","443854.679527","444621.129817","445387.647196","446154.225172","446920.778105","447687.615784","448454.217875","449996.939531"
"Mixed","Both","ball","9","F_knife.wav","None","728.423680892","120","442321.333126","449220.851811","449987.513263","450754.069598","451520.396838","437654.527849","438421.414685","439187.803759","443087.704577","443854.679527","444621.129817","445387.647196","446154.225172","446920.778105","447687.615784","448454.217875","450763.518435"
"Mixed","Both","ball","9","F_priest.wav","None","730.401747176","120","442321.333126","449220.851811","449987.513263","450754.069598","451520.396838","452287.453717","438421.414685","439187.803759","443087.704577","443854.679527","444621.129817","445387.647196","446154.225172","446920.778105","447687.615784","448454.217875","451529.316068"
"Mixed","Both","ball","9","M_ball.wav","None","730.000136027","120","442321.333126","449220.851811","449987.513263","450754.069598","451520.396838","452287.453717","453054.358177","439187.803759","443087.704577","443854.679527","444621.129817","445387.647196","446154.225172","446920.778105","447687.615784","448454.217875","452296.853397"
"Mixed","Both","ball","9","M_cave.wav","None","731.601324733","120","442321.333126","449220.851811","449987.513263","450754.069598","451520.396838","452287.453717","453054.358177","453820.719116","443087.704577","443854.679527","444621.129817","445387.647196","446154.225172","446920.778105","447687.615784","448454.217875","453063.196404"
"Mixed","Both","done","43","M_gnash.wav","space","0.0352453062078","120","456954.258377","449220.851811","449987.513263","450754.069598","451520.396838","452287.453717","453054.358177","453820.719116","443087.704577","443854.679527","444621.129817","445387.647196","446154.225172","446920.778105","447687.615784","448454.217875","453830.006567"
"Mixed","Both","done","43","F_reek.wav","None","722.177530057","120","456954.258377","449220.851811","449987.513263","450754.069598","451520.396838","452287.453717","453054.358177","453820.719116","457721.215085","443854.679527","444621.129817","445387.647196","446154.225172","446920.778105","447687.615784","448454.217875","456964.334519"
"Mixed","Both","done","43","F_cling.wav","None","723.330423018","120","456954.258377","449220.851811","449987.513263","450754.069598","451520.396838","452287.453717","453054.358177","453820.719116","457721.215085","458487.221407","444621.129817","445387.647196","446154.225172","446920.778105","447687.615784","448454.217875","457731.191675"
"Mixed","Both","done","43","F_priest.wav","None","726.1086199","120","456954.258377","449220.851811","449987.513263","450754.069598","451520.396838","452287.453717","453054.358177","453820.719116","457721.215085","458487.221407","459253.524841","445387.647196","446154.225172","446920.778105","447687.615784","448454.217875","458495.865786"
"Mixed","Both","done","43","F_done.wav","None","726.426446112","120","456954.258377","449220.851811","449987.513263","450754.069598","451520.396838","452287.453717","453054.358177","453820.719116","457721.215085","458487.221407","459253.524841","460020.501646","446154.225172","446920.778105","447687.615784","448454.217875","459262.745511"
"Mixed","Both","done","43","M_gnash.wav","space","490.687815516","120","456954.258377","449220.851811","449987.513263","450754.069598","451520.396838","452287.453717","453054.358177","453820.719116","457721.215085","458487.221407","459253.524841","460020.501646","460787.16248","446920.778105","447687.615784","448454.217875","460029.990057"
"Mixed","Both","done","43","M_knife.wav","None","726.764059174","120","456954.258377","449220.851811","449987.513263","450754.069598","451520.396838","452287.453717","453054.358177","453820.719116","457721.215085","458487.221407","459253.524841","460020.501646","460787.16248","461553.754987","447687.615784","448454.217875","460796.202904"
"Mixed","Both","done","43","M_done.wav","None","727.569754818","120","456954.258377","449220.851811","449987.513263","450754.069598","451520.396838","452287.453717","453054.358177","453820.719116","457721.215085","458487.221407","459253.524841","460020.501646","460787.16248","461553.754987","462320.520011","448454.217875","461563.259784"
"Mixed","Both","done","43","F_cave.wav","space","718.581270761","120","456954.258377","449220.851811","449987.513263","450754.069598","451520.396838","452287.453717","453054.358177","453820.719116","457721.215085","458487.221407","459253.524841","460020.501646","460787.16248","461553.754987","462320.520011","463087.179299","462330.037175"
"Mixed","Both","done","43","M_jaw.wav","None","727.977858507","120","456954.258377","463853.695132","449987.513263","450754.069598","451520.396838","452287.453717","453054.358177","453820.719116","457721.215085","458487.221407","459253.524841","460020.501646","460787.16248","461553.754987","462320.520011","463087.179299","463096.76819"
"Mixed","Both","done","43","F_bluff.wav","None","729.204024654","120","456954.258377","463853.695132","464620.378844","450754.069598","451520.396838","452287.453717","453054.358177","453820.719116","457721.215085","458487.221407","459253.524841","460020.501646","460787.16248","461553.754987","462320.520011","463087.179299","463863.14366"
"Mixed","Both","done","43","F_done.wav","None","730.351043385","120","456954.258377","463853.695132","464620.378844","465386.988355","451520.396838","452287.453717","453054.358177","453820.719116","457721.215085","458487.221407","459253.524841","460020.501646","460787.16248","461553.754987","462320.520011","463087.179299","464630.033588"
"Mixed","Both","done","43","F_knife.wav","space","660.091662561","120","456954.258377","463853.695132","464620.378844","465386.988355","466153.632803","452287.453717","453054.358177","453820.719116","457721.215085","458487.221407","459253.524841","460020.501646","460787.16248","461553.754987","462320.520011","463087.179299","465396.428227"
"Mixed","Both","done","43","M_done.wav","None","731.147773113","120","456954.258377","463853.695132","464620.378844","465386.988355","466153.632803","466920.115864","453054.358177","453820.719116","457721.215085","458487.221407","459253.524841","460020.501646","460787.16248","461553.754987","462320.520011","463087.179299","466163.085041"
"Mixed","Both","done","43","M_cad.wav","None","732.898909002","120","456954.258377","463853.695132","464620.378844","465386.988355","466153.632803","466920.115864","467686.852445","453820.719116","457721.215085","458487.221407","459253.524841","460020.501646","460787.16248","461553.754987","462320.520011","463087.179299","466929.29356"
"Mixed","Both","done","43","M_reek.wav","space","0.0238060456468","120","456954.258377","463853.695132","464620.378844","465386.988355","466153.632803","466920.115864","467686.852445","468453.590261","457721.215085","458487.221407","459253.524841","460020.501646","460787.16248","461553.754987","462320.520011","463087.179299","467695.9445"
"Mixed","Both","ball","4","F_done.wav","None","732.957342028","120","471587.341922","463853.695132","464620.378844","465386.988355","466153.632803","466920.115864","467686.852445","468453.590261","457721.215085","458487.221407","459253.524841","460020.501646","460787.16248","461553.754987","462320.520011","463087.179299","468462.96799"
"Mixed","Both","ball","4","F_ball.wav","None","723.088343322","120","471587.341922","463853.695132","464620.378844","465386.988355","466153.632803","466920.115864","467686.852445","468453.590261","472353.150066","458487.221407","459253.524841","460020.501646","460787.16248","461553.754987","462320.520011","463087.179299","471597.095909"
"Mixed","Both","ball","4","F_cave.wav","space","510.289160025","120","471587.341922","463853.695132","464620.378844","465386.988355","466153.632803","466920.115864","467686.852445","468453.590261","472353.150066","473120.582587","459253.524841","460020.501646","460787.16248","461553.754987","462320.520011","463087.179299","472361.979328"
"Mixed","Both","ball","4","M_greet.wav","None","723.634027439","120","471587.341922","463853.695132","464620.378844","465386.988355","466153.632803","466920.115864","467686.852445","468453.590261","472353.150066","473120.582587","473886.819858","460020.501646","460787.16248","461553.754987","462320.520011","463087.179299","473130.255572"
"Mixed","Both","ball","4","F_cave.wav","None","725.564481618","120","471587.341922","463853.695132","464620.378844","465386.988355","466153.632803","466920.115864","467686.852445","468453.590261","472353.150066","473120.582587","473886.819858","474653.361043","460787.16248","461553.754987","462320.520011","463087.179299","473896.247363"
"Mixed","Both","ball","4","M_jolt.wav","None","726.624932911","120","471587.341922","463853.695132","464620.378844","465386.988355","466153.632803","466920.115864","467686.852445","468453.590261","472353.150066","473120.582587","473886.819858","474653.361043","475420.045065","461553.754987","462320.520011","463087.179299","474662.759486"
"Mixed","Both","ball","4","M_greet.wav","None","727.361065423","120","471587.341922","463853.695132","464620.378844","465386.988355","466153.632803","466920.115864","467686.852445","468453.590261","472353.150066","473120.582587","473886.819858","474653.361043","475420.045065","476186.761549","462320.520011","463087.179299","475429.356012"
"Mixed","Both","ball","4","F_done.wav","None","733.375648328","120","471587.341922","463853.695132","464620.378844","465386.988355","466153.632803","466920.115864","467686.852445","468453.590261","472353.150066","473120.582587","473886.819858","474653.361043","475420.045065","476186.761549","476953.100537","463087.179299","476190.850315"
"Mixed","Both","ball","4","M_ball.wav","None","729.763312222","120","471587.341922","463853.695132","464620.378844","465386.988355","466153.632803","466920.115864","467686.852445","468453.590261","472353.150066","473120.582587","473886.819858","474653.361043","475420.045065","476186.761549","476953.100537","477720.009943","476961.87724"
"Mixed","Both","ball","4","M_gnash.wav","space","566.460615519","120","471587.341922","478486.659646","464620.378844","465386.988355","466153.632803","466920.115864","467686.852445","468453.590261","472353.150066","473120.582587","473886.819858","474653.361043","475420.045065","476186.761549","476953.100537","477720.009943","477729.698696"
"Mixed","Both","ball","4","M_ball.wav","None","728.956070729","120","471587.341922","478486.659646","479253.281525","465386.988355","466153.632803","466920.115864","467686.852445","468453.590261","472353.150066","473120.582587","473886.819858","474653.361043","475420.045065","476186.761549","476953.100537","477720.009943","478495.988217"
"Mixed","Both","ball","4","F_jaw.wav","None","730.600543146","120","471587.341922","478486.659646","479253.281525","480019.539511","466153.632803","466920.115864","467686.852445","468453.590261","472353.150066","473120.582587","473886.819858","474653.361043","475420.045065","476186.761549","476953.100537","477720.009943","479262.692644"
"Mixed","Both","ball","4","F_ball.wav","space","83.8309931278","120","471587.341922","478486.659646","479253.281525","480019.539511","480786.609066","466920.115864","467686.852445","468453.590261","472353.150066","473120.582587","473886.819858","474653.361043","475420.045065","476186.761549","476953.100537","477720.009943","480028.279732"
"Mixed","Both","ball","4","M_romp.wav","None","730.81016005","120","471587.341922","478486.659646","479253.281525","480019.539511","480786.609066","481553.17684","467686.852445","468453.590261","472353.150066","473120.582587","473886.819858","474653.361043","475420.045065","476186.761549","476953.100537","477720.009943","480796.177861"
"Mixed","Both","ball","4","M_cave.wav","space","133.453002534","120","471587.341922","478486.659646","479253.281525","480019.539511","480786.609066","481553.17684","482320.083773","468453.590261","472353.150066","473120.582587","473886.819858","474653.361043","475420.045065","476186.761549","476953.100537","477720.009943","481562.588886"
"Mixed","Both","ball","4","F_lash.wav","None","731.019467785","120","471587.341922","478486.659646","479253.281525","480019.539511","480786.609066","481553.17684","482320.083773","483086.384424","472353.150066","473120.582587","473886.819858","474653.361043","475420.045065","476186.761549","476953.100537","477720.009943","482329.368441"
"Mixed","Both","done","42","F_greet.wav","None","732.681253692","120","486220.272428","478486.659646","479253.281525","480019.539511","480786.609066","481553.17684","482320.083773","483086.384424","472353.150066","473120.582587","473886.819858","474653.361043","475420.045065","476186.761549","476953.100537","477720.009943","483095.265317"
"Mixed","Both","done","42","F_done.wav","None","722.874398052","120","486220.272428","478486.659646","479253.281525","480019.539511","480786.609066","481553.17684","482320.083773","483086.384424","486986.907291","473120.582587","473886.819858","474653.361043","475420.045065","476186.761549","476953.100537","477720.009943","486229.458162"
"Mixed","Both","done","42","F_lash.wav","space","659.621415805","120","486220.272428","478486.659646","479253.281525","480019.539511","480786.609066","481553.17684","482320.083773","483086.384424","486986.907291","487753.370875","473886.819858","474653.361043","475420.045065","476186.761549","476953.100537","477720.009943","486996.258431"
"Mixed","Both","done","42","M_done.wav","None","722.941796994","120","486220.272428","478486.659646","479253.281525","480019.539511","480786.609066","481553.17684","482320.083773","483086.384424","486986.907291","487753.370875","488519.766441","474653.361043","475420.045065","476186.761549","476953.100537","477720.009943","487762.762207"
"Mixed","Both","done","42","M_gnash.wav","None","723.2181945","120","486220.272428","478486.659646","479253.281525","480019.539511","480786.609066","481553.17684","482320.083773","483086.384424","486986.907291","487753.370875","488519.766441","489286.386464","475420.045065","476186.761549","476953.100537","477720.009943","488529.876592"
"Mixed","Both","done","42","M_depth.wav","space","23.7779149029","120","486220.272428","478486.659646","479253.281525","480019.539511","480786.609066","481553.17684","482320.083773","483086.384424","486986.907291","487753.370875","488519.766441","489286.386464","490053.290305","476186.761549","476953.100537","477720.009943","489296.038735"
"Mixed","Both","done","42","M_romp.wav","None","723.317747063","120","486220.272428","478486.659646","479253.281525","480019.539511","480786.609066","481553.17684","482320.083773","483086.384424","486986.907291","487753.370875","488519.766441","489286.386464","490053.290305","490819.678761","476953.100537","477720.009943","490063.007811"
"Mixed","Both","done","42","M_done.wav","None","725.117422568","120","486220.272428","478486.659646","479253.281525","480019.539511","480786.609066","481553.17684","482320.083773","483086.384424","486986.907291","487753.370875","488519.766441","489286.386464","490053.290305","490819.678761","491586.25921","477720.009943","490828.685176"
