"Condition","Talker","Target","Trial","current_stimulus","response_response","response_time_response","subject_nr","time_Audio1","time_Audio10","time_Audio11","time_Audio12","time_Audio13","time_Audio14","time_Audio15","time_Audio16","time_Audio2","time_Audio3","time_Audio4","time_Audio5","time_Audio6","time_Audio7","time_Audio8","time_Audio9","time_response","title"
"Mixed","Male","ball","1","M_greet.wav","NA","NA","403","18253.6650519","NA","NA","NA","NA","NA","NA","NA","NA","NA","NA","NA","NA","NA","NA","NA","NA","Mapping"
"Mixed","Male","ball","1","M_ball.wav","None","721.299530473","403","18253.6650519","NA","NA","NA","NA","NA","NA","NA","19021.0481877","NA","NA","NA","NA","NA","NA","NA","18264.9365636","Mapping"
"Mixed","Male","ball","1","M_greet.wav","space","486.519887112","403","18253.6650519","NA","NA","NA","NA","NA","NA","NA","19021.0481877","19787.7672864","NA","NA","NA","NA","NA","NA","19025.1874556","Mapping"
"Mixed","Male","ball","1","M_bluff.wav","space","610.064225271","403","18253.6650519","NA","NA","NA","NA","NA","NA","NA","19021.0481877","19787.7672864","20554.7099346","NA","NA","NA","NA","NA","19791.6147984","Mapping"
"Mixed","Male","ball","1","F_gnash.wav","None","726.22783063","403","18253.6650519","NA","NA","NA","NA","NA","NA","NA","19021.0481877","19787.7672864","20554.7099346","21304.9792303","NA","NA","NA","NA","20557.620883","Mapping"
"Mixed","Male","ball","1","M_ball.wav","None","742.212206591","403","18253.6650519","NA","NA","NA","NA","NA","NA","NA","19021.0481877","19787.7672864","20554.7099346","21304.9792303","22072.3401317","NA","NA","NA","21307.752864","Mapping"
"Mixed","Male","ball","1","F_knife.wav","space","420.503737405","403","18253.6650519","NA","NA","NA","NA","NA","NA","NA","19021.0481877","19787.7672864","20554.7099346","21304.9792303","22072.3401317","22839.5213522","NA","NA","22075.1804695","Mapping"
"Mixed","Male","ball","1","M_knife.wav","None","739.361351822","403","18253.6650519","NA","NA","NA","NA","NA","NA","NA","19021.0481877","19787.7672864","20554.7099346","21304.9792303","22072.3401317","22839.5213522","23606.7398312","NA","22842.4160755","Mapping"
"Mixed","Male","ball","1","F_lash.wav","None","737.853296101","403","18253.6650519","NA","NA","NA","NA","NA","NA","NA","19021.0481877","19787.7672864","20554.7099346","21304.9792303","22072.3401317","22839.5213522","23606.7398312","24373.9213524","23609.9416339","Mapping"
"Mixed","Male","ball","1","F_park.wav","None","737.200074829","403","18253.6650519","25141.2038309","NA","NA","NA","NA","NA","NA","19021.0481877","19787.7672864","20554.7099346","21304.9792303","22072.3401317","22839.5213522","23606.7398312","24373.9213524","24376.6802633","Mapping"
"Mixed","Male","ball","1","F_jaw.wav","None","735.341070686","403","18253.6650519","25141.2038309","25908.4319249","NA","NA","NA","NA","NA","19021.0481877","19787.7672864","20554.7099346","21304.9792303","22072.3401317","22839.5213522","23606.7398312","24373.9213524","25144.496676","Mapping"
"Mixed","Male","ball","1","F_depth.wav","None","734.459793195","403","18253.6650519","25141.2038309","25908.4319249","26675.6681316","NA","NA","NA","NA","19021.0481877","19787.7672864","20554.7099346","21304.9792303","22072.3401317","22839.5213522","23606.7398312","24373.9213524","25911.3942538","Mapping"
"Mixed","Male","ball","1","M_ball.wav","None","732.534385286","403","18253.6650519","25141.2038309","25908.4319249","26675.6681316","27442.8352304","NA","NA","NA","19021.0481877","19787.7672864","20554.7099346","21304.9792303","22072.3401317","22839.5213522","23606.7398312","24373.9213524","26678.8308732","Mapping"
"Mixed","Male","ball","1","F_cling.wav","space","318.14580271","403","18253.6650519","25141.2038309","25908.4319249","26675.6681316","27442.8352304","28210.286573","NA","NA","19021.0481877","19787.7672864","20554.7099346","21304.9792303","22072.3401317","22839.5213522","23606.7398312","24373.9213524","27445.5731083","Mapping"
"Mixed","Male","ball","1","M_ball.wav","None","728.98764303","403","18253.6650519","25141.2038309","25908.4319249","26675.6681316","27442.8352304","28210.286573","28977.735512","NA","19021.0481877","19787.7672864","20554.7099346","21304.9792303","22072.3401317","22839.5213522","23606.7398312","24373.9213524","28214.0553617","Mapping"
"Mixed","Male","ball","1","F_bluff.wav","space","338.532056194","403","18253.6650519","25141.2038309","25908.4319249","26675.6681316","27442.8352304","28210.286573","28977.735512","29745.3587232","19021.0481877","19787.7672864","20554.7099346","21304.9792303","22072.3401317","22839.5213522","23606.7398312","24373.9213524","28981.1668736","Mapping"
"Mixed","Female","tile","33","M_bluff.wav","n","0.0345539301634","403","32897.6087137","25141.2038309","25908.4319249","26675.6681316","27442.8352304","28210.286573","28977.735512","29745.3587232","19021.0481877","19787.7672864","20554.7099346","21304.9792303","22072.3401317","22839.5213522","23606.7398312","24373.9213524","29749.0941598","Mapping"
"Mixed","Female","tile","33","M_jolt.wav","None","729.097614996","403","32897.6087137","25141.2038309","25908.4319249","26675.6681316","27442.8352304","28210.286573","28977.735512","29745.3587232","33664.2908547","19787.7672864","20554.7099346","21304.9792303","22072.3401317","22839.5213522","23606.7398312","24373.9213524","32901.2194555","Mapping"
"Mixed","Female","tile","33","M_cad.wav","None","729.131568223","403","32897.6087137","25141.2038309","25908.4319249","26675.6681316","27442.8352304","28210.286573","28977.735512","29745.3587232","33664.2908547","34431.4116808","20554.7099346","21304.9792303","22072.3401317","22839.5213522","23606.7398312","24373.9213524","33667.2934461","Mapping"
"Mixed","Female","tile","33","F_knife.wav","None","727.37201862","403","32897.6087137","25141.2038309","25908.4319249","26675.6681316","27442.8352304","28210.286573","28977.735512","29745.3587232","33664.2908547","34431.4116808","35198.7752868","21304.9792303","22072.3401317","22839.5213522","23606.7398312","24373.9213524","34435.1915871","Mapping"
"Mixed","Female","tile","33","M_gnash.wav","None","726.982309483","403","32897.6087137","25141.2038309","25908.4319249","26675.6681316","27442.8352304","28210.286573","28977.735512","29745.3587232","33664.2908547","34431.4116808","35198.7752868","35965.8783851","22072.3401317","22839.5213522","23606.7398312","24373.9213524","35201.7183853","Mapping"
"Mixed","Female","tile","33","F_tile.wav","None","726.574572735","403","32897.6087137","25141.2038309","25908.4319249","26675.6681316","27442.8352304","28210.286573","28977.735512","29745.3587232","33664.2908547","34431.4116808","35198.7752868","35965.8783851","36716.1882445","22839.5213522","23606.7398312","24373.9213524","35968.6808642","Mapping"
"Mixed","Female","tile","33","F_jaw.wav","space","357.757596299","403","32897.6087137","25141.2038309","25908.4319249","26675.6681316","27442.8352304","28210.286573","28977.735512","29745.3587232","33664.2908547","34431.4116808","35198.7752868","35965.8783851","36716.1882445","37483.4166388","23606.7398312","24373.9213524","36718.9775025","Mapping"
"Mixed","Female","tile","33","F_priest.wav","None","741.409952752","403","32897.6087137","25141.2038309","25908.4319249","26675.6681316","27442.8352304","28210.286573","28977.735512","29745.3587232","33664.2908547","34431.4116808","35198.7752868","35965.8783851","36716.1882445","37483.4166388","38250.7495964","24373.9213524","37486.1506107","Mapping"
"Mixed","Female","tile","33","F_tile.wav","None","739.374873228","403","32897.6087137","25141.2038309","25908.4319249","26675.6681316","27442.8352304","28210.286573","28977.735512","29745.3587232","33664.2908547","34431.4116808","35198.7752868","35965.8783851","36716.1882445","37483.4166388","38250.7495964","39017.8893525","38253.731756","Mapping"
"Mixed","Female","tile","33","M_lash.wav","space","371.894985903","403","32897.6087137","39785.1489955","25908.4319249","26675.6681316","27442.8352304","28210.286573","28977.735512","29745.3587232","33664.2908547","34431.4116808","35198.7752868","35965.8783851","36716.1882445","37483.4166388","38250.7495964","39017.8893525","39020.8012019","Mapping"
"Mixed","Female","tile","33","F_tile.wav","None","736.901408527","403","32897.6087137","39785.1489955","40552.374986","26675.6681316","27442.8352304","28210.286573","28977.735512","29745.3587232","33664.2908547","34431.4116808","35198.7752868","35965.8783851","36716.1882445","37483.4166388","38250.7495964","39017.8893525","39788.1702161","Mapping"
"Mixed","Female","tile","33","M_park.wav","space","405.383211095","403","32897.6087137","39785.1489955","40552.374986","41319.570329","27442.8352304","28210.286573","28977.735512","29745.3587232","33664.2908547","34431.4116808","35198.7752868","35965.8783851","36716.1882445","37483.4166388","38250.7495964","39017.8893525","40555.3147797","Mapping"
"Mixed","Female","tile","33","M_cling.wav","None","734.350122046","403","32897.6087137","39785.1489955","40552.374986","41319.570329","42086.7954181","28210.286573","28977.735512","29745.3587232","33664.2908547","34431.4116808","35198.7752868","35965.8783851","36716.1882445","37483.4166388","38250.7495964","39017.8893525","41322.7378782","Mapping"
"Mixed","Female","tile","33","F_tile.wav","None","733.25100448","403","32897.6087137","39785.1489955","40552.374986","41319.570329","42086.7954181","42854.0520566","28977.735512","29745.3587232","33664.2908547","34431.4116808","35198.7752868","35965.8783851","36716.1882445","37483.4166388","38250.7495964","39017.8893525","42089.6198312","Mapping"
"Mixed","Female","tile","33","F_gnash.wav","space","325.702910777","403","32897.6087137","39785.1489955","40552.374986","41319.570329","42086.7954181","42854.0520566","43621.5046011","29745.3587232","33664.2908547","34431.4116808","35198.7752868","35965.8783851","36716.1882445","37483.4166388","38250.7495964","39017.8893525","42856.9927514","Mapping"
"Mixed","Female","tile","33","M_knife.wav","None","730.422385037","403","32897.6087137","39785.1489955","40552.374986","41319.570329","42086.7954181","42854.0520566","43621.5046011","44388.9394179","33664.2908547","34431.4116808","35198.7752868","35965.8783851","36716.1882445","37483.4166388","38250.7495964","39017.8893525","43624.5144038","Mapping"
"Mixed","Female","tile","32","M_priest.wav","None","728.886986151","403","47508.4361318","39785.1489955","40552.374986","41319.570329","42086.7954181","42854.0520566","43621.5046011","44388.9394179","33664.2908547","34431.4116808","35198.7752868","35965.8783851","36716.1882445","37483.4166388","38250.7495964","39017.8893525","44392.143324","Mapping"
"Mixed","Female","tile","32","F_tile.wav","None","727.421596181","403","47508.4361318","39785.1489955","40552.374986","41319.570329","42086.7954181","42854.0520566","43621.5046011","44388.9394179","48274.9506105","34431.4116808","35198.7752868","35965.8783851","36716.1882445","37483.4166388","38250.7495964","39017.8893525","47512.419756","Mapping"
"Mixed","Female","tile","32","M_cad.wav","space","318.582084496","403","47508.4361318","39785.1489955","40552.374986","41319.570329","42086.7954181","42854.0520566","43621.5046011","44388.9394179","48274.9506105","49042.1285261","35198.7752868","35965.8783851","36716.1882445","37483.4166388","38250.7495964","39017.8893525","48278.1449016","Mapping"
"Mixed","Female","tile","32","F_cling.wav","space","251.503173728","403","47508.4361318","39785.1489955","40552.374986","41319.570329","42086.7954181","42854.0520566","43621.5046011","44388.9394179","48274.9506105","49042.1285261","49792.3981221","35965.8783851","36716.1882445","37483.4166388","38250.7495964","39017.8893525","49045.2227606","Mapping"
"Mixed","Female","tile","32","F_tile.wav","None","741.848638281","403","47508.4361318","39785.1489955","40552.374986","41319.570329","42086.7954181","42854.0520566","43621.5046011","44388.9394179","48274.9506105","49042.1285261","49792.3981221","50559.8293333","36716.1882445","37483.4166388","38250.7495964","39017.8893525","49795.2835308","Mapping"
"Mixed","Female","tile","32","F_park.wav","None","740.359812509","403","47508.4361318","39785.1489955","40552.374986","41319.570329","42086.7954181","42854.0520566","43621.5046011","44388.9394179","48274.9506105","49042.1285261","49792.3981221","50559.8293333","51327.3056154","37483.4166388","38250.7495964","39017.8893525","50563.0831174","Mapping"
"Mixed","Female","tile","32","M_romp.wav","space","50.047699362","403","47508.4361318","39785.1489955","40552.374986","41319.570329","42086.7954181","42854.0520566","43621.5046011","44388.9394179","48274.9506105","49042.1285261","49792.3981221","50559.8293333","51327.3056154","52094.0298219","38250.7495964","39017.8893525","51330.7183478","Mapping"
"Mixed","Female","tile","32","F_bluff.wav","None","738.691004924","403","47508.4361318","39785.1489955","40552.374986","41319.570329","42086.7954181","42854.0520566","43621.5046011","44388.9394179","48274.9506105","49042.1285261","49792.3981221","50559.8293333","51327.3056154","52094.0298219","52861.743174","39017.8893525","52096.9756246","Mapping"
"Mixed","Female","tile","32","F_tile.wav","None","736.850028392","403","47508.4361318","39785.1489955","40552.374986","41319.570329","42086.7954181","42854.0520566","43621.5046011","44388.9394179","48274.9506105","49042.1285261","49792.3981221","50559.8293333","51327.3056154","52094.0298219","52861.743174","53628.5370896","52865.1483944","Mapping"
"Mixed","Female","tile","32","F_dime.wav","None","736.53393425","403","47508.4361318","54396.1945544","40552.374986","41319.570329","42086.7954181","42854.0520566","43621.5046011","44388.9394179","48274.9506105","49042.1285261","49792.3981221","50559.8293333","51327.3056154","52094.0298219","52861.743174","53628.5370896","53631.5817465","Mapping"
"Mixed","Female","tile","32","M_priest.wav","space","322.230985854","403","47508.4361318","54396.1945544","55163.3916995","41319.570329","42086.7954181","42854.0520566","43621.5046011","44388.9394179","48274.9506105","49042.1285261","49792.3981221","50559.8293333","51327.3056154","52094.0298219","52861.743174","53628.5370896","54399.4810893","Mapping"
"Mixed","Female","tile","32","M_romp.wav","None","733.498891816","403","47508.4361318","54396.1945544","55163.3916995","55930.6261037","42086.7954181","42854.0520566","43621.5046011","44388.9394179","48274.9506105","49042.1285261","49792.3981221","50559.8293333","51327.3056154","52094.0298219","52861.743174","53628.5370896","55166.7599627","Mapping"
"Mixed","Female","tile","32","F_tile.wav","None","732.56262904","403","47508.4361318","54396.1945544","55163.3916995","55930.6261037","56697.340094","42854.0520566","43621.5046011","44388.9394179","48274.9506105","49042.1285261","49792.3981221","50559.8293333","51327.3056154","52094.0298219","52861.743174","53628.5370896","55933.984451","Mapping"
"Mixed","Female","tile","32","M_jaw.wav","None","732.28289187","403","47508.4361318","54396.1945544","55163.3916995","55930.6261037","56697.340094","57465.4572774","43621.5046011","44388.9394179","48274.9506105","49042.1285261","49792.3981221","50559.8293333","51327.3056154","52094.0298219","52861.743174","53628.5370896","56700.1756248","Mapping"
"Mixed","Female","tile","32","M_cling.wav","space","686.833276879","403","47508.4361318","54396.1945544","55163.3916995","55930.6261037","56697.340094","57465.4572774","58232.6294836","44388.9394179","48274.9506105","49042.1285261","49792.3981221","50559.8293333","51327.3056154","52094.0298219","52861.743174","53628.5370896","57468.8838311","Mapping"
"Mixed","Female","tile","32","M_jaw.wav","None","728.016826324","403","47508.4361318","54396.1945544","55163.3916995","55930.6261037","56697.340094","57465.4572774","58232.6294836","58999.3705167","48274.9506105","49042.1285261","49792.3981221","50559.8293333","51327.3056154","52094.0298219","52861.743174","53628.5370896","58236.2435306","Mapping"
"Mixed","Female","cave","23","M_romp.wav","None","728.283943608","403","62118.9750987","54396.1945544","55163.3916995","55930.6261037","56697.340094","57465.4572774","58232.6294836","58999.3705167","48274.9506105","49042.1285261","49792.3981221","50559.8293333","51327.3056154","52094.0298219","52861.743174","53628.5370896","59002.3803194","Mapping"
"Mixed","Female","cave","23","M_dime.wav","None","728.060995229","403","62118.9750987","54396.1945544","55163.3916995","55930.6261037","56697.340094","57465.4572774","58232.6294836","58999.3705167","62886.0793994","49042.1285261","49792.3981221","50559.8293333","51327.3056154","52094.0298219","52861.743174","53628.5370896","62122.7480941","Mapping"
"Mixed","Female","cave","23","F_bluff.wav","None","727.279774379","403","62118.9750987","54396.1945544","55163.3916995","55930.6261037","56697.340094","57465.4572774","58232.6294836","58999.3705167","62886.0793994","63653.3456529","49792.3981221","50559.8293333","51327.3056154","52094.0298219","52861.743174","53628.5370896","62889.7790802","Mapping"
"Mixed","Female","cave","23","F_cave.wav","None","725.839924999","403","62118.9750987","54396.1945544","55163.3916995","55930.6261037","56697.340094","57465.4572774","58232.6294836","58999.3705167","62886.0793994","63653.3456529","64420.0199815","50559.8293333","51327.3056154","52094.0298219","52861.743174","53628.5370896","63657.2857089","Mapping"
"Mixed","Female","cave","23","M_depth.wav","space","235.629370902","403","62118.9750987","54396.1945544","55163.3916995","55930.6261037","56697.340094","57465.4572774","58232.6294836","58999.3705167","62886.0793994","63653.3456529","64420.0199815","65170.1925262","51327.3056154","52094.0298219","52861.743174","53628.5370896","64423.0249766","Mapping"
"Mixed","Female","cave","23","F_cling.wav","None","742.15451628","403","62118.9750987","54396.1945544","55163.3916995","55930.6261037","56697.340094","57465.4572774","58232.6294836","58999.3705167","62886.0793994","63653.3456529","64420.0199815","65170.1925262","65937.4650894","52094.0298219","52861.743174","53628.5370896","65173.0511929","Mapping"
"Mixed","Female","cave","23","F_cave.wav","None","740.77055417","403","62118.9750987","54396.1945544","55163.3916995","55930.6261037","56697.340094","57465.4572774","58232.6294836","58999.3705167","62886.0793994","63653.3456529","64420.0199815","65170.1925262","65937.4650894","66704.6502163","52861.743174","53628.5370896","65940.3988733","Mapping"
"Mixed","Female","cave","23","F_romp.wav","space","351.204957813","403","62118.9750987","54396.1945544","55163.3916995","55930.6261037","56697.340094","57465.4572774","58232.6294836","58999.3705167","62886.0793994","63653.3456529","64420.0199815","65170.1925262","65937.4650894","66704.6502163","67472.398723","53628.5370896","66707.5215024","Mapping"
"Mixed","Female","cave","23","F_cave.wav","None","737.822647672","403","62118.9750987","54396.1945544","55163.3916995","55930.6261037","56697.340094","57465.4572774","58232.6294836","58999.3705167","62886.0793994","63653.3456529","64420.0199815","65170.1925262","65937.4650894","66704.6502163","67472.398723","68239.5057278","67475.477634","Mapping"
"Mixed","Female","cave","23","M_bluff.wav","space","387.953577563","403","62118.9750987","69006.5030614","55163.3916995","55930.6261037","56697.340094","57465.4572774","58232.6294836","58999.3705167","62886.0793994","63653.3456529","64420.0199815","65170.1925262","65937.4650894","66704.6502163","67472.398723","68239.5057278","68242.6955118","Mapping"
"Mixed","Female","cave","23","M_bluff.wav","None","735.909859184","403","62118.9750987","69006.5030614","69773.5277372","55930.6261037","56697.340094","57465.4572774","58232.6294836","58999.3705167","62886.0793994","63653.3456529","64420.0199815","65170.1925262","65937.4650894","66704.6502163","67472.398723","68239.5057278","69009.5290896","Mapping"
"Mixed","Female","cave","23","F_cave.wav","None","734.737126622","403","62118.9750987","69006.5030614","69773.5277372","70540.8051084","56697.340094","57465.4572774","58232.6294836","58999.3705167","62886.0793994","63653.3456529","64420.0199815","65170.1925262","65937.4650894","66704.6502163","67472.398723","68239.5057278","69777.1763382","Mapping"
"Mixed","Female","cave","23","M_reek.wav","space","353.004469536","403","62118.9750987","69006.5030614","69773.5277372","70540.8051084","71308.0238877","57465.4572774","58232.6294836","58999.3705167","62886.0793994","63653.3456529","64420.0199815","65170.1925262","65937.4650894","66704.6502163","67472.398723","68239.5057278","70543.6836057","Mapping"
"Mixed","Female","cave","23","M_romp.wav","None","733.001915738","403","62118.9750987","69006.5030614","69773.5277372","70540.8051084","71308.0238877","72075.5719813","58232.6294836","58999.3705167","62886.0793994","63653.3456529","64420.0199815","65170.1925262","65937.4650894","66704.6502163","67472.398723","68239.5057278","71310.9180094","Mapping"
"Mixed","Female","cave","23","M_bluff.wav","None","730.876995251","403","62118.9750987","69006.5030614","69773.5277372","70540.8051084","71308.0238877","72075.5719813","72843.3355121","58999.3705167","62886.0793994","63653.3456529","64420.0199815","65170.1925262","65937.4650894","66704.6502163","67472.398723","68239.5057278","72078.8071365","Mapping"
"Mixed","Female","cave","23","F_knife.wav","None","729.359023739","403","62118.9750987","69006.5030614","69773.5277372","70540.8051084","71308.0238877","72075.5719813","72843.3355121","73610.1071928","62886.0793994","63653.3456529","64420.0199815","65170.1925262","65937.4650894","66704.6502163","67472.398723","68239.5057278","72846.7584602","Mapping"
"Mixed","Male","done","39","F_reek.wav","None","729.263775051","403","76746.1255211","69006.5030614","69773.5277372","70540.8051084","71308.0238877","72075.5719813","72843.3355121","73610.1071928","62886.0793994","63653.3456529","64420.0199815","65170.1925262","65937.4650894","66704.6502163","67472.398723","68239.5057278","73613.287061","Mapping"
"Mixed","Male","done","39","M_done.wav","None","728.320600931","403","76746.1255211","69006.5030614","69773.5277372","70540.8051084","71308.0238877","72075.5719813","72843.3355121","73610.1071928","77513.5600376","63653.3456529","64420.0199815","65170.1925262","65937.4650894","66704.6502163","67472.398723","68239.5057278","76749.7720188","Mapping"
"Mixed","Male","done","39","M_lash.wav","space","405.658741482","403","76746.1255211","69006.5030614","69773.5277372","70540.8051084","71308.0238877","72075.5719813","72843.3355121","73610.1071928","77513.5600376","78280.7367514","64420.0199815","65170.1925262","65937.4650894","66704.6502163","67472.398723","68239.5057278","77517.0752304","Mapping"
"Mixed","Male","done","39","M_done.wav","None","725.737464614","403","76746.1255211","69006.5030614","69773.5277372","70540.8051084","71308.0238877","72075.5719813","72843.3355121","73610.1071928","77513.5600376","78280.7367514","79047.3600002","65170.1925262","65937.4650894","66704.6502163","67472.398723","68239.5057278","78284.5001318","Mapping"
"Mixed","Male","done","39","M_dime.wav","space","329.380356707","403","76746.1255211","69006.5030614","69773.5277372","70540.8051084","71308.0238877","72075.5719813","72843.3355121","73610.1071928","77513.5600376","78280.7367514","79047.3600002","79797.7801315","65937.4650894","66704.6502163","67472.398723","68239.5057278","79050.3157186","Mapping"
"Mixed","Male","done","39","M_done.wav","None","741.078234743","403","76746.1255211","69006.5030614","69773.5277372","70540.8051084","71308.0238877","72075.5719813","72843.3355121","73610.1071928","77513.5600376","78280.7367514","79047.3600002","79797.7801315","80565.0508921","66704.6502163","67472.398723","68239.5057278","79800.8935964","Mapping"
"Mixed","Male","done","39","F_jaw.wav","space","310.649690218","403","76746.1255211","69006.5030614","69773.5277372","70540.8051084","71308.0238877","72075.5719813","72843.3355121","73610.1071928","77513.5600376","78280.7367514","79047.3600002","79797.7801315","80565.0508921","81331.9803192","67472.398723","68239.5057278","80568.0679064","Mapping"
"Mixed","Male","done","39","F_knife.wav","None","739.743549377","403","76746.1255211","69006.5030614","69773.5277372","70540.8051084","71308.0238877","72075.5719813","72843.3355121","73610.1071928","77513.5600376","78280.7367514","79047.3600002","79797.7801315","80565.0508921","81331.9803192","82099.1798686","68239.5057278","81334.5655589","Mapping"
"Mixed","Male","done","39","F_bluff.wav","None","738.903135993","403","76746.1255211","69006.5030614","69773.5277372","70540.8051084","71308.0238877","72075.5719813","72843.3355121","73610.1071928","77513.5600376","78280.7367514","79047.3600002","79797.7801315","80565.0508921","81331.9803192","82099.1798686","82866.2952865","82101.8194933","Mapping"
"Mixed","Male","done","39","F_lash.wav","None","737.941934261","403","76746.1255211","83633.5912864","69773.5277372","70540.8051084","71308.0238877","72075.5719813","72843.3355121","73610.1071928","77513.5600376","78280.7367514","79047.3600002","79797.7801315","80565.0508921","81331.9803192","82099.1798686","82866.2952865","82869.1524509","Mapping"
"Mixed","Male","done","39","M_priest.wav","None","736.752976198","403","76746.1255211","83633.5912864","84400.795944","70540.8051084","71308.0238877","72075.5719813","72843.3355121","73610.1071928","77513.5600376","78280.7367514","79047.3600002","79797.7801315","80565.0508921","81331.9803192","82099.1798686","82866.2952865","83636.56293","Mapping"
"Mixed","Male","done","39","M_done.wav","None","736.150234472","403","76746.1255211","83633.5912864","84400.795944","85167.9669484","71308.0238877","72075.5719813","72843.3355121","73610.1071928","77513.5600376","78280.7367514","79047.3600002","79797.7801315","80565.0508921","81331.9803192","82099.1798686","82866.2952865","84403.4400755","Mapping"
"Mixed","Male","done","39","F_greet.wav","space","330.611380283","403","76746.1255211","83633.5912864","84400.795944","85167.9669484","85935.21277","72075.5719813","72843.3355121","73610.1071928","77513.5600376","78280.7367514","79047.3600002","79797.7801315","80565.0508921","81331.9803192","82099.1798686","82866.2952865","85171.0377466","Mapping"
"Mixed","Male","done","39","F_gnash.wav","None","733.290666714","403","76746.1255211","83633.5912864","84400.795944","85167.9669484","85935.21277","86702.7873052","72843.3355121","73610.1071928","77513.5600376","78280.7367514","79047.3600002","79797.7801315","80565.0508921","81331.9803192","82099.1798686","82866.2952865","85938.0191551","Mapping"
"Mixed","Male","done","39","M_priest.wav","space","41.8163379654","403","76746.1255211","83633.5912864","84400.795944","85167.9669484","85935.21277","86702.7873052","87470.0208078","73610.1071928","77513.5600376","78280.7367514","79047.3600002","79797.7801315","80565.0508921","81331.9803192","82099.1798686","82866.2952865","86705.8926574","Mapping"
"Mixed","Male","done","39","F_gnash.wav","None","730.050103273","403","76746.1255211","83633.5912864","84400.795944","85167.9669484","85935.21277","86702.7873052","87470.0208078","88237.2585167","77513.5600376","78280.7367514","79047.3600002","79797.7801315","80565.0508921","81331.9803192","82099.1798686","82866.2952865","87473.1832491","Mapping"
"Mixed","Female","ball","9","M_knife.wav","space","705.638460349","403","91356.6966387","83633.5912864","84400.795944","85167.9669484","85935.21277","86702.7873052","87470.0208078","88237.2585167","77513.5600376","78280.7367514","79047.3600002","79797.7801315","80565.0508921","81331.9803192","82099.1798686","82866.2952865","88240.0730141","Mapping"
"Mixed","Female","ball","9","F_ball.wav","None","729.339793324","403","91356.6966387","83633.5912864","84400.795944","85167.9669484","85935.21277","86702.7873052","87470.0208078","88237.2585167","92123.4274558","78280.7367514","79047.3600002","79797.7801315","80565.0508921","81331.9803192","82099.1798686","82866.2952865","91360.1616528","Mapping"
"Mixed","Female","ball","9","F_jaw.wav","space","222.22512681","403","91356.6966387","83633.5912864","84400.795944","85167.9669484","85935.21277","86702.7873052","87470.0208078","88237.2585167","92123.4274558","92890.512526","79047.3600002","79797.7801315","80565.0508921","81331.9803192","82099.1798686","82866.2952865","92126.471512","Mapping"
"Mixed","Female","ball","9","F_cling.wav","None","728.256300557","403","91356.6966387","83633.5912864","84400.795944","85167.9669484","85935.21277","86702.7873052","87470.0208078","88237.2585167","92123.4274558","92890.512526","93657.9218032","79797.7801315","80565.0508921","81331.9803192","82099.1798686","82866.2952865","92893.6061598","Mapping"
"Mixed","Female","ball","9","F_ball.wav","None","726.656901184","403","91356.6966387","83633.5912864","84400.795944","85167.9669484","85935.21277","86702.7873052","87470.0208078","88237.2585167","92123.4274558","92890.512526","93657.9218032","94425.0639626","80565.0508921","81331.9803192","82099.1798686","82866.2952865","93661.1233056","Mapping"
"Mixed","Female","ball","9","M_bluff.wav","space","263.745802455","403","91356.6966387","83633.5912864","84400.795944","85167.9669484","85935.21277","86702.7873052","87470.0208078","88237.2585167","92123.4274558","92890.512526","93657.9218032","94425.0639626","95175.2692582","81331.9803192","82099.1798686","82866.2952865","94427.9851271","Mapping"
"Mixed","Female","ball","9","F_romp.wav","None","741.872675717","403","91356.6966387","83633.5912864","84400.795944","85167.9669484","85935.21277","86702.7873052","87470.0208078","88237.2585167","92123.4274558","92890.512526","93657.9218032","94425.0639626","95175.2692582","95942.54062","82099.1798686","82866.2952865","95178.1438501","Mapping"
"Mixed","Female","ball","9","F_ball.wav","None","741.009427235","403","91356.6966387","83633.5912864","84400.795944","85167.9669484","85935.21277","86702.7873052","87470.0208078","88237.2585167","92123.4274558","92890.512526","93657.9218032","94425.0639626","95175.2692582","95942.54062","96709.6866858","82866.2952865","95945.381559","Mapping"
"Mixed","Female","ball","9","M_lash.wav","space","311.17220642","403","91356.6966387","83633.5912864","84400.795944","85167.9669484","85935.21277","86702.7873052","87470.0208078","88237.2585167","92123.4274558","92890.512526","93657.9218032","94425.0639626","95175.2692582","95942.54062","96709.6866858","97476.9916995","96712.5101974","Mapping"
"Mixed","Female","ball","9","M_greet.wav","None","738.79286414","403","91356.6966387","98244.104113","84400.795944","85167.9669484","85935.21277","86702.7873052","87470.0208078","88237.2585167","92123.4274558","92890.512526","93657.9218032","94425.0639626","95175.2692582","95942.54062","96709.6866858","97476.9916995","97479.7461033","Mapping"
"Mixed","Female","ball","9","M_priest.wav","None","737.363230437","403","91356.6966387","98244.104113","99011.4322631","85167.9669484","85935.21277","86702.7873052","87470.0208078","88237.2585167","92123.4274558","92890.512526","93657.9218032","94425.0639626","95175.2692582","95942.54062","96709.6866858","97476.9916995","98247.2055587","Mapping"
"Mixed","Female","ball","9","M_reek.wav","None","736.237972043","403","91356.6966387","98244.104113","99011.4322631","99778.5389675","85935.21277","86702.7873052","87470.0208078","88237.2585167","92123.4274558","92890.512526","93657.9218032","94425.0639626","95175.2692582","95942.54062","96709.6866858","97476.9916995","99014.3906856","Mapping"
"Mixed","Female","ball","9","M_reek.wav","None","735.989483539","403","91356.6966387","98244.104113","99011.4322631","99778.5389675","100545.782385","86702.7873052","87470.0208078","88237.2585167","92123.4274558","92890.512526","93657.9218032","94425.0639626","95175.2692582","95942.54062","96709.6866858","97476.9916995","99781.1680753","Mapping"
"Mixed","Female","ball","9","M_gnash.wav","None","734.879248776","403","91356.6966387","98244.104113","99011.4322631","99778.5389675","100545.782385","101313.097615","87470.0208078","88237.2585167","92123.4274558","92890.512526","93657.9218032","94425.0639626","95175.2692582","95942.54062","96709.6866858","97476.9916995","100548.426216","Mapping"
"Mixed","Female","ball","9","F_ball.wav","None","733.922854532","403","91356.6966387","98244.104113","99011.4322631","99778.5389675","100545.782385","101313.097615","102080.225653","88237.2585167","92123.4274558","92890.512526","93657.9218032","94425.0639626","95175.2692582","95942.54062","96709.6866858","97476.9916995","101315.789521","Mapping"
"Mixed","Female","ball","9","F_priest.wav","space","251.879662275","403","91356.6966387","98244.104113","99011.4322631","99778.5389675","100545.782385","101313.097615","102080.225653","102848.698892","92123.4274558","92890.512526","93657.9218032","94425.0639626","95175.2692582","95942.54062","96709.6866858","97476.9916995","102082.819606","Mapping"
"Mixed","Male","tile","26","F_gnash.wav","None","728.694985621","403","105984.080526","98244.104113","99011.4322631","99778.5389675","100545.782385","101313.097615","102080.225653","102848.698892","92123.4274558","92890.512526","93657.9218032","94425.0639626","95175.2692582","95942.54062","96709.6866858","97476.9916995","102852.407587","Mapping"
"Mixed","Male","tile","26","M_tile.wav","None","728.083530441","403","105984.080526","98244.104113","99011.4322631","99778.5389675","100545.782385","101313.097615","102080.225653","102848.698892","106750.595005","92890.512526","93657.9218032","94425.0639626","95175.2692582","95942.54062","96709.6866858","97476.9916995","105987.971305","Mapping"
"Mixed","Male","tile","26","M_depth.wav","space","350.26989691","403","105984.080526","98244.104113","99011.4322631","99778.5389675","100545.782385","101313.097615","102080.225653","102848.698892","106750.595005","107517.901521","93657.9218032","94425.0639626","95175.2692582","95942.54062","96709.6866858","97476.9916995","106753.415812","Mapping"
"Mixed","Male","tile","26","M_tile.wav","None","727.129539941","403","105984.080526","98244.104113","99011.4322631","99778.5389675","100545.782385","101313.097615","102080.225653","102848.698892","106750.595005","107517.901521","108285.061709","94425.0639626","95175.2692582","95942.54062","96709.6866858","97476.9916995","107521.061559","Mapping"
"Mixed","Male","tile","26","F_depth.wav","space","340.710460208","403","105984.080526","98244.104113","99011.4322631","99778.5389675","100545.782385","101313.097615","102080.225653","102848.698892","106750.595005","107517.901521","108285.061709","109035.370667","95175.2692582","95942.54062","96709.6866858","97476.9916995","108287.98077","Mapping"
"Mixed","Male","tile","26","F_knife.wav","None","742.630760651","403","105984.080526","98244.104113","99011.4322631","99778.5389675","100545.782385","101313.097615","102080.225653","102848.698892","106750.595005","107517.901521","108285.061709","109035.370667","109802.518836","95942.54062","96709.6866858","97476.9916995","109038.053559","Mapping"
"Mixed","Male","tile","26","F_gnash.wav","None","741.651530378","403","105984.080526","98244.104113","99011.4322631","99778.5389675","100545.782385","101313.097615","102080.225653","102848.698892","106750.595005","107517.901521","108285.061709","109035.370667","109802.518836","110569.74693","96709.6866858","97476.9916995","109805.558986","Mapping"
"Mixed","Male","tile","26","M_bluff.wav","None","741.104375571","403","105984.080526","98244.104113","99011.4322631","99778.5389675","100545.782385","101313.097615","102080.225653","102848.698892","106750.595005","107517.901521","108285.061709","109035.370667","109802.518836","110569.74693","111337.032413","97476.9916995","110572.573747","Mapping"
"Mixed","Male","tile","26","F_jaw.wav","None","740.298816934","403","105984.080526","98244.104113","99011.4322631","99778.5389675","100545.782385","101313.097615","102080.225653","102848.698892","106750.595005","107517.901521","108285.061709","109035.370667","109802.518836","110569.74693","111337.032413","112104.237972","111339.944864","Mapping"
"Mixed","Male","tile","26","F_dime.wav","None","739.09814097","403","105984.080526","112871.405671","99011.4322631","99778.5389675","100545.782385","101313.097615","102080.225653","102848.698892","106750.595005","107517.901521","108285.061709","109035.370667","109802.518836","110569.74693","111337.032413","112104.237972","112107.563568","Mapping"
"Mixed","Male","tile","26","M_tile.wav","None","739.03624434","403","105984.080526","112871.405671","113638.62385","99778.5389675","100545.782385","101313.097615","102080.225653","102848.698892","106750.595005","107517.901521","108285.061709","109035.370667","109802.518836","110569.74693","111337.032413","112104.237972","112874.320225","Mapping"
"Mixed","Male","tile","26","F_jaw.wav","space","326.355831232","403","105984.080526","112871.405671","113638.62385","114405.86246","100545.782385","101313.097615","102080.225653","102848.698892","106750.595005","107517.901521","108285.061709","109035.370667","109802.518836","110569.74693","111337.032413","112104.237972","113641.33108","Mapping"
"Mixed","Male","tile","26","F_lash.wav","None","737.010779325","403","105984.080526","112871.405671","113638.62385","114405.86246","115173.083944","101313.097615","102080.225653","102848.698892","106750.595005","107517.901521","108285.061709","109035.370667","109802.518836","110569.74693","111337.032413","112104.237972","114408.804057","Mapping"
"Mixed","Male","tile","26","M_romp.wav","None","736.732844729","403","105984.080526","112871.405671","113638.62385","114405.86246","115173.083944","115940.330967","102080.225653","102848.698892","106750.595005","107517.901521","108285.061709","109035.370667","109802.518836","110569.74693","111337.032413","112104.237972","115175.804395","Mapping"
"Mixed","Male","tile","26","M_tile.wav","None","736.494873185","403","105984.080526","112871.405671","113638.62385","114405.86246","115173.083944","115940.330967","116707.54554","102848.698892","106750.595005","107517.901521","108285.061709","109035.370667","109802.518836","110569.74693","111337.032413","112104.237972","115942.689953","Mapping"
"Mixed","Male","tile","26","M_gnash.wav","space","411.551549565","403","105984.080526","112871.405671","113638.62385","114405.86246","115173.083944","115940.330967","116707.54554","117474.727361","106750.595005","107517.901521","108285.061709","109035.370667","109802.518836","110569.74693","111337.032413","112104.237972","116710.171643","Mapping"
"Mixed","Female","done","45","M_reek.wav","None","734.525596257","403","120611.342723","112871.405671","113638.62385","114405.86246","115173.083944","115940.330967","116707.54554","117474.727361","106750.595005","107517.901521","108285.061709","109035.370667","109802.518836","110569.74693","111337.032413","112104.237972","117477.410855","Mapping"
"Mixed","Female","done","45","F_done.wav","None","728.044169024","403","120611.342723","112871.405671","113638.62385","114405.86246","115173.083944","115940.330967","116707.54554","117474.727361","121377.897164","107517.901521","108285.061709","109035.370667","109802.518836","110569.74693","111337.032413","112104.237972","120615.062535","Mapping"
"Mixed","Female","done","45","M_depth.wav","space","282.56781213","403","120611.342723","112871.405671","113638.62385","114405.86246","115173.083944","115940.330967","116707.54554","117474.727361","121377.897164","122145.949746","108285.061709","109035.370667","109802.518836","110569.74693","111337.032413","112104.237972","121381.115794","Mapping"
"Mixed","Female","done","45","M_jaw.wav","None","725.661445875","403","120611.342723","112871.405671","113638.62385","114405.86246","115173.083944","115940.330967","116707.54554","117474.727361","121377.897164","122145.949746","122913.194667","109035.370667","109802.518836","110569.74693","111337.032413","112104.237972","122149.430986","Mapping"
"Mixed","Female","done","45","M_greet.wav","None","725.272337906","403","120611.342723","112871.405671","113638.62385","114405.86246","115173.083944","115940.330967","116707.54554","117474.727361","121377.897164","122145.949746","122913.194667","123679.64815","109802.518836","110569.74693","111337.032413","112104.237972","122916.552113","Mapping"
"Mixed","Female","done","45","F_done.wav","None","725.810779259","403","120611.342723","112871.405671","113638.62385","114405.86246","115173.083944","115940.330967","116707.54554","117474.727361","121377.897164","122145.949746","122913.194667","123679.64815","124429.839925","110569.74693","111337.032413","112104.237972","123682.750798","Mapping"
"Mixed","Female","done","45","F_knife.wav","space","218.008938711","403","120611.342723","112871.405671","113638.62385","114405.86246","115173.083944","115940.330967","116707.54554","117474.727361","121377.897164","122145.949746","122913.194667","123679.64815","124429.839925","125197.07523","111337.032413","112104.237972","124432.68477","Mapping"
"Mixed","Female","done","45","F_bluff.wav","None","740.711361635","403","120611.342723","112871.405671","113638.62385","114405.86246","115173.083944","115940.330967","116707.54554","117474.727361","121377.897164","122145.949746","122913.194667","123679.64815","124429.839925","125197.07523","125964.624526","112104.237972","125199.870498","Mapping"
"Mixed","Female","done","45","F_done.wav","None","739.093934186","403","120611.342723","112871.405671","113638.62385","114405.86246","115173.083944","115940.330967","116707.54554","117474.727361","121377.897164","122145.949746","122913.194667","123679.64815","124429.839925","125197.07523","125964.624526","126731.767587","125967.783362","Mapping"
"Mixed","Female","done","45","M_greet.wav","space","365.590535104","403","120611.342723","127498.745991","113638.62385","114405.86246","115173.083944","115940.330967","116707.54554","117474.727361","121377.897164","122145.949746","122913.194667","123679.64815","124429.839925","125197.07523","125964.624526","126731.767587","126735.136752","Mapping"
"Mixed","Female","done","45","F_done.wav","None","737.370140851","403","120611.342723","127498.745991","128265.930517","114405.86246","115173.083944","115940.330967","116707.54554","117474.727361","121377.897164","122145.949746","122913.194667","123679.64815","124429.839925","125197.07523","125964.624526","126731.767587","127501.918047","Mapping"
"Mixed","Female","done","45","M_dime.wav","space","316.128751263","403","120611.342723","127498.745991","128265.930517","129033.197672","115173.083944","115940.330967","116707.54554","117474.727361","121377.897164","122145.949746","122913.194667","123679.64815","124429.839925","125197.07523","125964.624526","126731.767587","128268.57615","Mapping"
"Mixed","Female","done","45","M_romp.wav","None","735.651755705","403","120611.342723","127498.745991","128265.930517","129033.197672","129800.370479","115940.330967","116707.54554","117474.727361","121377.897164","122145.949746","122913.194667","123679.64815","124429.839925","125197.07523","125964.624526","126731.767587","129035.921127","Mapping"
"Mixed","Female","done","45","F_bluff.wav","None","734.919511713","403","120611.342723","127498.745991","128265.930517","129033.197672","129800.370479","130567.609089","116707.54554","117474.727361","121377.897164","122145.949746","122913.194667","123679.64815","124429.839925","125197.07523","125964.624526","126731.767587","129802.8797","Mapping"
"Mixed","Female","done","45","F_cad.wav","None","733.9111357","403","120611.342723","127498.745991","128265.930517","129033.197672","129800.370479","130567.609089","131334.841991","117474.727361","121377.897164","122145.949746","122913.194667","123679.64815","124429.839925","125197.07523","125964.624526","126731.767587","130570.529052","Mapping"
"Mixed","Female","done","45","M_knife.wav","None","733.639812097","403","120611.342723","127498.745991","128265.930517","129033.197672","129800.370479","130567.609089","131334.841991","132102.126573","121377.897164","122145.949746","122913.194667","123679.64815","124429.839925","125197.07523","125964.624526","126731.767587","131337.584676","Mapping"
"Mixed","Male","cave","15","F_gnash.wav","None","732.526572887","403","135238.506366","127498.745991","128265.930517","129033.197672","129800.370479","130567.609089","131334.841991","132102.126573","121377.897164","122145.949746","122913.194667","123679.64815","124429.839925","125197.07523","125964.624526","126731.767587","132105.316357","Mapping"
"Mixed","Male","cave","15","F_depth.wav","None","727.712150197","403","135238.506366","127498.745991","128265.930517","129033.197672","129800.370479","130567.609089","131334.841991","132102.126573","136005.865465","122145.949746","122913.194667","123679.64815","124429.839925","125197.07523","125964.624526","126731.767587","135242.190122","Mapping"
"Mixed","Male","cave","15","M_gnash.wav","None","717.492882628","403","135238.506366","127498.745991","128265.930517","129033.197672","129800.370479","130567.609089","131334.841991","132102.126573","136005.865465","136772.676207","122913.194667","123679.64815","124429.839925","125197.07523","125964.624526","126731.767587","136019.0717","Mapping"
"Mixed","Male","cave","15","F_priest.wav","None","725.210140925","403","135238.506366","127498.745991","128265.930517","129033.197672","129800.370479","130567.609089","131334.841991","132102.126573","136005.865465","136772.676207","137540.406385","123679.64815","124429.839925","125197.07523","125964.624526","126731.767587","136777.947643","Mapping"
"Mixed","Male","cave","15","M_cave.wav","None","725.556281861","403","135238.506366","127498.745991","128265.930517","129033.197672","129800.370479","130567.609089","131334.841991","132102.126573","136005.865465","136772.676207","137540.406385","138307.483343","124429.839925","125197.07523","125964.624526","126731.767587","137543.906854","Mapping"
"Mixed","Male","cave","15","M_knife.wav","space","428.345690481","403","135238.506366","127498.745991","128265.930517","129033.197672","129800.370479","130567.609089","131334.841991","132102.126573","136005.865465","136772.676207","137540.406385","138307.483343","139057.457577","125197.07523","125964.624526","126731.767587","138311.35339","Mapping"
"Mixed","Male","cave","15","F_bluff.wav","None","740.833051968","403","135238.506366","127498.745991","128265.930517","129033.197672","129800.370479","130567.609089","131334.841991","132102.126573","136005.865465","136772.676207","137540.406385","138307.483343","139057.457577","139824.778817","125964.624526","126731.767587","139060.684019","Mapping"
"Mixed","Male","cave","15","M_cave.wav","None","740.593878087","403","135238.506366","127498.745991","128265.930517","129033.197672","129800.370479","130567.609089","131334.841991","132102.126573","136005.865465","136772.676207","137540.406385","138307.483343","139057.457577","139824.778817","140591.559812","126731.767587","139827.81446","Mapping"
"Mixed","Male","cave","15","F_bluff.wav","space","244.355004746","403","135238.506366","127498.745991","128265.930517","129033.197672","129800.370479","130567.609089","131334.841991","132102.126573","136005.865465","136772.676207","137540.406385","138307.483343","139057.457577","139824.778817","140591.559812","141359.216977","140594.329841","Mapping"
"Mixed","Male","cave","15","M_cave.wav","None","738.594553899","403","135238.506366","142126.186066","128265.930517","129033.197672","129800.370479","130567.609089","131334.841991","132102.126573","136005.865465","136772.676207","137540.406385","138307.483343","139057.457577","139824.778817","140591.559812","141359.216977","141362.199437","Mapping"
"Mixed","Male","cave","15","F_priest.wav","space","335.032187868","403","135238.506366","142126.186066","142893.216451","129033.197672","129800.370479","130567.609089","131334.841991","132102.126573","136005.865465","136772.676207","137540.406385","138307.483343","139057.457577","139824.778817","140591.559812","141359.216977","142129.705465","Mapping"
"Mixed","Male","cave","15","M_cave.wav","None","737.240638584","403","135238.506366","142126.186066","142893.216451","143660.429221","129800.370479","130567.609089","131334.841991","132102.126573","136005.865465","136772.676207","137540.406385","138307.483343","139057.457577","139824.778817","140591.559812","141359.216977","142896.158949","Mapping"
"Mixed","Male","cave","15","M_cad.wav","space","326.331793331","403","135238.506366","142126.186066","142893.216451","143660.429221","144428.099005","130567.609089","131334.841991","132102.126573","136005.865465","136772.676207","137540.406385","138307.483343","139057.457577","139824.778817","140591.559812","141359.216977","143663.334761","Mapping"
"Mixed","Male","cave","15","F_bluff.wav","None","734.315868467","403","135238.506366","142126.186066","142893.216451","143660.429221","144428.099005","145195.200601","131334.841991","132102.126573","136005.865465","136772.676207","137540.406385","138307.483343","139057.457577","139824.778817","140591.559812","141359.216977","144431.106404","Mapping"
"Mixed","Male","cave","15","M_depth.wav","None","733.969126828","403","135238.506366","142126.186066","142893.216451","143660.429221","144428.099005","145195.200601","145961.993915","132102.126573","136005.865465","136772.676207","137540.406385","138307.483343","139057.457577","139824.778817","140591.559812","141359.216977","145198.275305","Mapping"
"Mixed","Male","cave","15","F_priest.wav","None","733.466741629","403","135238.506366","142126.186066","142893.216451","143660.429221","144428.099005","145195.200601","145961.993915","146729.312751","136005.865465","136772.676207","137540.406385","138307.483343","139057.457577","139824.778817","140591.559812","141359.216977","145965.194817","Mapping"
"Mixed","Male","ball","2","F_lash.wav","None","733.028657269","403","149865.791099","142126.186066","142893.216451","143660.429221","144428.099005","145195.200601","145961.993915","146729.312751","136005.865465","136772.676207","137540.406385","138307.483343","139057.457577","139824.778817","140591.559812","141359.216977","146732.359512","Mapping"
"Mixed","Male","ball","2","M_ball.wav","None","728.432375472","403","149865.791099","142126.186066","142893.216451","143660.429221","144428.099005","145195.200601","145961.993915","146729.312751","150632.539944","136772.676207","137540.406385","138307.483343","139057.457577","139824.778817","140591.559812","141359.216977","149869.061409","Mapping"
"Mixed","Male","ball","2","M_cling.wav","space","212.464675773","403","149865.791099","142126.186066","142893.216451","143660.429221","144428.099005","145195.200601","145961.993915","146729.312751","150632.539944","151399.726573","137540.406385","138307.483343","139057.457577","139824.778817","140591.559812","141359.216977","150635.28293","Mapping"
"Mixed","Male","ball","2","F_lash.wav","None","727.083567996","403","149865.791099","142126.186066","142893.216451","143660.429221","144428.099005","145195.200601","145961.993915","146729.312751","150632.539944","151399.726573","152166.985014","138307.483343","139057.457577","139824.778817","140591.559812","141359.216977","151402.680789","Mapping"
"Mixed","Male","ball","2","M_ball.wav","None","726.548431907","403","149865.791099","142126.186066","142893.216451","143660.429221","144428.099005","145195.200601","145961.993915","146729.312751","150632.539944","151399.726573","152166.985014","152934.040639","139057.457577","139824.778817","140591.559812","141359.216977","152169.999625","Mapping"
"Mixed","Male","ball","2","F_lash.wav","space","278.71429082","403","149865.791099","142126.186066","142893.216451","143660.429221","144428.099005","145195.200601","145961.993915","146729.312751","150632.539944","151399.726573","152166.985014","152934.040639","153684.40969","139824.778817","140591.559812","141359.216977","152936.967812","Mapping"
"Mixed","Male","ball","2","M_cad.wav","None","741.497990675","403","149865.791099","142126.186066","142893.216451","143660.429221","144428.099005","145195.200601","145961.993915","146729.312751","150632.539944","151399.726573","152166.985014","152934.040639","153684.40969","154451.52","140591.559812","141359.216977","153687.573934","Mapping"
"Mixed","Male","ball","2","M_cad.wav","None","741.723041981","403","149865.791099","142126.186066","142893.216451","143660.429221","144428.099005","145195.200601","145961.993915","146729.312751","150632.539944","151399.726573","152166.985014","152934.040639","153684.40969","154451.52","155218.799474","141359.216977","154454.387681","Mapping"
"Mixed","Male","ball","2","F_bluff.wav","None","741.252206732","403","149865.791099","142126.186066","142893.216451","143660.429221","144428.099005","145195.200601","145961.993915","146729.312751","150632.539944","151399.726573","152166.985014","152934.040639","153684.40969","154451.52","155218.799474","155986.061822","155221.603756","Mapping"
"Mixed","Male","ball","2","M_ball.wav","None","740.659680683","403","149865.791099","156753.244845","142893.216451","143660.429221","144428.099005","145195.200601","145961.993915","146729.312751","150632.539944","151399.726573","152166.985014","152934.040639","153684.40969","154451.52","155218.799474","155986.061822","155989.069822","Mapping"
"Mixed","Male","ball","2","F_gnash.wav","space","400.593727827","403","149865.791099","156753.244845","157520.560676","143660.429221","144428.099005","145195.200601","145961.993915","146729.312751","150632.539944","151399.726573","152166.985014","152934.040639","153684.40969","154451.52","155218.799474","155986.061822","156756.131155","Mapping"
"Mixed","Male","ball","2","M_ball.wav","None","738.778741565","403","149865.791099","156753.244845","157520.560676","158287.70524","144428.099005","145195.200601","145961.993915","146729.312751","150632.539944","151399.726573","152166.985014","152934.040639","153684.40969","154451.52","155218.799474","155986.061822","157523.375474","Mapping"
"Mixed","Male","ball","2","M_jaw.wav","space","375.084769912","403","149865.791099","156753.244845","157520.560676","158287.70524","159054.994629","145195.200601","145961.993915","146729.312751","150632.539944","151399.726573","152166.985014","152934.040639","153684.40969","154451.52","155218.799474","155986.061822","158290.615287","Mapping"
"Mixed","Male","ball","2","F_gnash.wav","None","736.39481701","403","149865.791099","156753.244845","157520.560676","158287.70524","159054.994629","159822.18847","145961.993915","146729.312751","150632.539944","151399.726573","152166.985014","152934.040639","153684.40969","154451.52","155218.799474","155986.061822","159058.432301","Mapping"
"Mixed","Male","ball","2","F_cling.wav","None","735.942009371","403","149865.791099","156753.244845","157520.560676","158287.70524","159054.994629","159822.18847","160589.406949","146729.312751","150632.539944","151399.726573","152166.985014","152934.040639","153684.40969","154451.52","155218.799474","155986.061822","159825.101221","Mapping"
"Mixed","Male","ball","2","F_cad.wav","None","735.75421609","403","149865.791099","156753.244845","157520.560676","158287.70524","159054.994629","159822.18847","160589.406949","161356.604996","150632.539944","151399.726573","152166.985014","152934.040639","153684.40969","154451.52","155218.799474","155986.061822","160592.145728","Mapping"
"Mixed","Male","tile","30","M_cad.wav","None","735.341370571","403","164493.046686","156753.244845","157520.560676","158287.70524","159054.994629","159822.18847","160589.406949","161356.604996","150632.539944","151399.726573","152166.985014","152934.040639","153684.40969","154451.52","155218.799474","155986.061822","161359.37262","Mapping"
"Mixed","Male","tile","30","M_tile.wav","None","728.828694671","403","164493.046686","156753.244845","157520.560676","158287.70524","159054.994629","159822.18847","160589.406949","161356.604996","165260.175024","151399.726573","152166.985014","152934.040639","153684.40969","154451.52","155218.799474","155986.061822","164496.775512","Mapping"
"Mixed","Male","tile","30","M_gnash.wav","space","230.656601023","403","164493.046686","156753.244845","157520.560676","158287.70524","159054.994629","159822.18847","160589.406949","161356.604996","165260.175024","166027.496864","152166.985014","152934.040639","153684.40969","154451.52","155218.799474","155986.061822","165264.081728","Mapping"
"Mixed","Male","tile","30","F_jolt.wav","None","727.50302311","403","164493.046686","156753.244845","157520.560676","158287.70524","159054.994629","159822.18847","160589.406949","161356.604996","165260.175024","166027.496864","166794.145653","152934.040639","153684.40969","154451.52","155218.799474","155986.061822","166030.944752","Mapping"
"Mixed","Male","tile","30","F_gnash.wav","space","250.551586971","403","164493.046686","156753.244845","157520.560676","158287.70524","159054.994629","159822.18847","160589.406949","161356.604996","165260.175024","166027.496864","166794.145653","167562.081052","153684.40969","154451.52","155218.799474","155986.061822","166797.135324","Mapping"
"Mixed","Male","tile","30","M_tile.wav","None","726.18005611","403","164493.046686","156753.244845","157520.560676","158287.70524","159054.994629","159822.18847","160589.406949","161356.604996","165260.175024","166027.496864","166794.145653","167562.081052","168329.259568","154451.52","155218.799474","155986.061822","167565.415662","Mapping"
"Mixed","Male","tile","30","F_park.wav","space","299.265802838","403","164493.046686","156753.244845","157520.560676","158287.70524","159054.994629","159822.18847","160589.406949","161356.604996","165260.175024","166027.496864","166794.145653","167562.081052","168329.259568","169078.822761","155218.799474","155986.061822","168332.434028","Mapping"
"Mixed","Male","tile","30","F_priest.wav","None","742.793614976","403","164493.046686","156753.244845","157520.560676","158287.70524","159054.994629","159822.18847","160589.406949","161356.604996","165260.175024","166027.496864","166794.145653","167562.081052","168329.259568","169078.822761","169846.025615","155986.061822","169081.649578","Mapping"
"Mixed","Male","tile","30","F_bluff.wav","None","742.848600727","403","164493.046686","156753.244845","157520.560676","158287.70524","159054.994629","159822.18847","160589.406949","161356.604996","165260.175024","166027.496864","166794.145653","167562.081052","168329.259568","169078.822761","169846.025615","170613.242892","169848.760488","Mapping"
"Mixed","Male","tile","30","M_dime.wav","None","742.385878228","403","164493.046686","171380.566536","157520.560676","158287.70524","159054.994629","159822.18847","160589.406949","161356.604996","165260.175024","166027.496864","166794.145653","167562.081052","168329.259568","169078.822761","169846.025615","170613.242892","170615.875305","Mapping"
"Mixed","Male","tile","30","M_tile.wav","None","741.487774998","403","164493.046686","171380.566536","172147.755268","158287.70524","159054.994629","159822.18847","160589.406949","161356.604996","165260.175024","166027.496864","166794.145653","167562.081052","168329.259568","169078.822761","169846.025615","170613.242892","171383.518648","Mapping"
"Mixed","Male","tile","30","F_cad.wav","space","445.992263034","403","164493.046686","171380.566536","172147.755268","172914.935887","159054.994629","159822.18847","160589.406949","161356.604996","165260.175024","166027.496864","166794.145653","167562.081052","168329.259568","169078.822761","169846.025615","170613.242892","172150.686047","Mapping"
"Mixed","Male","tile","30","F_park.wav","None","739.956582431","403","164493.046686","171380.566536","172147.755268","172914.935887","173682.163381","159822.18847","160589.406949","161356.604996","165260.175024","166027.496864","166794.145653","167562.081052","168329.259568","169078.822761","169846.025615","170613.242892","172917.824","Mapping"
"Mixed","Male","tile","30","M_tile.wav","None","739.052469376","403","164493.046686","171380.566536","172147.755268","172914.935887","173682.163381","174449.487324","160589.406949","161356.604996","165260.175024","166027.496864","166794.145653","167562.081052","168329.259568","169078.822761","169846.025615","170613.242892","173685.418066","Mapping"
"Mixed","Male","tile","30","F_jaw.wav","space","407.259342726","403","164493.046686","171380.566536","172147.755268","172914.935887","173682.163381","174449.487324","175216.99816","161356.604996","165260.175024","166027.496864","166794.145653","167562.081052","168329.259568","169078.822761","169846.025615","170613.242892","174452.402179","Mapping"
"Mixed","Male","tile","30","M_depth.wav","None","736.824488267","403","164493.046686","171380.566536","172147.755268","172914.935887","173682.163381","174449.487324","175216.99816","175984.357258","165260.175024","166027.496864","166794.145653","167562.081052","168329.259568","169078.822761","169846.025615","170613.242892","175220.203869","Mapping"
"Mixed","Male","tile","29","M_lash.wav","None","736.453408841","403","179120.575699","171380.566536","172147.755268","172914.935887","173682.163381","174449.487324","175216.99816","175984.357258","165260.175024","166027.496864","166794.145653","167562.081052","168329.259568","169078.822761","169846.025615","170613.242892","175987.541333","Mapping"
"Mixed","Male","tile","29","F_romp.wav","None","728.021633811","403","179120.575699","171380.566536","172147.755268","172914.935887","173682.163381","174449.487324","175216.99816","175984.357258","179886.900883","166027.496864","166794.145653","167562.081052","168329.259568","169078.822761","169846.025615","170613.242892","179124.011268","Mapping"
"Mixed","Male","tile","29","F_romp.wav","None","728.909821715","403","179120.575699","171380.566536","172147.755268","172914.935887","173682.163381","174449.487324","175216.99816","175984.357258","179886.900883","180654.088113","166794.145653","167562.081052","168329.259568","169078.822761","169846.025615","170613.242892","179890.149859","Mapping"
"Mixed","Male","tile","29","M_tile.wav","None","729.007474147","403","179120.575699","171380.566536","172147.755268","172914.935887","173682.163381","174449.487324","175216.99816","175984.357258","179886.900883","180654.088113","181421.422272","167562.081052","168329.259568","169078.822761","169846.025615","170613.242892","180657.130967","Mapping"
"Mixed","Male","tile","29","M_gnash.wav","space","357.302384917","403","179120.575699","171380.566536","172147.755268","172914.935887","173682.163381","174449.487324","175216.99816","175984.357258","179886.900883","180654.088113","181421.422272","182188.702047","168329.259568","169078.822761","169846.025615","170613.242892","181424.392413","Mapping"
"Mixed","Male","tile","29","F_priest.wav","None","727.070948575","403","179120.575699","171380.566536","172147.755268","172914.935887","173682.163381","174449.487324","175216.99816","175984.357258","179886.900883","180654.088113","181421.422272","182188.702047","182955.8397","169078.822761","169846.025615","170613.242892","182191.56492","Mapping"
"Mixed","Male","tile","29","F_reek.wav","None","727.098290808","403","179120.575699","171380.566536","172147.755268","172914.935887","173682.163381","174449.487324","175216.99816","175984.357258","179886.900883","180654.088113","181421.422272","182188.702047","182955.8397","183723.009202","169846.025615","170613.242892","182958.601916","Mapping"
"Mixed","Male","tile","29","F_dime.wav","None","726.662911009","403","179120.575699","171380.566536","172147.755268","172914.935887","173682.163381","174449.487324","175216.99816","175984.357258","179886.900883","180654.088113","181421.422272","182188.702047","182955.8397","183723.009202","184473.326272","170613.242892","183726.097427","Mapping"
"Mixed","Male","tile","29","M_tile.wav","None","743.23410308","403","179120.575699","171380.566536","172147.755268","172914.935887","173682.163381","174449.487324","175216.99816","175984.357258","179886.900883","180654.088113","181421.422272","182188.702047","182955.8397","183723.009202","184473.326272","185240.548657","184475.931944","Mapping"
"Mixed","Male","tile","29","M_depth.wav","space","246.329389978","403","179120.575699","186008.30708","172147.755268","172914.935887","173682.163381","174449.487324","175216.99816","175984.357258","179886.900883","180654.088113","181421.422272","182188.702047","182955.8397","183723.009202","184473.326272","185240.548657","185243.369465","Mapping"
"Mixed","Male","tile","29","F_jaw.wav","None","739.724920131","403","179120.575699","186008.30708","186775.529465","172914.935887","173682.163381","174449.487324","175216.99816","175984.357258","179886.900883","180654.088113","181421.422272","182188.702047","182955.8397","183723.009202","184473.326272","185240.548657","186011.74415","Mapping"
"Mixed","Male","tile","29","F_gnash.wav","None","739.53532381","403","179120.575699","186008.30708","186775.529465","187542.206198","173682.163381","174449.487324","175216.99816","175984.357258","179886.900883","180654.088113","181421.422272","182188.702047","182955.8397","183723.009202","184473.326272","185240.548657","186778.788657","Mapping"
"Mixed","Male","tile","29","M_tile.wav","None","739.903098438","403","179120.575699","186008.30708","186775.529465","187542.206198","188309.475756","174449.487324","175216.99816","175984.357258","179886.900883","180654.088113","181421.422272","182188.702047","182955.8397","183723.009202","184473.326272","185240.548657","187545.367737","Mapping"
"Mixed","Male","tile","29","F_gnash.wav","space","309.013333637","403","179120.575699","186008.30708","186775.529465","187542.206198","188309.475756","189076.6717","175216.99816","175984.357258","179886.900883","180654.088113","181421.422272","182188.702047","182955.8397","183723.009202","184473.326272","185240.548657","188312.681765","Mapping"
"Mixed","Male","tile","29","M_tile.wav","None","738.300394267","403","179120.575699","186008.30708","186775.529465","187542.206198","188309.475756","189076.6717","189843.996244","175984.357258","179886.900883","180654.088113","181421.422272","182188.702047","182955.8397","183723.009202","184473.326272","185240.548657","189079.619906","Mapping"
"Mixed","Male","tile","29","M_depth.wav","space","375.677596312","403","179120.575699","186008.30708","186775.529465","187542.206198","188309.475756","189076.6717","189843.996244","190611.170254","179886.900883","180654.088113","181421.422272","182188.702047","182955.8397","183723.009202","184473.326272","185240.548657","189847.048413","Mapping"
"Mixed","Male","cave","14","F_knife.wav","None","736.689877696","403","193747.421146","186008.30708","186775.529465","187542.206198","188309.475756","189076.6717","189843.996244","190611.170254","179886.900883","180654.088113","181421.422272","182188.702047","182955.8397","183723.009202","184473.326272","185240.548657","190614.033428","Mapping"
"Mixed","Male","cave","14","F_depth.wav","None","728.082027752","403","193747.421146","186008.30708","186775.529465","187542.206198","188309.475756","189076.6717","189843.996244","190611.170254","194514.26524","180654.088113","181421.422272","182188.702047","182955.8397","183723.009202","184473.326272","185240.548657","193751.444733","Mapping"
"Mixed","Male","cave","14","F_greet.wav","None","729.554629419","403","193747.421146","186008.30708","186775.529465","187542.206198","188309.475756","189076.6717","189843.996244","190611.170254","194514.26524","195281.996019","181421.422272","182188.702047","182955.8397","183723.009202","184473.326272","185240.548657","194517.128113","Mapping"
"Mixed","Male","cave","14","F_bluff.wav","None","727.999399416","403","193747.421146","186008.30708","186775.529465","187542.206198","188309.475756","189076.6717","189843.996244","190611.170254","194514.26524","195281.996019","196049.554629","182188.702047","182955.8397","183723.009202","184473.326272","185240.548657","195285.670761","Mapping"
"Mixed","Male","cave","14","M_cave.wav","None","727.222084533","403","193747.421146","186008.30708","186775.529465","187542.206198","188309.475756","189076.6717","189843.996244","190611.170254","194514.26524","195281.996019","196049.554629","196816.103662","182955.8397","183723.009202","184473.326272","185240.548657","196053.013934","Mapping"
"Mixed","Male","cave","14","F_priest.wav","space","307.731229812","403","193747.421146","186008.30708","186775.529465","187542.206198","188309.475756","189076.6717","189843.996244","190611.170254","194514.26524","195281.996019","196049.554629","196816.103662","197583.197446","183723.009202","184473.326272","185240.548657","196818.972244","Mapping"
"Mixed","Male","cave","14","F_jolt.wav","None","727.801690344","403","193747.421146","186008.30708","186775.529465","187542.206198","188309.475756","189076.6717","189843.996244","190611.170254","194514.26524","195281.996019","196049.554629","196816.103662","197583.197446","198350.366949","184473.326272","185240.548657","197586.166685","Mapping"
"Mixed","Male","cave","14","F_knife.wav","None","727.184525691","403","193747.421146","186008.30708","186775.529465","187542.206198","188309.475756","189076.6717","189843.996244","190611.170254","194514.26524","195281.996019","196049.554629","196816.103662","197583.197446","198350.366949","199117.610667","185240.548657","198353.679925","Mapping"
"Mixed","Male","cave","14","M_cave.wav","None","727.336863987","403","193747.421146","186008.30708","186775.529465","187542.206198","188309.475756","189076.6717","189843.996244","190611.170254","194514.26524","195281.996019","196049.554629","196816.103662","197583.197446","198350.366949","199117.610667","199884.903963","199120.540845","Mapping"
"Mixed","Male","cave","14","M_cad.wav","space","235.717408359","403","193747.421146","200635.145615","186775.529465","187542.206198","188309.475756","189076.6717","189843.996244","190611.170254","194514.26524","195281.996019","196049.554629","196816.103662","197583.197446","198350.366949","199117.610667","199884.903963","199887.964845","Mapping"
"Mixed","Male","cave","14","M_cling.wav","None","741.973333061","403","193747.421146","200635.145615","201402.601765","187542.206198","188309.475756","189076.6717","189843.996244","190611.170254","194514.26524","195281.996019","196049.554629","196816.103662","197583.197446","198350.366949","199117.610667","199884.903963","200638.422836","Mapping"
"Mixed","Male","cave","14","F_dime.wav","None","741.957408376","403","193747.421146","200635.145615","201402.601765","202169.535399","188309.475756","189076.6717","189843.996244","190611.170254","194514.26524","195281.996019","196049.554629","196816.103662","197583.197446","198350.366949","199117.610667","199884.903963","201405.674066","Mapping"
"Mixed","Male","cave","14","M_cave.wav","None","741.574309766","403","193747.421146","200635.145615","201402.601765","202169.535399","202936.732845","189076.6717","189843.996244","190611.170254","194514.26524","195281.996019","196049.554629","196816.103662","197583.197446","198350.366949","199117.610667","199884.903963","202172.775061","Mapping"
"Mixed","Male","cave","14","M_cling.wav","space","324.276882689","403","193747.421146","200635.145615","201402.601765","202169.535399","202936.732845","203703.959737","189843.996244","190611.170254","194514.26524","195281.996019","196049.554629","196816.103662","197583.197446","198350.366949","199117.610667","199884.903963","202939.401315","Mapping"
"Mixed","Male","cave","14","M_cave.wav","None","740.269972011","403","193747.421146","200635.145615","201402.601765","202169.535399","202936.732845","203703.959737","204471.220883","190611.170254","194514.26524","195281.996019","196049.554629","196816.103662","197583.197446","198350.366949","199117.610667","199884.903963","203706.788057","Mapping"
"Mixed","Male","cave","14","M_cad.wav","space","612.087586895","403","193747.421146","200635.145615","201402.601765","202169.535399","202936.732845","203703.959737","204471.220883","205238.873841","194514.26524","195281.996019","196049.554629","196816.103662","197583.197446","198350.366949","199117.610667","199884.903963","204489.599399","Mapping"
"Mixed","Female","ball","10","F_cling.wav","None","738.014047034","403","208374.809841","200635.145615","201402.601765","202169.535399","202936.732845","203703.959737","204471.220883","205238.873841","194514.26524","195281.996019","196049.554629","196816.103662","197583.197446","198350.366949","199117.610667","199884.903963","205242.07985","Mapping"
"Mixed","Female","ball","10","F_ball.wav","None","728.557971772","403","208374.809841","200635.145615","201402.601765","202169.535399","202936.732845","203703.959737","204471.220883","205238.873841","209142.262385","195281.996019","196049.554629","196816.103662","197583.197446","198350.366949","199117.610667","199884.903963","208378.507718","Mapping"
"Mixed","Female","ball","10","M_cad.wav","space","437.9640189","403","208374.809841","200635.145615","201402.601765","202169.535399","202936.732845","203703.959737","204471.220883","205238.873841","209142.262385","209908.720376","196049.554629","196816.103662","197583.197446","198350.366949","199117.610667","199884.903963","209145.725296","Mapping"
"Mixed","Female","ball","10","F_ball.wav","None","728.76018798","403","208374.809841","200635.145615","201402.601765","202169.535399","202936.732845","203703.959737","204471.220883","205238.873841","209142.262385","209908.720376","210675.944563","196816.103662","197583.197446","198350.366949","199117.610667","199884.903963","209911.46847","Mapping"
"Mixed","Female","ball","10","M_bluff.wav","space","330.488788895","403","208374.809841","200635.145615","201402.601765","202169.535399","202936.732845","203703.959737","204471.220883","205238.873841","209142.262385","209908.720376","210675.944563","211443.253183","197583.197446","198350.366949","199117.610667","199884.903963","210679.241014","Mapping"
"Mixed","Female","ball","10","F_ball.wav","None","727.129239589","403","208374.809841","200635.145615","201402.601765","202169.535399","202936.732845","203703.959737","204471.220883","205238.873841","209142.262385","209908.720376","210675.944563","211443.253183","212210.486385","198350.366949","199117.610667","199884.903963","211446.141897","Mapping"
"Mixed","Female","ball","10","M_greet.wav","space","249.960863963","403","208374.809841","200635.145615","201402.601765","202169.535399","202936.732845","203703.959737","204471.220883","205238.873841","209142.262385","209908.720376","210675.944563","211443.253183","212210.486385","212977.667906","199117.610667","199884.903963","212213.744977","Mapping"
"Mixed","Female","ball","10","F_ball.wav","None","725.607661996","403","208374.809841","200635.145615","201402.601765","202169.535399","202936.732845","203703.959737","204471.220883","205238.873841","209142.262385","209908.720376","210675.944563","211443.253183","212210.486385","212977.667906","213727.829333","199884.903963","212980.87662","Mapping"
"Mixed","Female","ball","10","F_jolt.wav","space","290.87849753","403","208374.809841","200635.145615","201402.601765","202169.535399","202936.732845","203703.959737","204471.220883","205238.873841","209142.262385","209908.720376","210675.944563","211443.253183","212210.486385","212977.667906","213727.829333","214495.146066","213730.803981","Mapping"
"Mixed","Female","ball","10","M_dime.wav","None","733.025352005","403","208374.809841","215262.392188","201402.601765","202169.535399","202936.732845","203703.959737","204471.220883","205238.873841","209142.262385","209908.720376","210675.944563","211443.253183","212210.486385","212977.667906","213727.829333","214495.146066","214505.757747","Mapping"
"Mixed","Female","ball","10","F_knife.wav","None","740.756131243","403","208374.809841","215262.392188","216029.61908","202169.535399","202936.732845","203703.959737","204471.220883","205238.873841","209142.262385","209908.720376","210675.944563","211443.253183","212210.486385","212977.667906","213727.829333","214495.146066","215265.148695","Mapping"
"Mixed","Female","ball","10","F_park.wav","None","740.42651616","403","208374.809841","215262.392188","216029.61908","216796.761841","202936.732845","203703.959737","204471.220883","205238.873841","209142.262385","209908.720376","210675.944563","211443.253183","212210.486385","212977.667906","213727.829333","214495.146066","216032.508395","Mapping"
"Mixed","Female","ball","10","M_bluff.wav","None","740.718572866","403","208374.809841","215262.392188","216029.61908","216796.761841","217563.962592","203703.959737","204471.220883","205238.873841","209142.262385","209908.720376","210675.944563","211443.253183","212210.486385","212977.667906","213727.829333","214495.146066","216799.539681","Mapping"
"Mixed","Female","ball","10","M_reek.wav","None","740.583962761","403","208374.809841","215262.392188","216029.61908","216796.761841","217563.962592","218331.273315","204471.220883","205238.873841","209142.262385","209908.720376","210675.944563","211443.253183","212210.486385","212977.667906","213727.829333","214495.146066","217566.941747","Mapping"
"Mixed","Female","ball","10","M_depth.wav","None","740.362816956","403","208374.809841","215262.392188","216029.61908","216796.761841","217563.962592","218331.273315","219098.379117","205238.873841","209142.262385","209908.720376","210675.944563","211443.253183","212210.486385","212977.667906","213727.829333","214495.146066","218334.272601","Mapping"
"Mixed","Female","ball","10","M_depth.wav","None","740.650666878","403","208374.809841","215262.392188","216029.61908","216796.761841","217563.962592","218331.273315","219098.379117","219865.717784","209142.262385","209908.720376","210675.944563","211443.253183","212210.486385","212977.667906","213727.829333","214495.146066","219101.213146","Mapping"
"Mixed","Female","ball","12","M_park.wav","None","740.32285437","403","223002.153765","215262.392188","216029.61908","216796.761841","217563.962592","218331.273315","219098.379117","219865.717784","209142.262385","209908.720376","210675.944563","211443.253183","212210.486385","212977.667906","213727.829333","214495.146066","219868.827043","Mapping"
"Mixed","Female","ball","12","M_knife.wav","None","728.100657463","403","223002.153765","215262.392188","216029.61908","216796.761841","217563.962592","218331.273315","219098.379117","219865.717784","223768.822385","209908.720376","210675.944563","211443.253183","212210.486385","212977.667906","213727.829333","214495.146066","223005.660545","Mapping"
"Mixed","Female","ball","12","F_jolt.wav","None","729.006872978","403","223002.153765","215262.392188","216029.61908","216796.761841","217563.962592","218331.273315","219098.379117","219865.717784","223768.822385","224536.052582","210675.944563","211443.253183","212210.486385","212977.667906","213727.829333","214495.146066","223771.96139","Mapping"
"Mixed","Female","ball","12","F_ball.wav","None","729.097314645","403","223002.153765","215262.392188","216029.61908","216796.761841","217563.962592","218331.273315","219098.379117","219865.717784","223768.822385","224536.052582","225303.213972","211443.253183","212210.486385","212977.667906","213727.829333","214495.146066","224539.166047","Mapping"
"Mixed","Female","ball","12","F_park.wav","space","400.186290964","403","223002.153765","215262.392188","216029.61908","216796.761841","217563.962592","218331.273315","219098.379117","219865.717784","223768.822385","224536.052582","225303.213972","226070.845897","212210.486385","212977.667906","213727.829333","214495.146066","225306.517634","Mapping"
"Mixed","Female","ball","12","M_jaw.wav","None","726.560750976","403","223002.153765","215262.392188","216029.61908","216796.761841","217563.962592","218331.273315","219098.379117","219865.717784","223768.822385","224536.052582","225303.213972","226070.845897","226838.394592","212977.667906","213727.829333","214495.146066","226074.431099","Mapping"
"Mixed","Female","ball","12","F_ball.wav","None","726.424638182","403","223002.153765","215262.392188","216029.61908","216796.761841","217563.962592","218331.273315","219098.379117","219865.717784","223768.822385","224536.052582","225303.213972","226070.845897","226838.394592","227604.794291","213727.829333","214495.146066","226841.889653","Mapping"
"Mixed","Female","ball","12","M_knife.wav","space","306.011943612","403","223002.153765","215262.392188","216029.61908","216796.761841","217563.962592","218331.273315","219098.379117","219865.717784","223768.822385","224536.052582","225303.213972","226070.845897","226838.394592","227604.794291","228372.12154","214495.146066","227607.66738","Mapping"
"Mixed","Female","ball","12","F_ball.wav","None","726.288525853","403","223002.153765","215262.392188","216029.61908","216796.761841","217563.962592","218331.273315","219098.379117","219865.717784","223768.822385","224536.052582","225303.213972","226070.845897","226838.394592","227604.794291","228372.12154","229139.448789","228375.106103","Mapping"
"Mixed","Female","ball","12","M_reek.wav","space","340.821633581","403","223002.153765","229889.585277","216029.61908","216796.761841","217563.962592","218331.273315","219098.379117","219865.717784","223768.822385","224536.052582","225303.213972","226070.845897","226838.394592","227604.794291","228372.12154","229139.448789","229142.863625","Mapping"
"Mixed","Female","ball","12","F_ball.wav","None","741.47936143","403","223002.153765","229889.585277","230656.845221","216796.761841","217563.962592","218331.273315","219098.379117","219865.717784","223768.822385","224536.052582","225303.213972","226070.845897","226838.394592","227604.794291","228372.12154","229139.448789","229892.785277","Mapping"
"Mixed","Female","ball","12","F_jolt.wav","space","304.170366377","403","223002.153765","229889.585277","230656.845221","231424.329315","217563.962592","218331.273315","219098.379117","219865.717784","223768.822385","224536.052582","225303.213972","226070.845897","226838.394592","227604.794291","228372.12154","229139.448789","230659.536826","Mapping"
"Mixed","Female","ball","12","M_cling.wav","None","740.070159547","403","223002.153765","229889.585277","230656.845221","231424.329315","232191.6157","218331.273315","219098.379117","219865.717784","223768.822385","224536.052582","225303.213972","226070.845897","226838.394592","227604.794291","228372.12154","229139.448789","231427.415737","Mapping"
"Mixed","Female","ball","12","M_greet.wav","None","739.745351952","403","223002.153765","229889.585277","230656.845221","231424.329315","232191.6157","232958.446873","219098.379117","219865.717784","223768.822385","224536.052582","225303.213972","226070.845897","226838.394592","227604.794291","228372.12154","229139.448789","232194.93078","Mapping"
"Mixed","Female","ball","12","M_lash.wav","None","740.324356593","403","223002.153765","229889.585277","230656.845221","231424.329315","232191.6157","232958.446873","233725.770817","219865.717784","223768.822385","224536.052582","225303.213972","226070.845897","226838.394592","227604.794291","228372.12154","229139.448789","232961.741822","Mapping"
"Mixed","Female","ball","12","F_park.wav","None","740.777764935","403","223002.153765","229889.585277","230656.845221","231424.329315","232191.6157","232958.446873","233725.770817","234492.906667","223768.822385","224536.052582","225303.213972","226070.845897","226838.394592","227604.794291","228372.12154","229139.448789","233728.672151","Mapping"
"Mixed","Male","ball","5","F_gnash.wav","space","231.93029128","403","237629.481765","229889.585277","230656.845221","231424.329315","232191.6157","232958.446873","233725.770817","234492.906667","223768.822385","224536.052582","225303.213972","226070.845897","226838.394592","227604.794291","228372.12154","229139.448789","234495.76353","Mapping"
"Mixed","Male","ball","5","M_ball.wav","None","728.114478756","403","237629.481765","229889.585277","230656.845221","231424.329315","232191.6157","232958.446873","233725.770817","234492.906667","238396.830347","224536.052582","225303.213972","226070.845897","226838.394592","227604.794291","228372.12154","229139.448789","237633.144489","Mapping"
"Mixed","Male","ball","5","M_jolt.wav","space","331.635680515","403","237629.481765","229889.585277","230656.845221","231424.329315","232191.6157","232958.446873","233725.770817","234492.906667","238396.830347","239163.657014","225303.213972","226070.845897","226838.394592","227604.794291","228372.12154","229139.448789","238400.004808","Mapping"
"Mixed","Male","ball","5","M_bluff.wav","None","727.169802878","403","237629.481765","229889.585277","230656.845221","231424.329315","232191.6157","232958.446873","233725.770817","234492.906667","238396.830347","239163.657014","239930.639324","226070.845897","226838.394592","227604.794291","228372.12154","229139.448789","239167.476282","Mapping"
"Mixed","Male","ball","5","M_ball.wav","None","727.311023511","403","237629.481765","229889.585277","230656.845221","231424.329315","232191.6157","232958.446873","233725.770817","234492.906667","238396.830347","239163.657014","239930.639324","240698.23339","226838.394592","227604.794291","228372.12154","229139.448789","239934.32338","Mapping"
"Mixed","Male","ball","5","F_cad.wav","space","311.388244387","403","237629.481765","229889.585277","230656.845221","231424.329315","232191.6157","232958.446873","233725.770817","234492.906667","238396.830347","239163.657014","239930.639324","240698.23339","241465.131568","227604.794291","228372.12154","229139.448789","240702.308357","Mapping"
"Mixed","Male","ball","5","F_gnash.wav","None","726.052958053","403","237629.481765","229889.585277","230656.845221","231424.329315","232191.6157","232958.446873","233725.770817","234492.906667","238396.830347","239163.657014","239930.639324","240698.23339","241465.131568","242232.26261","228372.12154","229139.448789","241468.172319","Mapping"
"Mixed","Male","ball","5","M_ball.wav","None","726.16683552","403","237629.481765","229889.585277","230656.845221","231424.329315","232191.6157","232958.446873","233725.770817","234492.906667","238396.830347","239163.657014","239930.639324","240698.23339","241465.131568","242232.26261","242999.45615","229139.448789","242235.239963","Mapping"
"Mixed","Male","ball","5","F_greet.wav","space","349.26122101","403","237629.481765","229889.585277","230656.845221","231424.329315","232191.6157","232958.446873","233725.770817","234492.906667","238396.830347","239163.657014","239930.639324","240698.23339","241465.131568","242232.26261","242999.45615","243749.700507","243002.440113","Mapping"
"Mixed","Male","ball","5","F_lash.wav","None","741.86426308","403","237629.481765","244516.885033","230656.845221","231424.329315","232191.6157","232958.446873","233725.770817","234492.906667","238396.830347","239163.657014","239930.639324","240698.23339","241465.131568","242232.26261","242999.45615","243749.700507","243752.707305","Mapping"
"Mixed","Male","ball","5","F_gnash.wav","None","742.110948078","403","237629.481765","244516.885033","245284.03831","231424.329315","232191.6157","232958.446873","233725.770817","234492.906667","238396.830347","239163.657014","239930.639324","240698.23339","241465.131568","242232.26261","242999.45615","243749.700507","244519.92939","Mapping"
"Mixed","Male","ball","5","F_bluff.wav","None","742.543023545","403","237629.481765","244516.885033","245284.03831","246051.742347","232191.6157","232958.446873","233725.770817","234492.906667","238396.830347","239163.657014","239930.639324","240698.23339","241465.131568","242232.26261","242999.45615","243749.700507","245286.703775","Mapping"
"Mixed","Male","ball","5","M_ball.wav","None","741.274140775","403","237629.481765","244516.885033","245284.03831","246051.742347","246819.049465","232958.446873","233725.770817","234492.906667","238396.830347","239163.657014","239930.639324","240698.23339","241465.131568","242232.26261","242999.45615","243749.700507","246055.012357","Mapping"
"Mixed","Male","ball","5","F_park.wav","space","268.733295612","403","237629.481765","244516.885033","245284.03831","246051.742347","246819.049465","247586.090667","233725.770817","234492.906667","238396.830347","239163.657014","239930.639324","240698.23339","241465.131568","242232.26261","242999.45615","243749.700507","246821.976939","Mapping"
"Mixed","Male","ball","5","M_jolt.wav","None","740.236619953","403","237629.481765","244516.885033","245284.03831","246051.742347","246819.049465","247586.090667","248353.375549","234492.906667","238396.830347","239163.657014","239930.639324","240698.23339","241465.131568","242232.26261","242999.45615","243749.700507","247589.219756","Mapping"
"Mixed","Male","ball","5","M_reek.wav","None","740.308131557","403","237629.481765","244516.885033","245284.03831","246051.742347","246819.049465","247586.090667","248353.375549","249120.272826","238396.830347","239163.657014","239930.639324","240698.23339","241465.131568","242232.26261","242999.45615","243749.700507","248356.412094","Mapping"
"Mixed","Male","done","40","M_dime.wav","None","740.72548328","403","252256.828995","244516.885033","245284.03831","246051.742347","246819.049465","247586.090667","248353.375549","249120.272826","238396.830347","239163.657014","239930.639324","240698.23339","241465.131568","242232.26261","242999.45615","243749.700507","249123.368263","Mapping"
"Mixed","Male","done","40","M_done.wav","None","727.808300406","403","252256.828995","244516.885033","245284.03831","246051.742347","246819.049465","247586.090667","248353.375549","249120.272826","253023.901446","239163.657014","239930.639324","240698.23339","241465.131568","242232.26261","242999.45615","243749.700507","252260.574348","Mapping"
"Mixed","Male","done","40","F_knife.wav","space","376.797145698","403","252256.828995","244516.885033","245284.03831","246051.742347","246819.049465","247586.090667","248353.375549","249120.272826","253023.901446","253791.13615","239930.639324","240698.23339","241465.131568","242232.26261","242999.45615","243749.700507","253027.868545","Mapping"
"Mixed","Male","done","40","M_done.wav","None","726.66230984","403","252256.828995","244516.885033","245284.03831","246051.742347","246819.049465","247586.090667","248353.375549","249120.272826","253023.901446","253791.13615","254558.527099","240698.23339","241465.131568","242232.26261","242999.45615","243749.700507","253794.890817","Mapping"
"Mixed","Male","done","40","F_dime.wav","space","470.767173916","403","252256.828995","244516.885033","245284.03831","246051.742347","246819.049465","247586.090667","248353.375549","249120.272826","253023.901446","253791.13615","254558.527099","255325.144639","241465.131568","242232.26261","242999.45615","243749.700507","254561.910986","Mapping"
"Mixed","Male","done","40","F_depth.wav","None","726.71879828","403","252256.828995","244516.885033","245284.03831","246051.742347","246819.049465","247586.090667","248353.375549","249120.272826","253023.901446","253791.13615","254558.527099","255325.144639","256092.292207","242232.26261","242999.45615","243749.700507","255327.926686","Mapping"
"Mixed","Male","done","40","M_done.wav","None","726.211605594","403","252256.828995","244516.885033","245284.03831","246051.742347","246819.049465","247586.090667","248353.375549","249120.272826","253023.901446","253791.13615","254558.527099","255325.144639","256092.292207","256859.537728","242999.45615","243749.700507","256095.646648","Mapping"
"Mixed","Male","done","40","M_jaw.wav","space","494.239248801","403","252256.828995","244516.885033","245284.03831","246051.742347","246819.049465","247586.090667","248353.375549","249120.272826","253023.901446","253791.13615","254558.527099","255325.144639","256092.292207","256859.537728","257609.701859","243749.700507","256862.488038","Mapping"
"Mixed","Male","done","40","F_cling.wav","None","742.454986088","403","252256.828995","244516.885033","245284.03831","246051.742347","246819.049465","247586.090667","248353.375549","249120.272826","253023.901446","253791.13615","254558.527099","255325.144639","256092.292207","256859.537728","257609.701859","258377.404995","257612.708958","Mapping"
"Mixed","Male","done","40","F_park.wav","None","742.112751119","403","252256.828995","259144.462423","245284.03831","246051.742347","246819.049465","247586.090667","248353.375549","249120.272826","253023.901446","253791.13615","254558.527099","255325.144639","256092.292207","256859.537728","257609.701859","258377.404995","258380.357709","Mapping"
"Mixed","Male","done","40","M_priest.wav","None","741.88199034","403","252256.828995","259144.462423","259911.344676","246051.742347","246819.049465","247586.090667","248353.375549","249120.272826","253023.901446","253791.13615","254558.527099","255325.144639","256092.292207","256859.537728","257609.701859","258377.404995","259147.995343","Mapping"
"Mixed","Male","done","40","M_done.wav","None","743.10850678","403","252256.828995","259144.462423","259911.344676","260695.525258","246819.049465","247586.090667","248353.375549","249120.272826","253023.901446","253791.13615","254558.527099","255325.144639","256092.292207","256859.537728","257609.701859","258377.404995","259914.011043","Mapping"
"Mixed","Male","done","40","M_dime.wav","space","451.214422472","403","252256.828995","259144.462423","259911.344676","260695.525258","261445.813484","247586.090667","248353.375549","249120.272826","253023.901446","253791.13615","254558.527099","255325.144639","256092.292207","256859.537728","257609.701859","258377.404995","260698.471662","Mapping"
"Mixed","Male","done","40","F_jaw.wav","None","741.38200935","403","252256.828995","259144.462423","259911.344676","260695.525258","261445.813484","262213.080038","248353.375549","249120.272826","253023.901446","253791.13615","254558.527099","255325.144639","256092.292207","256859.537728","257609.701859","258377.404995","261448.673052","Mapping"
"Mixed","Male","done","40","F_reek.wav","None","741.256713402","403","252256.828995","259144.462423","259911.344676","260695.525258","261445.813484","262213.080038","262980.323756","249120.272826","253023.901446","253791.13615","254558.527099","255325.144639","256092.292207","256859.537728","257609.701859","258377.404995","262215.925784","Mapping"
"Mixed","Male","done","40","F_jaw.wav","None","741.457427386","403","252256.828995","259144.462423","259911.344676","260695.525258","261445.813484","262213.080038","262980.323756","263747.517596","253023.901446","253791.13615","254558.527099","255325.144639","256092.292207","256859.537728","257609.701859","258377.404995","262983.198047","Mapping"
"Mixed","Female","tile","31","F_lash.wav","None","741.284356918","403","266884.099906","259144.462423","259911.344676","260695.525258","261445.813484","262213.080038","262980.323756","263747.517596","253023.901446","253791.13615","254558.527099","255325.144639","256092.292207","256859.537728","257609.701859","258377.404995","263750.72631","Mapping"
"Mixed","Female","tile","31","F_cad.wav","None","728.055586573","403","266884.099906","259144.462423","259911.344676","260695.525258","261445.813484","262213.080038","262980.323756","263747.517596","267650.645634","253791.13615","254558.527099","255325.144639","256092.292207","256859.537728","257609.701859","258377.404995","266887.651155","Mapping"
"Mixed","Female","tile","31","M_cad.wav","None","729.697652627","403","266884.099906","259144.462423","259911.344676","260695.525258","261445.813484","262213.080038","262980.323756","263747.517596","267650.645634","268417.864113","254558.527099","255325.144639","256092.292207","256859.537728","257609.701859","258377.404995","267653.700507","Mapping"
"Mixed","Female","tile","31","M_romp.wav","None","729.270985816","403","266884.099906","259144.462423","259911.344676","260695.525258","261445.813484","262213.080038","262980.323756","263747.517596","267650.645634","268417.864113","269185.091306","255325.144639","256092.292207","256859.537728","257609.701859","258377.404995","268421.271437","Mapping"
"Mixed","Female","tile","31","F_reek.wav","None","729.347304907","403","266884.099906","259144.462423","259911.344676","260695.525258","261445.813484","262213.080038","262980.323756","263747.517596","267650.645634","268417.864113","269185.091306","269952.134611","256092.292207","256859.537728","257609.701859","258377.404995","269188.439136","Mapping"
"Mixed","Female","tile","31","F_tile.wav","None","730.569314677","403","266884.099906","259144.462423","259911.344676","260695.525258","261445.813484","262213.080038","262980.323756","263747.517596","267650.645634","268417.864113","269185.091306","269952.134611","270719.516244","256859.537728","257609.701859","258377.404995","269955.016113","Mapping"
"Mixed","Female","tile","31","F_reek.wav","space","387.37877924","403","266884.099906","259144.462423","259911.344676","260695.525258","261445.813484","262213.080038","262980.323756","263747.517596","267650.645634","268417.864113","269185.091306","269952.134611","270719.516244","271487.352188","257609.701859","258377.404995","270722.307005","Mapping"
"Mixed","Female","tile","31","F_tile.wav","None","727.52495762","403","266884.099906","259144.462423","259911.344676","260695.525258","261445.813484","262213.080038","262980.323756","263747.517596","267650.645634","268417.864113","269185.091306","269952.134611","270719.516244","271487.352188","272254.592601","258377.404995","271491.022423","Mapping"
"Mixed","Female","tile","31","M_lash.wav","space","299.01491059","403","266884.099906","259144.462423","259911.344676","260695.525258","261445.813484","262213.080038","262980.323756","263747.517596","267650.645634","268417.864113","269185.091306","269952.134611","270719.516244","271487.352188","272254.592601","273021.795155","272258.604169","Mapping"
"Mixed","Female","tile","31","M_lash.wav","None","726.483230479","403","266884.099906","273788.441841","259911.344676","260695.525258","261445.813484","262213.080038","262980.323756","263747.517596","267650.645634","268417.864113","269185.091306","269952.134611","270719.516244","271487.352188","272254.592601","273021.795155","273025.343399","Mapping"
"Mixed","Female","tile","31","M_priest.wav","None","727.80469479","403","266884.099906","273788.441841","274555.605934","260695.525258","261445.813484","262213.080038","262980.323756","263747.517596","267650.645634","268417.864113","269185.091306","269952.134611","270719.516244","271487.352188","272254.592601","273021.795155","273791.634629","Mapping"
"Mixed","Female","tile","31","F_tile.wav","None","728.427267168","403","266884.099906","273788.441841","274555.605934","275322.892319","261445.813484","262213.080038","262980.323756","263747.517596","267650.645634","268417.864113","269185.091306","269952.134611","270719.516244","271487.352188","272254.592601","273021.795155","274558.612432","Mapping"
"Mixed","Female","tile","31","M_jaw.wav","space","283.605633769","403","266884.099906","273788.441841","274555.605934","275322.892319","276090.025465","262213.080038","262980.323756","263747.517596","267650.645634","268417.864113","269185.091306","269952.134611","270719.516244","271487.352188","272254.592601","273021.795155","275326.076695","Mapping"
"Mixed","Female","tile","31","F_tile.wav","None","727.283680812","403","266884.099906","273788.441841","274555.605934","275322.892319","276090.025465","276857.331681","262980.323756","263747.517596","267650.645634","268417.864113","269185.091306","269952.134611","270719.516244","271487.352188","272254.592601","273021.795155","276092.717972","Mapping"
"Mixed","Female","tile","31","M_dime.wav","space","329.307042062","403","266884.099906","273788.441841","274555.605934","275322.892319","276090.025465","276857.331681","277624.397221","263747.517596","267650.645634","268417.864113","269185.091306","269952.134611","270719.516244","271487.352188","272254.592601","273021.795155","276860.38385","Mapping"
"Mixed","Female","tile","31","M_greet.wav","None","725.739568006","403","266884.099906","273788.441841","274555.605934","275322.892319","276090.025465","276857.331681","277624.397221","278391.844057","267650.645634","268417.864113","269185.091306","269952.134611","270719.516244","271487.352188","272254.592601","273021.795155","277627.690066","Mapping"
