"Condition","Talker","Target","Trial","current_stimulus","response_response","response_time_response","subject_nr","time_Audio1","time_Audio10","time_Audio11","time_Audio12","time_Audio13","time_Audio14","time_Audio15","time_Audio16","time_Audio2","time_Audio3","time_Audio4","time_Audio5","time_Audio6","time_Audio7","time_Audio8","time_Audio9","time_response","title"
"Mixed","Both","tile","27","F_park.wav","NA","NA","104","1784901.11312","NA","NA","NA","NA","NA","NA","NA","NA","NA","NA","NA","NA","NA","NA","NA","NA","Mapping"
"Mixed","Both","tile","27","M_reek.wav","None","731.199873364","104","1784901.11312","NA","NA","NA","NA","NA","NA","NA","1785667.79278","NA","NA","NA","NA","NA","NA","NA","1784909.60579","Mapping"
"Mixed","Both","tile","27","F_park.wav","None","741.981361178","104","1784901.11312","NA","NA","NA","NA","NA","NA","NA","1785667.79278","1786434.44925","NA","NA","NA","NA","NA","NA","1785671.83244","Mapping"
"Mixed","Both","tile","27","F_knife.wav","None","734.216476267","104","1784901.11312","NA","NA","NA","NA","NA","NA","NA","1785667.79278","1786434.44925","1787218.19651","NA","NA","NA","NA","NA","1786443.46474","Mapping"
"Mixed","Both","tile","27","F_cad.wav","None","728.844901096","104","1784901.11312","NA","NA","NA","NA","NA","NA","NA","1785667.79278","1786434.44925","1787218.19651","1787984.51321","NA","NA","NA","NA","1787222.29553","Mapping"
"Mixed","Both","tile","27","M_tile.wav","None","736.359355724","104","1784901.11312","NA","NA","NA","NA","NA","NA","NA","1785667.79278","1786434.44925","1787218.19651","1787984.51321","1788768.21223","NA","NA","NA","1787988.42394","Mapping"
"Mixed","Both","tile","27","M_romp.wav","space","400.548720587","104","1784901.11312","NA","NA","NA","NA","NA","NA","NA","1785667.79278","1786434.44925","1787218.19651","1787984.51321","1788768.21223","1789534.24603","NA","NA","1788772.80067","Mapping"
"Mixed","Both","tile","27","F_tile.wav","None","734.811634684","104","1784901.11312","NA","NA","NA","NA","NA","NA","NA","1785667.79278","1786434.44925","1787218.19651","1787984.51321","1788768.21223","1789534.24603","1790300.94981","NA","1789537.95642","Mapping"
"Mixed","Both","tile","27","M_bluff.wav","space","572.579490748","104","1784901.11312","NA","NA","NA","NA","NA","NA","NA","1785667.79278","1786434.44925","1787218.19651","1787984.51321","1788768.21223","1789534.24603","1790300.94981","1791084.66677","1790304.74213","Mapping"
"Mixed","Both","tile","27","M_tile.wav","None","731.895203877","104","1784901.11312","1791851.65313","NA","NA","NA","NA","NA","NA","1785667.79278","1786434.44925","1787218.19651","1787984.51321","1788768.21223","1789534.24603","1790300.94981","1791084.66677","1791088.29275","Mapping"
"Mixed","Both","tile","27","F_priest.wav","space","383.797098286","104","1784901.11312","1791851.65313","1792617.70858","NA","NA","NA","NA","NA","1785667.79278","1786434.44925","1787218.19651","1787984.51321","1788768.21223","1789534.24603","1790300.94981","1791084.66677","1791861.54946","Mapping"
"Mixed","Both","tile","27","F_tile.wav","None","737.078492588","104","1784901.11312","1791851.65313","1792617.70858","1793384.84952","NA","NA","NA","NA","1785667.79278","1786434.44925","1787218.19651","1787984.51321","1788768.21223","1789534.24603","1790300.94981","1791084.66677","1792621.20471","Mapping"
"Mixed","Both","tile","27","M_greet.wav","space","291.030607215","104","1784901.11312","1791851.65313","1792617.70858","1793384.84952","1794151.33255","NA","NA","NA","1785667.79278","1786434.44925","1787218.19651","1787984.51321","1788768.21223","1789534.24603","1790300.94981","1791084.66677","1793394.26261","Mapping"
"Mixed","Both","tile","27","M_depth.wav","None","740.298840625","104","1784901.11312","1791851.65313","1792617.70858","1793384.84952","1794151.33255","1794935.26068","NA","NA","1785667.79278","1786434.44925","1787218.19651","1787984.51321","1788768.21223","1789534.24603","1790300.94981","1791084.66677","1794154.88124","Mapping"
"Mixed","Both","tile","27","M_romp.wav","None","728.868707432","104","1784901.11312","1791851.65313","1792617.70858","1793384.84952","1794151.33255","1794935.26068","1795701.93663","NA","1785667.79278","1786434.44925","1787218.19651","1787984.51321","1788768.21223","1789534.24603","1790300.94981","1791084.66677","1794939.87138","Mapping"
"Mixed","Both","tile","27","F_reek.wav","None","720.953873519","104","1784901.11312","1791851.65313","1792617.70858","1793384.84952","1794151.33255","1794935.26068","1795701.93663","1796467.87489","1785667.79278","1786434.44925","1787218.19651","1787984.51321","1788768.21223","1789534.24603","1790300.94981","1791084.66677","1795711.95539","Mapping"
"Mixed","Both","ball","2","F_depth.wav","None","734.353130829","104","1799618.04094","1791851.65313","1792617.70858","1793384.84952","1794151.33255","1794935.26068","1795701.93663","1796467.87489","1785667.79278","1786434.44925","1787218.19651","1787984.51321","1788768.21223","1789534.24603","1790300.94981","1791084.66677","1796471.38556","Mapping"
"Mixed","Both","ball","2","F_dime.wav","None","731.320760082","104","1799618.04094","1791851.65313","1792617.70858","1793384.84952","1794151.33255","1794935.26068","1795701.93663","1796467.87489","1800384.74348","1786434.44925","1787218.19651","1787984.51321","1788768.21223","1789534.24603","1790300.94981","1791084.66677","1799621.71793","Mapping"
"Mixed","Both","ball","2","M_greet.wav","None","737.613671386","104","1799618.04094","1791851.65313","1792617.70858","1793384.84952","1794151.33255","1794935.26068","1795701.93663","1796467.87489","1800384.74348","1801151.40552","1787218.19651","1787984.51321","1788768.21223","1789534.24603","1790300.94981","1791084.66677","1800388.70491","Mapping"
"Mixed","Both","ball","2","M_ball.wav","None","729.509005134","104","1799618.04094","1791851.65313","1792617.70858","1793384.84952","1794151.33255","1794935.26068","1795701.93663","1796467.87489","1800384.74348","1801151.40552","1801935.4267","1787984.51321","1788768.21223","1789534.24603","1790300.94981","1791084.66677","1801160.98556","Mapping"
"Mixed","Both","ball","2","M_bluff.wav","space","513.303568194","104","1799618.04094","1791851.65313","1792617.70858","1793384.84952","1794151.33255","1794935.26068","1795701.93663","1796467.87489","1800384.74348","1801151.40552","1801935.4267","1802684.74227","1788768.21223","1789534.24603","1790300.94981","1791084.66677","1801939.81263","Mapping"
"Mixed","Both","ball","2","M_jaw.wav","None","733.573705191","104","1799618.04094","1791851.65313","1792617.70858","1793384.84952","1794151.33255","1794935.26068","1795701.93663","1796467.87489","1800384.74348","1801151.40552","1801935.4267","1802684.74227","1803468.41626","1789534.24603","1790300.94981","1791084.66677","1802694.10682","Mapping"
"Mixed","Both","ball","2","M_bluff.wav","None","729.06070399","104","1799618.04094","1791851.65313","1792617.70858","1793384.84952","1794151.33255","1794935.26068","1795701.93663","1796467.87489","1800384.74348","1801151.40552","1801935.4267","1802684.74227","1803468.41626","1804235.10705","1790300.94981","1791084.66677","1803472.3913","Mapping"
"Mixed","Both","ball","2","F_ball.wav","None","721.36507387","104","1799618.04094","1791851.65313","1792617.70858","1793384.84952","1794151.33255","1794935.26068","1795701.93663","1796467.87489","1800384.74348","1801151.40552","1801935.4267","1802684.74227","1803468.41626","1804235.10705","1805001.0382","1791084.66677","1804244.70224","Mapping"
"Mixed","Both","ball","2","M_romp.wav","space","376.528436362","104","1799618.04094","1791851.65313","1792617.70858","1793384.84952","1794151.33255","1794935.26068","1795701.93663","1796467.87489","1800384.74348","1801151.40552","1801935.4267","1802684.74227","1803468.41626","1804235.10705","1805001.0382","1805768.01776","1805004.4929","Mapping"
"Mixed","Both","ball","2","M_ball.wav","None","725.447396806","104","1799618.04094","1806535.04679","1792617.70858","1793384.84952","1794151.33255","1794935.26068","1795701.93663","1796467.87489","1800384.74348","1801151.40552","1801935.4267","1802684.74227","1803468.41626","1804235.10705","1805001.0382","1805768.01776","1805777.24627","Mapping"
"Mixed","Both","ball","2","F_done.wav","space","564.439887923","104","1799618.04094","1806535.04679","1807301.41914","1793384.84952","1794151.33255","1794935.26068","1795701.93663","1796467.87489","1800384.74348","1801151.40552","1801935.4267","1802684.74227","1803468.41626","1804235.10705","1805001.0382","1805768.01776","1806544.62281","Mapping"
"Mixed","Both","ball","2","F_ball.wav","None","734.511427508","104","1799618.04094","1806535.04679","1807301.41914","1808068.05397","1794151.33255","1794935.26068","1795701.93663","1796467.87489","1800384.74348","1801151.40552","1801935.4267","1802684.74227","1803468.41626","1804235.10705","1805001.0382","1805768.01776","1807305.44055","Mapping"
"Mixed","Both","ball","2","F_done.wav","space","295.905959399","104","1799618.04094","1806535.04679","1807301.41914","1808068.05397","1808834.8406","1794935.26068","1795701.93663","1796467.87489","1800384.74348","1801151.40552","1801935.4267","1802684.74227","1803468.41626","1804235.10705","1805001.0382","1805768.01776","1808077.13067","Mapping"
"Mixed","Both","ball","2","F_reek.wav","None","723.337598887","104","1799618.04094","1806535.04679","1807301.41914","1808068.05397","1808834.8406","1809601.31157","1795701.93663","1796467.87489","1800384.74348","1801151.40552","1801935.4267","1802684.74227","1803468.41626","1804235.10705","1805001.0382","1805768.01776","1808844.03572","Mapping"
"Mixed","Both","ball","2","F_greet.wav","space","138.153116786","104","1799618.04094","1806535.04679","1807301.41914","1808068.05397","1808834.8406","1809601.31157","1810367.88334","1796467.87489","1800384.74348","1801151.40552","1801935.4267","1802684.74227","1803468.41626","1804235.10705","1805001.0382","1805768.01776","1809610.88079","Mapping"
"Mixed","Both","ball","2","M_romp.wav","None","733.010082447","104","1799618.04094","1806535.04679","1807301.41914","1808068.05397","1808834.8406","1809601.31157","1810367.88334","1811134.58278","1800384.74348","1801151.40552","1801935.4267","1802684.74227","1803468.41626","1804235.10705","1805001.0382","1805768.01776","1810372.00987","Mapping"
"Mixed","Both","cave","14","M_done.wav","None","725.055365198","104","1814251.15901","1806535.04679","1807301.41914","1808068.05397","1808834.8406","1809601.31157","1810367.88334","1811134.58278","1800384.74348","1801151.40552","1801935.4267","1802684.74227","1803468.41626","1804235.10705","1805001.0382","1805768.01776","1811143.96681","Mapping"
"Mixed","Both","cave","14","F_cave.wav","None","736.138606051","104","1814251.15901","1806535.04679","1807301.41914","1808068.05397","1808834.8406","1809601.31157","1810367.88334","1811134.58278","1815017.78086","1801151.40552","1801935.4267","1802684.74227","1803468.41626","1804235.10705","1805001.0382","1805768.01776","1814254.74604","Mapping"
"Mixed","Both","cave","14","F_jaw.wav","space","726.904220923","104","1814251.15901","1806535.04679","1807301.41914","1808068.05397","1808834.8406","1809601.31157","1810367.88334","1811134.58278","1815017.78086","1815801.48113","1801935.4267","1802684.74227","1803468.41626","1804235.10705","1805001.0382","1805768.01776","1815021.99829","Mapping"
"Mixed","Both","cave","14","M_cling.wav","None","726.804667152","104","1814251.15901","1806535.04679","1807301.41914","1808068.05397","1808834.8406","1809601.31157","1810367.88334","1811134.58278","1815017.78086","1815801.48113","1816567.77679","1802684.74227","1803468.41626","1804235.10705","1805001.0382","1805768.01776","1815805.89766","Mapping"
"Mixed","Both","cave","14","F_knife.wav","None","733.599675746","104","1814251.15901","1806535.04679","1807301.41914","1808068.05397","1808834.8406","1809601.31157","1810367.88334","1811134.58278","1815017.78086","1815801.48113","1816567.77679","1817334.36247","1803468.41626","1804235.10705","1805001.0382","1805768.01776","1816572.36585","Mapping"
"Mixed","Both","cave","14","M_cave.wav","None","726.024932344","104","1814251.15901","1806535.04679","1807301.41914","1808068.05397","1808834.8406","1809601.31157","1810367.88334","1811134.58278","1815017.78086","1815801.48113","1816567.77679","1817334.36247","1818101.04337","1804235.10705","1805001.0382","1805768.01776","1817343.73134","Mapping"
"Mixed","Both","cave","14","M_romp.wav","space","291.890417881","104","1814251.15901","1806535.04679","1807301.41914","1808068.05397","1808834.8406","1809601.31157","1810367.88334","1811134.58278","1815017.78086","1815801.48113","1816567.77679","1817334.36247","1818101.04337","1818867.78332","1805001.0382","1805768.01776","1818104.90896","Mapping"
"Mixed","Both","cave","14","F_done.wav","None","729.970291548","104","1814251.15901","1806535.04679","1807301.41914","1808068.05397","1808834.8406","1809601.31157","1810367.88334","1811134.58278","1815017.78086","1815801.48113","1816567.77679","1817334.36247","1818101.04337","1818867.78332","1819634.43515","1805768.01776","1818876.72461","Mapping"
"Mixed","Both","cave","14","M_gnash.wav","None","726.631839338","104","1814251.15901","1806535.04679","1807301.41914","1808068.05397","1808834.8406","1809601.31157","1810367.88334","1811134.58278","1815017.78086","1815801.48113","1816567.77679","1817334.36247","1818101.04337","1818867.78332","1819634.43515","1820400.76762","1819643.83464","Mapping"
"Mixed","Both","cave","14","F_done.wav","None","739.245178367","104","1814251.15901","1821167.70204","1807301.41914","1808068.05397","1808834.8406","1809601.31157","1810367.88334","1811134.58278","1815017.78086","1815801.48113","1816567.77679","1817334.36247","1818101.04337","1818867.78332","1819634.43515","1820400.76762","1820404.24767","Mapping"
"Mixed","Both","cave","14","M_lash.wav","None","730.418901861","104","1814251.15901","1821167.70204","1821951.10209","1808068.05397","1808834.8406","1809601.31157","1810367.88334","1811134.58278","1815017.78086","1815801.48113","1816567.77679","1817334.36247","1818101.04337","1818867.78332","1819634.43515","1820400.76762","1821176.7469","Mapping"
"Mixed","Both","cave","14","M_cave.wav","None","724.893667604","104","1814251.15901","1821167.70204","1821951.10209","1822700.86318","1808834.8406","1809601.31157","1810367.88334","1811134.58278","1815017.78086","1815801.48113","1816567.77679","1817334.36247","1818101.04337","1818867.78332","1819634.43515","1820400.76762","1821955.8108","Mapping"
"Mixed","Both","cave","14","M_ball.wav","None","733.859690401","104","1814251.15901","1821167.70204","1821951.10209","1822700.86318","1823467.63343","1809601.31157","1810367.88334","1811134.58278","1815017.78086","1815801.48113","1816567.77679","1817334.36247","1818101.04337","1818867.78332","1819634.43515","1820400.76762","1822710.59904","Mapping"
"Mixed","Both","cave","14","F_park.wav","space","95.5536874533","104","1814251.15901","1821167.70204","1821951.10209","1822700.86318","1823467.63343","1824233.66352","1810367.88334","1811134.58278","1815017.78086","1815801.48113","1816567.77679","1817334.36247","1818101.04337","1818867.78332","1819634.43515","1820400.76762","1823477.18224","Mapping"
"Mixed","Both","cave","14","F_cave.wav","None","730.371598358","104","1814251.15901","1821167.70204","1821951.10209","1822700.86318","1823467.63343","1824233.66352","1825000.7315","1811134.58278","1815017.78086","1815801.48113","1816567.77679","1817334.36247","1818101.04337","1818867.78332","1819634.43515","1820400.76762","1824242.42023","Mapping"
"Mixed","Both","cave","14","F_knife.wav","None","727.01088569","104","1814251.15901","1821167.70204","1821951.10209","1822700.86318","1823467.63343","1824233.66352","1825000.7315","1825767.69159","1815017.78086","1815801.48113","1816567.77679","1817334.36247","1818101.04337","1818867.78332","1819634.43515","1820400.76762","1825009.60694","Mapping"
"Mixed","Both","cave","16","M_romp.wav","space","27.4014023452","104","1828884.50835","1821167.70204","1821951.10209","1822700.86318","1823467.63343","1824233.66352","1825000.7315","1825767.69159","1815017.78086","1815801.48113","1816567.77679","1817334.36247","1818101.04337","1818867.78332","1819634.43515","1820400.76762","1825777.29852","Mapping"
"Mixed","Both","cave","16","F_cling.wav","None","719.05740512","104","1828884.50835","1821167.70204","1821951.10209","1822700.86318","1823467.63343","1824233.66352","1825000.7315","1825767.69159","1829650.95057","1815801.48113","1816567.77679","1817334.36247","1818101.04337","1818867.78332","1819634.43515","1820400.76762","1828894.94573","Mapping"
"Mixed","Both","cave","16","M_reek.wav","None","733.495175198","104","1828884.50835","1821167.70204","1821951.10209","1822700.86318","1823467.63343","1824233.66352","1825000.7315","1825767.69159","1829650.95057","1830417.54985","1816567.77679","1817334.36247","1818101.04337","1818867.78332","1819634.43515","1820400.76762","1829654.78339","Mapping"
"Mixed","Both","cave","16","F_gnash.wav","None","725.643412618","104","1828884.50835","1821167.70204","1821951.10209","1822700.86318","1823467.63343","1824233.66352","1825000.7315","1825767.69159","1829650.95057","1830417.54985","1831184.22982","1817334.36247","1818101.04337","1818867.78332","1819634.43515","1820400.76762","1830426.57307","Mapping"
"Mixed","Both","cave","16","M_gnash.wav","None","737.44609952","104","1828884.50835","1821167.70204","1821951.10209","1822700.86318","1823467.63343","1824233.66352","1825000.7315","1825767.69159","1829650.95057","1830417.54985","1831184.22982","1831950.69306","1818101.04337","1818867.78332","1819634.43515","1820400.76762","1831188.30225","Mapping"
"Mixed","Both","cave","16","M_cave.wav","None","729.300622392","104","1828884.50835","1821167.70204","1821951.10209","1822700.86318","1823467.63343","1824233.66352","1825000.7315","1825767.69159","1829650.95057","1830417.54985","1831184.22982","1831950.69306","1832717.58172","1818867.78332","1819634.43515","1820400.76762","1831960.28918","Mapping"
"Mixed","Both","cave","16","F_depth.wav","space","468.969677211","104","1828884.50835","1821167.70204","1821951.10209","1822700.86318","1823467.63343","1824233.66352","1825000.7315","1825767.69159","1829650.95057","1830417.54985","1831184.22982","1831950.69306","1832717.58172","1833484.12287","1819634.43515","1820400.76762","1832727.63171","Mapping"
"Mixed","Both","cave","16","F_cave.wav","None","723.414583015","104","1828884.50835","1821167.70204","1821951.10209","1822700.86318","1823467.63343","1824233.66352","1825000.7315","1825767.69159","1829650.95057","1830417.54985","1831184.22982","1831950.69306","1832717.58172","1833484.12287","1834251.06101","1820400.76762","1833493.58976","Mapping"
"Mixed","Both","cave","16","M_jolt.wav","None","719.905158039","104","1828884.50835","1821167.70204","1821951.10209","1822700.86318","1823467.63343","1824233.66352","1825000.7315","1825767.69159","1829650.95057","1830417.54985","1831184.22982","1831950.69306","1832717.58172","1833484.12287","1834251.06101","1835017.42067","1834261.04328","Mapping"
"Mixed","Both","cave","16","F_cave.wav","space","0.0556511657778","104","1828884.50835","1835784.09508","1821951.10209","1822700.86318","1823467.63343","1824233.66352","1825000.7315","1825767.69159","1829650.95057","1830417.54985","1831184.22982","1831950.69306","1832717.58172","1833484.12287","1834251.06101","1835017.42067","1835021.26833","Mapping"
"Mixed","Both","cave","16","F_jolt.wav","space","402.766110783","104","1828884.50835","1835784.09508","1836550.5611","1822700.86318","1823467.63343","1824233.66352","1825000.7315","1825767.69159","1829650.95057","1830417.54985","1831184.22982","1831950.69306","1832717.58172","1833484.12287","1834251.06101","1835017.42067","1835793.7991","Mapping"
"Mixed","Both","cave","16","M_cave.wav","None","737.138472192","104","1828884.50835","1835784.09508","1836550.5611","1837317.36443","1823467.63343","1824233.66352","1825000.7315","1825767.69159","1829650.95057","1830417.54985","1831184.22982","1831950.69306","1832717.58172","1833484.12287","1834251.06101","1835017.42067","1836554.27644","Mapping"
"Mixed","Both","cave","16","M_reek.wav","space","317.483157021","104","1828884.50835","1835784.09508","1836550.5611","1837317.36443","1838083.80511","1824233.66352","1825000.7315","1825767.69159","1829650.95057","1830417.54985","1831184.22982","1831950.69306","1832717.58172","1833484.12287","1834251.06101","1835017.42067","1837326.99858","Mapping"
"Mixed","Both","cave","16","M_gnash.wav","None","726.271034204","104","1828884.50835","1835784.09508","1836550.5611","1837317.36443","1838083.80511","1838850.742","1825000.7315","1825767.69159","1829650.95057","1830417.54985","1831184.22982","1831950.69306","1832717.58172","1833484.12287","1834251.06101","1835017.42067","1838093.01661","Mapping"
"Mixed","Both","cave","16","F_ball.wav","None","722.76841104","104","1828884.50835","1835784.09508","1836550.5611","1837317.36443","1838083.80511","1838850.742","1839617.63005","1825767.69159","1829650.95057","1830417.54985","1831184.22982","1831950.69306","1832717.58172","1833484.12287","1834251.06101","1835017.42067","1838860.43613","Mapping"
"Mixed","Both","cave","16","F_done.wav","None","719.461185319","104","1828884.50835","1835784.09508","1836550.5611","1837317.36443","1838083.80511","1838850.742","1839617.63005","1840367.17409","1829650.95057","1830417.54985","1831184.22982","1831950.69306","1832717.58172","1833484.12287","1834251.06101","1835017.42067","1839627.46268","Mapping"
"Mixed","Both","done","42","F_cave.wav","None","734.30644568","104","1843501.20469","1835784.09508","1836550.5611","1837317.36443","1838083.80511","1838850.742","1839617.63005","1840367.17409","1829650.95057","1830417.54985","1831184.22982","1831950.69306","1832717.58172","1833484.12287","1834251.06101","1835017.42067","1840376.58254","Mapping"
"Mixed","Both","done","42","F_done.wav","None","719.905467195","104","1843501.20469","1835784.09508","1836550.5611","1837317.36443","1838083.80511","1838850.742","1839617.63005","1840367.17409","1844250.65815","1830417.54985","1831184.22982","1831950.69306","1832717.58172","1833484.12287","1834251.06101","1835017.42067","1843510.97859","Mapping"
"Mixed","Both","done","42","F_jolt.wav","space","592.068841739","104","1843501.20469","1835784.09508","1836550.5611","1837317.36443","1838083.80511","1838850.742","1839617.63005","1840367.17409","1844250.65815","1845017.29917","1831184.22982","1831950.69306","1832717.58172","1833484.12287","1834251.06101","1835017.42067","1844260.27746","Mapping"
"Mixed","Both","done","42","F_dime.wav","None","731.475037523","104","1843501.20469","1835784.09508","1836550.5611","1837317.36443","1838083.80511","1838850.742","1839617.63005","1840367.17409","1844250.65815","1845017.29917","1845783.95595","1831950.69306","1832717.58172","1833484.12287","1834251.06101","1835017.42067","1845026.95928","Mapping"
"Mixed","Both","done","42","F_tile.wav","space","442.953370817","104","1843501.20469","1835784.09508","1836550.5611","1837317.36443","1838083.80511","1838850.742","1839617.63005","1840367.17409","1844250.65815","1845017.29917","1845783.95595","1846550.31284","1832717.58172","1833484.12287","1834251.06101","1835017.42067","1845793.37275","Mapping"
"Mixed","Both","done","42","M_gnash.wav","None","726.504769147","104","1843501.20469","1835784.09508","1836550.5611","1837317.36443","1838083.80511","1838850.742","1839617.63005","1840367.17409","1844250.65815","1845017.29917","1845783.95595","1846550.31284","1847317.56385","1833484.12287","1834251.06101","1835017.42067","1846559.91916","Mapping"
"Mixed","Both","done","42","M_priest.wav","None","722.893007827","104","1843501.20469","1835784.09508","1836550.5611","1837317.36443","1838083.80511","1838850.742","1839617.63005","1840367.17409","1844250.65815","1845017.29917","1845783.95595","1846550.31284","1847317.56385","1848083.92537","1834251.06101","1835017.42067","1847327.55973","Mapping"
"Mixed","Both","done","42","M_tile.wav","None","735.81026413","104","1843501.20469","1835784.09508","1836550.5611","1837317.36443","1838083.80511","1838850.742","1839617.63005","1840367.17409","1844250.65815","1845017.29917","1845783.95595","1846550.31284","1847317.56385","1848083.92537","1848850.23496","1835017.42067","1848088.23649","Mapping"
"Mixed","Both","done","42","F_done.wav","None","728.83346169","104","1843501.20469","1835784.09508","1836550.5611","1837317.36443","1838083.80511","1838850.742","1839617.63005","1840367.17409","1844250.65815","1845017.29917","1845783.95595","1846550.31284","1847317.56385","1848083.92537","1848850.23496","1849617.23183","1848859.2285","Mapping"
"Mixed","Both","done","42","F_cave.wav","space","385.788482876","104","1843501.20469","1850384.17367","1836550.5611","1837317.36443","1838083.80511","1838850.742","1839617.63005","1840367.17409","1844250.65815","1845017.29917","1845783.95595","1846550.31284","1847317.56385","1848083.92537","1848850.23496","1849617.23183","1849626.47023","Mapping"
"Mixed","Both","done","42","M_cave.wav","None","722.01124586","104","1843501.20469","1850384.17367","1851150.37752","1837317.36443","1838083.80511","1838850.742","1839617.63005","1840367.17409","1844250.65815","1845017.29917","1845783.95595","1846550.31284","1847317.56385","1848083.92537","1848850.23496","1849617.23183","1850393.60531","Mapping"
"Mixed","Both","done","42","M_done.wav","None","719.358848976","104","1843501.20469","1850384.17367","1851150.37752","1851900.44221","1838083.80511","1838850.742","1839617.63005","1840367.17409","1844250.65815","1845017.29917","1845783.95595","1846550.31284","1847317.56385","1848083.92537","1848850.23496","1849617.23183","1851160.27106","Mapping"
"Mixed","Both","done","42","M_tile.wav","space","646.305859482","104","1843501.20469","1850384.17367","1851150.37752","1851900.44221","1852667.15526","1838850.742","1839617.63005","1840367.17409","1844250.65815","1845017.29917","1845783.95595","1846550.31284","1847317.56385","1848083.92537","1848850.23496","1849617.23183","1851909.91806","Mapping"
"Mixed","Both","done","42","M_lash.wav","None","730.476408076","104","1843501.20469","1850384.17367","1851150.37752","1851900.44221","1852667.15526","1853433.84451","1839617.63005","1840367.17409","1844250.65815","1845017.29917","1845783.95595","1846550.31284","1847317.56385","1848083.92537","1848850.23496","1849617.23183","1852676.70037","Mapping"
"Mixed","Both","done","42","M_done.wav","None","727.97148682","104","1843501.20469","1850384.17367","1851150.37752","1851900.44221","1852667.15526","1853433.84451","1854200.12781","1840367.17409","1844250.65815","1845017.29917","1845783.95595","1846550.31284","1847317.56385","1848083.92537","1848850.23496","1849617.23183","1853443.22575","Mapping"
"Mixed","Both","done","42","F_ball.wav","None","726.099443098","104","1843501.20469","1850384.17367","1851150.37752","1851900.44221","1852667.15526","1853433.84451","1854200.12781","1854967.55598","1844250.65815","1845017.29917","1845783.95595","1846550.31284","1847317.56385","1848083.92537","1848850.23496","1849617.23183","1854209.04808","Mapping"
"Mixed","Both","done","43","F_cad.wav","space","0.0346274028998","104","1858100.66247","1850384.17367","1851150.37752","1851900.44221","1852667.15526","1853433.84451","1854200.12781","1854967.55598","1844250.65815","1845017.29917","1845783.95595","1846550.31284","1847317.56385","1848083.92537","1848850.23496","1849617.23183","1854977.58","Mapping"
"Mixed","Both","done","43","M_cad.wav","None","720.222988079","104","1858100.66247","1850384.17367","1851150.37752","1851900.44221","1852667.15526","1853433.84451","1854200.12781","1854967.55598","1858867.04903","1845017.29917","1845783.95595","1846550.31284","1847317.56385","1848083.92537","1848850.23496","1849617.23183","1858110.33588","Mapping"
"Mixed","Both","done","43","M_jolt.wav","None","732.946083605","104","1858100.66247","1850384.17367","1851150.37752","1851900.44221","1852667.15526","1853433.84451","1854200.12781","1854967.55598","1858867.04903","1859633.32028","1845783.95595","1846550.31284","1847317.56385","1848083.92537","1848850.23496","1849617.23183","1858871.0182","Mapping"
"Mixed","Both","done","43","M_done.wav","None","725.39267315","104","1858100.66247","1850384.17367","1851150.37752","1851900.44221","1852667.15526","1853433.84451","1854200.12781","1854967.55598","1858867.04903","1859633.32028","1860400.65044","1846550.31284","1847317.56385","1848083.92537","1848850.23496","1849617.23183","1859642.52962","Mapping"
"Mixed","Both","done","43","M_tile.wav","space","657.893361844","104","1858100.66247","1850384.17367","1851150.37752","1851900.44221","1852667.15526","1853433.84451","1854200.12781","1854967.55598","1858867.04903","1859633.32028","1860400.65044","1861150.61651","1847317.56385","1848083.92537","1848850.23496","1849617.23183","1860410.17421","Mapping"
"Mixed","Both","done","43","F_done.wav","None","735.404010542","104","1858100.66247","1850384.17367","1851150.37752","1851900.44221","1852667.15526","1853433.84451","1854200.12781","1854967.55598","1858867.04903","1859633.32028","1860400.65044","1861150.61651","1861916.88466","1848083.92537","1848850.23496","1849617.23183","1861160.04474","Mapping"
"Mixed","Both","done","43","F_bluff.wav","space","485.923807966","104","1858100.66247","1850384.17367","1851150.37752","1851900.44221","1852667.15526","1853433.84451","1854200.12781","1854967.55598","1858867.04903","1859633.32028","1860400.65044","1861150.61651","1861916.88466","1862700.7154","1848850.23496","1849617.23183","1861926.14192","Mapping"
"Mixed","Both","done","43","F_gnash.wav","None","727.871005525","104","1858100.66247","1850384.17367","1851150.37752","1851900.44221","1852667.15526","1853433.84451","1854200.12781","1854967.55598","1858867.04903","1859633.32028","1860400.65044","1861150.61651","1861916.88466","1862700.7154","1863467.08094","1849617.23183","1862705.16347","Mapping"
"Mixed","Both","done","43","F_cave.wav","None","720.681182749","104","1858100.66247","1850384.17367","1851150.37752","1851900.44221","1852667.15526","1853433.84451","1854200.12781","1854967.55598","1858867.04903","1859633.32028","1860400.65044","1861150.61651","1861916.88466","1862700.7154","1863467.08094","1864216.58046","1863476.57534","Mapping"
"Mixed","Both","done","43","F_bluff.wav","None","735.760796408","104","1858100.66247","1864983.62928","1851150.37752","1851900.44221","1852667.15526","1853433.84451","1854200.12781","1854967.55598","1858867.04903","1859633.32028","1860400.65044","1861150.61651","1861916.88466","1862700.7154","1863467.08094","1864216.58046","1864225.93728","Mapping"
"Mixed","Both","done","43","F_done.wav","None","732.909910337","104","1858100.66247","1864983.62928","1865750.00657","1851900.44221","1852667.15526","1853433.84451","1854200.12781","1854967.55598","1858867.04903","1859633.32028","1860400.65044","1861150.61651","1861916.88466","1862700.7154","1863467.08094","1864216.58046","1864992.94405","Mapping"
"Mixed","Both","done","43","M_bluff.wav","None","730.411790879","104","1858100.66247","1864983.62928","1865750.00657","1866516.90698","1852667.15526","1853433.84451","1854200.12781","1854967.55598","1858867.04903","1859633.32028","1860400.65044","1861150.61651","1861916.88466","1862700.7154","1863467.08094","1864216.58046","1865759.48675","Mapping"
"Mixed","Both","done","43","M_done.wav","space","37.8904123208","104","1858100.66247","1864983.62928","1865750.00657","1866516.90698","1867283.9626","1853433.84451","1854200.12781","1854967.55598","1858867.04903","1859633.32028","1860400.65044","1861150.61651","1861916.88466","1862700.7154","1863467.08094","1864216.58046","1866526.06562","Mapping"
"Mixed","Both","done","43","M_tile.wav","space","670.153625077","104","1858100.66247","1864983.62928","1865750.00657","1866516.90698","1867283.9626","1868050.20756","1854200.12781","1854967.55598","1858867.04903","1859633.32028","1860400.65044","1861150.61651","1861916.88466","1862700.7154","1863467.08094","1864216.58046","1867293.77236","Mapping"
"Mixed","Both","done","43","M_ball.wav","None","721.217598257","104","1858100.66247","1864983.62928","1865750.00657","1866516.90698","1867283.9626","1868050.20756","1868800.37398","1854967.55598","1858867.04903","1859633.32028","1860400.65044","1861150.61651","1861916.88466","1862700.7154","1863467.08094","1864216.58046","1868059.79008","Mapping"
"Mixed","Both","done","43","F_knife.wav","None","735.309403535","104","1858100.66247","1864983.62928","1865750.00657","1866516.90698","1867283.9626","1868050.20756","1868800.37398","1869566.84062","1858867.04903","1859633.32028","1860400.65044","1861150.61651","1861916.88466","1862700.7154","1863467.08094","1864216.58046","1868809.83406","Mapping"
"Mixed","Both","tile","29","M_done.wav","None","732.88734068","104","1872700.29183","1864983.62928","1865750.00657","1866516.90698","1867283.9626","1868050.20756","1868800.37398","1869566.84062","1858867.04903","1859633.32028","1860400.65044","1861150.61651","1861916.88466","1862700.7154","1863467.08094","1864216.58046","1869576.33069","Mapping"
"Mixed","Both","tile","29","F_greet.wav","None","719.981214628","104","1872700.29183","1864983.62928","1865750.00657","1866516.90698","1867283.9626","1868050.20756","1868800.37398","1869566.84062","1873449.95707","1859633.32028","1860400.65044","1861150.61651","1861916.88466","1862700.7154","1863467.08094","1864216.58046","1872710.53752","Mapping"
"Mixed","Both","tile","29","F_priest.wav","None","735.707927786","104","1872700.29183","1864983.62928","1865750.00657","1866516.90698","1867283.9626","1868050.20756","1868800.37398","1869566.84062","1873449.95707","1874216.77679","1860400.65044","1861150.61651","1861916.88466","1862700.7154","1863467.08094","1864216.58046","1873459.46198","Mapping"
"Mixed","Both","tile","29","M_ball.wav","None","732.993387108","104","1872700.29183","1864983.62928","1865750.00657","1866516.90698","1867283.9626","1868050.20756","1868800.37398","1869566.84062","1873449.95707","1874216.77679","1874983.44965","1861150.61651","1861916.88466","1862700.7154","1863467.08094","1864216.58046","1874226.33179","Mapping"
"Mixed","Both","tile","29","M_depth.wav","None","736.245270804","104","1872700.29183","1864983.62928","1865750.00657","1866516.90698","1867283.9626","1868050.20756","1868800.37398","1869566.84062","1873449.95707","1874216.77679","1874983.44965","1875749.88537","1861916.88466","1862700.7154","1863467.08094","1864216.58046","1874987.44077","Mapping"
"Mixed","Both","tile","29","F_tile.wav","None","728.716903395","104","1872700.29183","1864983.62928","1865750.00657","1866516.90698","1867283.9626","1868050.20756","1868800.37398","1869566.84062","1873449.95707","1874216.77679","1874983.44965","1875749.88537","1876516.68283","1862700.7154","1863467.08094","1864216.58046","1875759.41316","Mapping"
"Mixed","Both","tile","29","M_ball.wav","space","333.8393468","104","1872700.29183","1864983.62928","1865750.00657","1866516.90698","1867283.9626","1868050.20756","1868800.37398","1869566.84062","1873449.95707","1874216.77679","1874983.44965","1875749.88537","1876516.68283","1877284.07978","1863467.08094","1864216.58046","1876525.94504","Mapping"
"Mixed","Both","tile","29","F_tile.wav","None","721.847693247","104","1872700.29183","1864983.62928","1865750.00657","1866516.90698","1867283.9626","1868050.20756","1868800.37398","1869566.84062","1873449.95707","1874216.77679","1874983.44965","1875749.88537","1876516.68283","1877284.07978","1878050.49077","1864216.58046","1877294.1109","Mapping"
"Mixed","Both","tile","29","M_park.wav","space","439.652328554","104","1872700.29183","1864983.62928","1865750.00657","1866516.90698","1867283.9626","1868050.20756","1868800.37398","1869566.84062","1873449.95707","1874216.77679","1874983.44965","1875749.88537","1876516.68283","1877284.07978","1878050.49077","1878816.68132","1878060.10729","Mapping"
"Mixed","Both","tile","29","M_tile.wav","None","732.782221792","104","1872700.29183","1879583.0382","1865750.00657","1866516.90698","1867283.9626","1868050.20756","1868800.37398","1869566.84062","1873449.95707","1874216.77679","1874983.44965","1875749.88537","1876516.68283","1877284.07978","1878050.49077","1878816.68132","1878820.79734","Mapping"
"Mixed","Both","tile","29","M_cad.wav","space","387.426482484","104","1872700.29183","1879583.0382","1880350.35631","1866516.90698","1867283.9626","1868050.20756","1868800.37398","1869566.84062","1873449.95707","1874216.77679","1874983.44965","1875749.88537","1876516.68283","1877284.07978","1878050.49077","1878816.68132","1879592.29423","Mapping"
"Mixed","Both","tile","29","F_cling.wav","None","721.332301517","104","1872700.29183","1879583.0382","1880350.35631","1881116.93765","1867283.9626","1868050.20756","1868800.37398","1869566.84062","1873449.95707","1874216.77679","1874983.44965","1875749.88537","1876516.68283","1877284.07978","1878050.49077","1878816.68132","1880360.05321","Mapping"
"Mixed","Both","tile","29","M_tile.wav","None","719.023396057","104","1872700.29183","1879583.0382","1880350.35631","1881116.93765","1881866.58496","1868050.20756","1868800.37398","1869566.84062","1873449.95707","1874216.77679","1874983.44965","1875749.88537","1876516.68283","1877284.07978","1878050.49077","1878816.68132","1881126.62899","Mapping"
"Mixed","Both","tile","29","F_lash.wav","space","527.826670092","104","1872700.29183","1879583.0382","1880350.35631","1881116.93765","1881866.58496","1882650.23576","1868800.37398","1869566.84062","1873449.95707","1874216.77679","1874983.44965","1875749.88537","1876516.68283","1877284.07978","1878050.49077","1878816.68132","1881875.8583","Mapping"
"Mixed","Both","tile","29","F_romp.wav","None","728.532327004","104","1872700.29183","1879583.0382","1880350.35631","1881116.93765","1881866.58496","1882650.23576","1883416.35551","1869566.84062","1873449.95707","1874216.77679","1874983.44965","1875749.88537","1876516.68283","1877284.07978","1878050.49077","1878816.68132","1882654.57532","Mapping"
"Mixed","Both","tile","29","F_done.wav","None","736.839810866","104","1872700.29183","1879583.0382","1880350.35631","1881116.93765","1881866.58496","1882650.23576","1883416.35551","1884183.24232","1873449.95707","1874216.77679","1874983.44965","1875749.88537","1876516.68283","1877284.07978","1878050.49077","1878816.68132","1883419.85195","Mapping"
"Mixed","Both","done","44","M_cave.wav","None","728.751530798","104","1887316.86203","1879583.0382","1880350.35631","1881116.93765","1881866.58496","1882650.23576","1883416.35551","1884183.24232","1873449.95707","1874216.77679","1874983.44965","1875749.88537","1876516.68283","1877284.07978","1878050.49077","1878816.68132","1884192.53235","Mapping"
"Mixed","Both","done","44","F_done.wav","None","720.509900813","104","1887316.86203","1879583.0382","1880350.35631","1881116.93765","1881866.58496","1882650.23576","1883416.35551","1884183.24232","1888066.23912","1874216.77679","1874983.44965","1875749.88537","1876516.68283","1877284.07978","1878050.49077","1878816.68132","1887326.7228","Mapping"
"Mixed","Both","done","44","M_ball.wav","space","343.579539287","104","1887316.86203","1879583.0382","1880350.35631","1881116.93765","1881866.58496","1882650.23576","1883416.35551","1884183.24232","1888066.23912","1888833.17725","1874983.44965","1875749.88537","1876516.68283","1877284.07978","1878050.49077","1878816.68132","1888076.03311","Mapping"
"Mixed","Both","done","44","M_jaw.wav","None","732.648968144","104","1887316.86203","1879583.0382","1880350.35631","1881116.93765","1881866.58496","1882650.23576","1883416.35551","1884183.24232","1888066.23912","1888833.17725","1889599.71408","1875749.88537","1876516.68283","1877284.07978","1878050.49077","1878816.68132","1888842.48306","Mapping"
"Mixed","Both","done","44","M_lash.wav","None","730.120240551","104","1887316.86203","1879583.0382","1880350.35631","1881116.93765","1881866.58496","1882650.23576","1883416.35551","1884183.24232","1888066.23912","1888833.17725","1889599.71408","1890366.50133","1876516.68283","1877284.07978","1878050.49077","1878816.68132","1889609.13613","Mapping"
"Mixed","Both","done","44","F_done.wav","None","727.909342997","104","1887316.86203","1879583.0382","1880350.35631","1881116.93765","1881866.58496","1882650.23576","1883416.35551","1884183.24232","1888066.23912","1888833.17725","1889599.71408","1890366.50133","1891133.17388","1877284.07978","1878050.49077","1878816.68132","1890375.55207","Mapping"
"Mixed","Both","done","44","M_bluff.wav","space","212.870076459","104","1887316.86203","1879583.0382","1880350.35631","1881116.93765","1881866.58496","1882650.23576","1883416.35551","1884183.24232","1888066.23912","1888833.17725","1889599.71408","1890366.50133","1891133.17388","1891900.00442","1878050.49077","1878816.68132","1891142.66426","Mapping"
"Mixed","Both","done","44","M_done.wav","None","721.743811053","104","1887316.86203","1879583.0382","1880350.35631","1881116.93765","1881866.58496","1882650.23576","1883416.35551","1884183.24232","1888066.23912","1888833.17725","1889599.71408","1890366.50133","1891133.17388","1891900.00442","1892666.69707","1878816.68132","1891909.43699","Mapping"
"Mixed","Both","done","44","F_cad.wav","space","446.802267965","104","1887316.86203","1879583.0382","1880350.35631","1881116.93765","1881866.58496","1882650.23576","1883416.35551","1884183.24232","1888066.23912","1888833.17725","1889599.71408","1890366.50133","1891133.17388","1891900.00442","1892666.69707","1893416.46094","1892676.73469","Mapping"
"Mixed","Both","done","44","F_reek.wav","None","733.540623653","104","1887316.86203","1894183.04847","1880350.35631","1881116.93765","1881866.58496","1882650.23576","1883416.35551","1884183.24232","1888066.23912","1888833.17725","1889599.71408","1890366.50133","1891133.17388","1891900.00442","1892666.69707","1893416.46094","1893425.50023","Mapping"
"Mixed","Both","done","44","F_park.wav","None","731.027354719","104","1887316.86203","1894183.04847","1894949.5352","1881116.93765","1881866.58496","1882650.23576","1883416.35551","1884183.24232","1888066.23912","1888833.17725","1889599.71408","1890366.50133","1891133.17388","1891900.00442","1892666.69707","1893416.46094","1894192.39106","Mapping"
"Mixed","Both","done","44","F_cave.wav","None","728.812128742","104","1887316.86203","1894183.04847","1894949.5352","1895716.1249","1881866.58496","1882650.23576","1883416.35551","1884183.24232","1888066.23912","1888833.17725","1889599.71408","1890366.50133","1891133.17388","1891900.00442","1892666.69707","1893416.46094","1894958.87625","Mapping"
"Mixed","Both","done","44","F_knife.wav","None","726.437678561","104","1887316.86203","1894183.04847","1894949.5352","1895716.1249","1896483.43156","1882650.23576","1883416.35551","1884183.24232","1888066.23912","1888833.17725","1889599.71408","1890366.50133","1891133.17388","1891900.00442","1892666.69707","1893416.46094","1895725.47677","Mapping"
"Mixed","Both","done","44","M_romp.wav","None","723.439935231","104","1887316.86203","1894183.04847","1894949.5352","1895716.1249","1896483.43156","1897250.21171","1883416.35551","1884183.24232","1888066.23912","1888833.17725","1889599.71408","1890366.50133","1891133.17388","1891900.00442","1892666.69707","1893416.46094","1896492.97667","Mapping"
"Mixed","Both","done","44","M_done.wav","None","721.315915333","104","1887316.86203","1894183.04847","1894949.5352","1895716.1249","1896483.43156","1897250.21171","1897999.99289","1884183.24232","1888066.23912","1888833.17725","1889599.71408","1890366.50133","1891133.17388","1891900.00442","1892666.69707","1893416.46094","1897259.44238","Mapping"
"Mixed","Both","done","44","F_lash.wav","space","513.526172915","104","1887316.86203","1894183.04847","1894949.5352","1895716.1249","1896483.43156","1897250.21171","1897999.99289","1898766.31546","1888066.23912","1888833.17725","1889599.71408","1890366.50133","1891133.17388","1891900.00442","1892666.69707","1893416.46094","1898009.88179","Mapping"
"Mixed","Both","ball","1","F_dime.wav","None","732.490980648","104","1901899.84427","1894183.04847","1894949.5352","1895716.1249","1896483.43156","1897250.21171","1897999.99289","1898766.31546","1888066.23912","1888833.17725","1889599.71408","1890366.50133","1891133.17388","1891900.00442","1892666.69707","1893416.46094","1898776.1314","Mapping"
"Mixed","Both","ball","1","F_jaw.wav","None","720.453631278","104","1901899.84427","1894183.04847","1894949.5352","1895716.1249","1896483.43156","1897250.21171","1897999.99289","1898766.31546","1902649.54723","1888833.17725","1889599.71408","1890366.50133","1891133.17388","1891900.00442","1892666.69707","1893416.46094","1901909.84293","Mapping"
"Mixed","Both","ball","1","M_lash.wav","None","735.377112476","104","1901899.84427","1894183.04847","1894949.5352","1895716.1249","1896483.43156","1897250.21171","1897999.99289","1898766.31546","1902649.54723","1903416.25534","1889599.71408","1890366.50133","1891133.17388","1891900.00442","1892666.69707","1893416.46094","1902659.2259","Mapping"
"Mixed","Both","ball","1","M_ball.wav","None","732.995242142","104","1901899.84427","1894183.04847","1894949.5352","1895716.1249","1896483.43156","1897250.21171","1897999.99289","1898766.31546","1902649.54723","1903416.25534","1904182.89543","1890366.50133","1891133.17388","1891900.00442","1892666.69707","1893416.46094","1903425.91545","Mapping"
"Mixed","Both","ball","1","F_tile.wav","space","499.094277111","104","1901899.84427","1894183.04847","1894949.5352","1895716.1249","1896483.43156","1897250.21171","1897999.99289","1898766.31546","1902649.54723","1903416.25534","1904182.89543","1904949.23005","1891133.17388","1891900.00442","1892666.69707","1893416.46094","1904192.1969","Mapping"
"Mixed","Both","ball","1","F_ball.wav","None","722.039998975","104","1901899.84427","1894183.04847","1894949.5352","1895716.1249","1896483.43156","1897250.21171","1897999.99289","1898766.31546","1902649.54723","1903416.25534","1904182.89543","1904949.23005","1905716.21456","1891900.00442","1892666.69707","1893416.46094","1904964.7759","Mapping"
"Mixed","Both","ball","1","M_done.wav","space","421.857555863","104","1901899.84427","1894183.04847","1894949.5352","1895716.1249","1896483.43156","1897250.21171","1897999.99289","1898766.31546","1902649.54723","1903416.25534","1904182.89543","1904949.23005","1905716.21456","1906483.24049","1892666.69707","1893416.46094","1905725.42545","Mapping"
"Mixed","Both","ball","1","M_jaw.wav","None","723.657902316","104","1901899.84427","1894183.04847","1894949.5352","1895716.1249","1896483.43156","1897250.21171","1897999.99289","1898766.31546","1902649.54723","1903416.25534","1904182.89543","1904949.23005","1905716.21456","1906483.24049","1907250.08711","1893416.46094","1906492.79456","Mapping"
"Mixed","Both","ball","1","M_reek.wav","None","727.1398109","104","1901899.84427","1894183.04847","1894949.5352","1895716.1249","1896483.43156","1897250.21171","1897999.99289","1898766.31546","1902649.54723","1903416.25534","1904182.89543","1904949.23005","1905716.21456","1906483.24049","1907250.08711","1908016.37783","1907254.12151","Mapping"
"Mixed","Both","ball","1","M_knife.wav","None","718.74359432","104","1901899.84427","1908782.84911","1894949.5352","1895716.1249","1896483.43156","1897250.21171","1897999.99289","1898766.31546","1902649.54723","1903416.25534","1904182.89543","1904949.23005","1905716.21456","1906483.24049","1907250.08711","1908016.37783","1908026.76791","Mapping"
"Mixed","Both","ball","1","F_romp.wav","None","733.153538808","104","1901899.84427","1908782.84911","1909549.23784","1895716.1249","1896483.43156","1897250.21171","1897999.99289","1898766.31546","1902649.54723","1903416.25534","1904182.89543","1904949.23005","1905716.21456","1906483.24049","1907250.08711","1908016.37783","1908786.81426","Mapping"
"Mixed","Both","ball","1","M_ball.wav","None","725.624862229","104","1901899.84427","1908782.84911","1909549.23784","1910316.27213","1896483.43156","1897250.21171","1897999.99289","1898766.31546","1902649.54723","1903416.25534","1904182.89543","1904949.23005","1905716.21456","1906483.24049","1907250.08711","1908016.37783","1909558.72173","Mapping"
"Mixed","Both","ball","1","F_cave.wav","space","453.659729537","104","1901899.84427","1908782.84911","1909549.23784","1910316.27213","1911082.76196","1897250.21171","1897999.99289","1898766.31546","1902649.54723","1903416.25534","1904182.89543","1904949.23005","1905716.21456","1906483.24049","1907250.08711","1908016.37783","1910325.54732","Mapping"
"Mixed","Both","ball","1","F_jaw.wav","None","720.925429588","104","1901899.84427","1908782.84911","1909549.23784","1910316.27213","1911082.76196","1911832.55241","1897999.99289","1898766.31546","1902649.54723","1903416.25534","1904182.89543","1904949.23005","1905716.21456","1906483.24049","1907250.08711","1908016.37783","1911091.81053","Mapping"
"Mixed","Both","ball","1","F_ball.wav","None","735.448222302","104","1901899.84427","1908782.84911","1909549.23784","1910316.27213","1911082.76196","1911832.55241","1912599.36502","1898766.31546","1902649.54723","1903416.25534","1904182.89543","1904949.23005","1905716.21456","1906483.24049","1907250.08711","1908016.37783","1911841.71414","Mapping"
"Mixed","Both","ball","1","M_reek.wav","space","650.217827977","104","1901899.84427","1908782.84911","1909549.23784","1910316.27213","1911082.76196","1911832.55241","1912599.36502","1913366.00944","1902649.54723","1903416.25534","1904182.89543","1904949.23005","1905716.21456","1906483.24049","1907250.08711","1908016.37783","1912608.89652","Mapping"
"Mixed","Both","cave","23","M_reek.wav","None","729.178189809","104","1916499.55185","1908782.84911","1909549.23784","1910316.27213","1911082.76196","1911832.55241","1912599.36502","1913366.00944","1902649.54723","1903416.25534","1904182.89543","1904949.23005","1905716.21456","1906483.24049","1907250.08711","1908016.37783","1913375.68996","Mapping"
"Mixed","Both","cave","23","F_dime.wav","None","720.342019762","104","1916499.55185","1908782.84911","1909549.23784","1910316.27213","1911082.76196","1911832.55241","1912599.36502","1913366.00944","1917249.03716","1903416.25534","1904182.89543","1904949.23005","1905716.21456","1906483.24049","1907250.08711","1908016.37783","1916509.24783","Mapping"
"Mixed","Both","cave","23","F_cave.wav","None","735.732352477","104","1916499.55185","1908782.84911","1909549.23784","1910316.27213","1911082.76196","1911832.55241","1912599.36502","1913366.00944","1917249.03716","1918015.98054","1904182.89543","1904949.23005","1905716.21456","1906483.24049","1907250.08711","1908016.37783","1917258.08326","Mapping"
"Mixed","Both","cave","23","M_greet.wav","space","481.753370681","104","1916499.55185","1908782.84911","1909549.23784","1910316.27213","1911082.76196","1911832.55241","1912599.36502","1913366.00944","1917249.03716","1918015.98054","1918782.66299","1904949.23005","1905716.21456","1906483.24049","1907250.08711","1908016.37783","1918025.29902","Mapping"
"Mixed","Both","cave","23","M_dime.wav","None","730.438379775","104","1916499.55185","1908782.84911","1909549.23784","1910316.27213","1911082.76196","1911832.55241","1912599.36502","1913366.00944","1917249.03716","1918015.98054","1918782.66299","1919566.2671","1905716.21456","1906483.24049","1907250.08711","1908016.37783","1918792.0127","Mapping"
"Mixed","Both","cave","23","F_priest.wav","None","725.702464697","104","1916499.55185","1908782.84911","1909549.23784","1910316.27213","1911082.76196","1911832.55241","1912599.36502","1913366.00944","1917249.03716","1918015.98054","1918782.66299","1919566.2671","1920316.1027","1906483.24049","1907250.08711","1908016.37783","1919570.79711","Mapping"
"Mixed","Both","cave","23","M_cave.wav","None","735.900233529","104","1916499.55185","1908782.84911","1909549.23784","1910316.27213","1911082.76196","1911832.55241","1912599.36502","1913366.00944","1917249.03716","1918015.98054","1918782.66299","1919566.2671","1920316.1027","1921082.53069","1907250.08711","1908016.37783","1920325.49476","Mapping"
"Mixed","Both","cave","23","M_bluff.wav","space","479.036974953","104","1916499.55185","1908782.84911","1909549.23784","1910316.27213","1911082.76196","1911832.55241","1912599.36502","1913366.00944","1917249.03716","1918015.98054","1918782.66299","1919566.2671","1920316.1027","1921082.53069","1921849.06195","1908016.37783","1921091.95986","Mapping"
"Mixed","Both","cave","23","F_lash.wav","None","730.688500887","104","1916499.55185","1908782.84911","1909549.23784","1910316.27213","1911082.76196","1911832.55241","1912599.36502","1913366.00944","1917249.03716","1918015.98054","1918782.66299","1919566.2671","1920316.1027","1921082.53069","1921849.06195","1922615.90269","1921858.49204","Mapping"
"Mixed","Both","cave","23","F_cave.wav","None","727.605734922","104","1916499.55185","1923382.56442","1909549.23784","1910316.27213","1911082.76196","1911832.55241","1912599.36502","1913366.00944","1917249.03716","1918015.98054","1918782.66299","1919566.2671","1920316.1027","1921082.53069","1921849.06195","1922615.90269","1922625.92022","Mapping"
"Mixed","Both","cave","23","M_priest.wav","space","530.951483612","104","1916499.55185","1923382.56442","1924149.34952","1910316.27213","1911082.76196","1911832.55241","1912599.36502","1913366.00944","1917249.03716","1918015.98054","1918782.66299","1919566.2671","1920316.1027","1921082.53069","1921849.06195","1922615.90269","1923392.00132","Mapping"
"Mixed","Both","cave","23","M_jaw.wav","None","722.887133539","104","1916499.55185","1923382.56442","1924149.34952","1924916.02547","1911082.76196","1911832.55241","1912599.36502","1913366.00944","1917249.03716","1918015.98054","1918782.66299","1919566.2671","1920316.1027","1921082.53069","1921849.06195","1922615.90269","1924158.92925","Mapping"
"Mixed","Both","cave","23","F_jaw.wav","None","720.132091156","104","1916499.55185","1923382.56442","1924149.34952","1924916.02547","1925665.46532","1911832.55241","1912599.36502","1913366.00944","1917249.03716","1918015.98054","1918782.66299","1919566.2671","1920316.1027","1921082.53069","1921849.06195","1922615.90269","1924926.08194","Mapping"
"Mixed","Both","cave","23","F_ball.wav","None","735.688140703","104","1916499.55185","1923382.56442","1924149.34952","1924916.02547","1925665.46532","1926432.4656","1912599.36502","1913366.00944","1917249.03716","1918015.98054","1918782.66299","1919566.2671","1920316.1027","1921082.53069","1921849.06195","1922615.90269","1925674.94117","Mapping"
"Mixed","Both","cave","23","M_cave.wav","None","733.207025783","104","1916499.55185","1923382.56442","1924149.34952","1924916.02547","1925665.46532","1926432.4656","1927198.94924","1913366.00944","1917249.03716","1918015.98054","1918782.66299","1919566.2671","1920316.1027","1921082.53069","1921849.06195","1922615.90269","1926441.89229","Mapping"
"Mixed","Both","cave","23","F_cling.wav","space","626.521248079","104","1916499.55185","1923382.56442","1924149.34952","1924916.02547","1925665.46532","1926432.4656","1927198.94924","1927965.78535","1917249.03716","1918015.98054","1918782.66299","1919566.2671","1920316.1027","1921082.53069","1921849.06195","1922615.90269","1927208.35615","Mapping"
"Mixed","Both","cave","15","M_reek.wav","None","727.367362386","104","1931099.3964","1923382.56442","1924149.34952","1924916.02547","1925665.46532","1926432.4656","1927198.94924","1927965.78535","1917249.03716","1918015.98054","1918782.66299","1919566.2671","1920316.1027","1921082.53069","1921849.06195","1922615.90269","1927975.51194","Mapping"
"Mixed","Both","cave","15","F_cave.wav","None","720.518557661","104","1931099.3964","1923382.56442","1924149.34952","1924916.02547","1925665.46532","1926432.4656","1927198.94924","1927965.78535","1931848.53543","1918015.98054","1918782.66299","1919566.2671","1920316.1027","1921082.53069","1921849.06195","1922615.90269","1931108.81876","Mapping"
"Mixed","Both","cave","15","F_depth.wav","space","440.724541215","104","1931099.3964","1923382.56442","1924149.34952","1924916.02547","1925665.46532","1926432.4656","1927198.94924","1927965.78535","1931848.53543","1932615.71348","1918782.66299","1919566.2671","1920316.1027","1921082.53069","1921849.06195","1922615.90269","1931858.06508","Mapping"
"Mixed","Both","cave","15","F_reek.wav","None","731.832441728","104","1931099.3964","1923382.56442","1924149.34952","1924916.02547","1925665.46532","1926432.4656","1927198.94924","1927965.78535","1931848.53543","1932615.71348","1933382.07408","1919566.2671","1920316.1027","1921082.53069","1921849.06195","1922615.90269","1932625.34948","Mapping"
"Mixed","Both","cave","15","F_reek.wav","None","730.527421649","104","1931099.3964","1923382.56442","1924149.34952","1924916.02547","1925665.46532","1926432.4656","1927198.94924","1927965.78535","1931848.53543","1932615.71348","1933382.07408","1934148.89287","1920316.1027","1921082.53069","1921849.06195","1922615.90269","1933391.20334","Mapping"
"Mixed","Both","cave","15","M_ball.wav","None","727.851218442","104","1931099.3964","1923382.56442","1924149.34952","1924916.02547","1925665.46532","1926432.4656","1927198.94924","1927965.78535","1931848.53543","1932615.71348","1933382.07408","1934148.89287","1934915.66157","1921082.53069","1921849.06195","1922615.90269","1934158.26143","Mapping"
"Mixed","Both","cave","15","M_jaw.wav","None","725.916103373","104","1931099.3964","1923382.56442","1924149.34952","1924916.02547","1925665.46532","1926432.4656","1927198.94924","1927965.78535","1931848.53543","1932615.71348","1933382.07408","1934148.89287","1934915.66157","1935682.36504","1921849.06195","1922615.90269","1934924.74384","Mapping"
"Mixed","Both","cave","15","M_cave.wav","None","723.301116464","104","1931099.3964","1923382.56442","1924149.34952","1924916.02547","1925665.46532","1926432.4656","1927198.94924","1927965.78535","1931848.53543","1932615.71348","1933382.07408","1934148.89287","1934915.66157","1935682.36504","1936449.17857","1922615.90269","1935691.78678","Mapping"
"Mixed","Both","cave","15","M_greet.wav","space","376.070241677","104","1931099.3964","1923382.56442","1924149.34952","1924916.02547","1925665.46532","1926432.4656","1927198.94924","1927965.78535","1931848.53543","1932615.71348","1933382.07408","1934148.89287","1934915.66157","1935682.36504","1936449.17857","1937198.66697","1936458.62103","Mapping"
"Mixed","Both","cave","15","F_cave.wav","None","734.970240533","104","1931099.3964","1937965.64993","1924149.34952","1924916.02547","1925665.46532","1926432.4656","1927198.94924","1927965.78535","1931848.53543","1932615.71348","1933382.07408","1934148.89287","1934915.66157","1935682.36504","1936449.17857","1937198.66697","1937208.19631","Mapping"
"Mixed","Both","cave","15","F_ball.wav","space","651.891073343","104","1931099.3964","1937965.64993","1938732.27858","1924916.02547","1925665.46532","1926432.4656","1927198.94924","1927965.78535","1931848.53543","1932615.71348","1933382.07408","1934148.89287","1934915.66157","1935682.36504","1936449.17857","1937198.66697","1937974.7591","Mapping"
"Mixed","Both","cave","15","M_ball.wav","None","729.295984798","104","1931099.3964","1937965.64993","1938732.27858","1939498.71307","1925665.46532","1926432.4656","1927198.94924","1927965.78535","1931848.53543","1932615.71348","1933382.07408","1934148.89287","1934915.66157","1935682.36504","1936449.17857","1937198.66697","1938741.87315","Mapping"
"Mixed","Both","cave","15","F_reek.wav","None","727.658912699","104","1931099.3964","1937965.64993","1938732.27858","1939498.71307","1940265.58751","1926432.4656","1927198.94924","1927965.78535","1931848.53543","1932615.71348","1933382.07408","1934148.89287","1934915.66157","1935682.36504","1936449.17857","1937198.66697","1939508.08349","Mapping"
"Mixed","Both","cave","15","M_cave.wav","None","725.273023112","104","1931099.3964","1937965.64993","1938732.27858","1939498.71307","1940265.58751","1941032.80389","1927198.94924","1927965.78535","1931848.53543","1932615.71348","1933382.07408","1934148.89287","1934915.66157","1935682.36504","1936449.17857","1937198.66697","1940274.9805","Mapping"
"Mixed","Both","cave","15","M_gnash.wav","space","424.253338992","104","1931099.3964","1937965.64993","1938732.27858","1939498.71307","1940265.58751","1941032.80389","1941799.1784","1927965.78535","1931848.53543","1932615.71348","1933382.07408","1934148.89287","1934915.66157","1935682.36504","1936449.17857","1937198.66697","1941042.37621","Mapping"
"Mixed","Both","cave","15","F_tile.wav","None","720.657685597","104","1931099.3964","1937965.64993","1938732.27858","1939498.71307","1940265.58751","1941032.80389","1941799.1784","1942548.60002","1931848.53543","1932615.71348","1933382.07408","1934148.89287","1934915.66157","1935682.36504","1936449.17857","1937198.66697","1941808.83512","Mapping"
"Mixed","Both","done","46","F_lash.wav","None","735.806244876","104","1945682.64577","1937965.64993","1938732.27858","1939498.71307","1940265.58751","1941032.80389","1941799.1784","1942548.60002","1931848.53543","1932615.71348","1933382.07408","1934148.89287","1934915.66157","1935682.36504","1936449.17857","1937198.66697","1942558.09689","Mapping"
"Mixed","Both","done","46","F_gnash.wav","None","719.068226172","104","1945682.64577","1937965.64993","1938732.27858","1939498.71307","1940265.58751","1941032.80389","1941799.1784","1942548.60002","1946431.69421","1932615.71348","1933382.07408","1934148.89287","1934915.66157","1935682.36504","1936449.17857","1937198.66697","1945693.04635","Mapping"
"Mixed","Both","done","46","M_done.wav","None","728.281896692","104","1945682.64577","1937965.64993","1938732.27858","1939498.71307","1940265.58751","1941032.80389","1941799.1784","1942548.60002","1946431.69421","1947198.87813","1933382.07408","1934148.89287","1934915.66157","1935682.36504","1936449.17857","1937198.66697","1946448.47459","Mapping"
"Mixed","Both","done","46","M_cad.wav","space","497.923129034","104","1945682.64577","1937965.64993","1938732.27858","1939498.71307","1940265.58751","1941032.80389","1941799.1784","1942548.60002","1946431.69421","1947198.87813","1947965.41589","1934148.89287","1934915.66157","1935682.36504","1936449.17857","1937198.66697","1947208.58184","Mapping"
"Mixed","Both","done","46","M_dime.wav","None","729.503440016","104","1945682.64577","1937965.64993","1938732.27858","1939498.71307","1940265.58751","1941032.80389","1941799.1784","1942548.60002","1946431.69421","1947198.87813","1947965.41589","1948732.02104","1934915.66157","1935682.36504","1936449.17857","1937198.66697","1947975.43588","Mapping"
"Mixed","Both","done","46","F_done.wav","space","445.046782537","104","1945682.64577","1937965.64993","1938732.27858","1939498.71307","1940265.58751","1941032.80389","1941799.1784","1942548.60002","1946431.69421","1947198.87813","1947965.41589","1948732.02104","1949498.77799","1935682.36504","1936449.17857","1937198.66697","1948741.4468","Mapping"
"Mixed","Both","done","46","F_tile.wav","None","724.444438951","104","1945682.64577","1937965.64993","1938732.27858","1939498.71307","1940265.58751","1941032.80389","1941799.1784","1942548.60002","1946431.69421","1947198.87813","1947965.41589","1948732.02104","1949498.77799","1950265.88895","1936449.17857","1937198.66697","1949508.431","Mapping"
"Mixed","Both","done","46","F_jaw.wav","None","720.183723082","104","1945682.64577","1937965.64993","1938732.27858","1939498.71307","1940265.58751","1941032.80389","1941799.1784","1942548.60002","1946431.69421","1947198.87813","1947965.41589","1948732.02104","1949498.77799","1950265.88895","1951032.4199","1937198.66697","1950277.5287","Mapping"
"Mixed","Both","done","46","F_reek.wav","None","722.662982968","104","1945682.64577","1937965.64993","1938732.27858","1939498.71307","1940265.58751","1941032.80389","1941799.1784","1942548.60002","1946431.69421","1947198.87813","1947965.41589","1948732.02104","1949498.77799","1950265.88895","1951032.4199","1951798.97497","1951042.85017","Mapping"
"Mixed","Both","done","46","M_cling.wav","None","725.081954079","104","1945682.64577","1952565.72759","1938732.27858","1939498.71307","1940265.58751","1941032.80389","1941799.1784","1942548.60002","1946431.69421","1947198.87813","1947965.41589","1948732.02104","1949498.77799","1950265.88895","1951032.4199","1951798.97497","1951805.4339","Mapping"
"Mixed","Both","done","46","M_done.wav","None","719.380491108","104","1945682.64577","1952565.72759","1953315.08274","1939498.71307","1940265.58751","1941032.80389","1941799.1784","1942548.60002","1946431.69421","1947198.87813","1947965.41589","1948732.02104","1949498.77799","1950265.88895","1951032.4199","1951798.97497","1952575.66102","Mapping"
"Mixed","Both","done","46","M_cad.wav","space","693.626363558","104","1945682.64577","1952565.72759","1953315.08274","1954082.0017","1940265.58751","1941032.80389","1941799.1784","1942548.60002","1946431.69421","1947198.87813","1947965.41589","1948732.02104","1949498.77799","1950265.88895","1951032.4199","1951798.97497","1953324.75924","Mapping"
"Mixed","Both","done","46","M_lash.wav","None","731.292316152","104","1945682.64577","1952565.72759","1953315.08274","1954082.0017","1954848.41331","1941032.80389","1941799.1784","1942548.60002","1946431.69421","1947198.87813","1947965.41589","1948732.02104","1949498.77799","1950265.88895","1951032.4199","1951798.97497","1954091.82413","Mapping"
"Mixed","Both","done","46","F_park.wav","None","729.713986963","104","1945682.64577","1952565.72759","1953315.08274","1954082.0017","1954848.41331","1955615.02835","1941799.1784","1942548.60002","1946431.69421","1947198.87813","1947965.41589","1948732.02104","1949498.77799","1950265.88895","1951032.4199","1951798.97497","1954858.10589","Mapping"
"Mixed","Both","done","46","F_done.wav","None","727.859566119","104","1945682.64577","1952565.72759","1953315.08274","1954082.0017","1954848.41331","1955615.02835","1956381.54632","1942548.60002","1946431.69421","1947198.87813","1947965.41589","1948732.02104","1949498.77799","1950265.88895","1951032.4199","1951798.97497","1955624.82698","Mapping"
"Mixed","Both","done","46","M_jaw.wav","space","651.431951134","104","1945682.64577","1952565.72759","1953315.08274","1954082.0017","1954848.41331","1955615.02835","1956381.54632","1957148.77353","1946431.69421","1947198.87813","1947965.41589","1948732.02104","1949498.77799","1950265.88895","1951032.4199","1951798.97497","1956390.89943","Mapping"
"Mixed","Both","done","37","F_cave.wav","None","721.500800908","104","1960265.55319","1952565.72759","1953315.08274","1954082.0017","1954848.41331","1955615.02835","1956381.54632","1957148.77353","1946431.69421","1947198.87813","1947965.41589","1948732.02104","1949498.77799","1950265.88895","1951032.4199","1951798.97497","1957159.48885","Mapping"
"Mixed","Both","done","37","M_lash.wav","None","720.216804621","104","1960265.55319","1952565.72759","1953315.08274","1954082.0017","1954848.41331","1955615.02835","1956381.54632","1957148.77353","1961015.26234","1947198.87813","1947965.41589","1948732.02104","1949498.77799","1950265.88895","1951032.4199","1951798.97497","1960275.60843","Mapping"
"Mixed","Both","done","37","F_gnash.wav","None","735.260554167","104","1960265.55319","1952565.72759","1953315.08274","1954082.0017","1954848.41331","1955615.02835","1956381.54632","1957148.77353","1961015.26234","1961781.76299","1947965.41589","1948732.02104","1949498.77799","1950265.88895","1951032.4199","1951798.97497","1961025.28604","Mapping"
"Mixed","Both","done","37","F_ball.wav","None","734.295933784","104","1960265.55319","1952565.72759","1953315.08274","1954082.0017","1954848.41331","1955615.02835","1956381.54632","1957148.77353","1961015.26234","1961781.76299","1962548.13317","1948732.02104","1949498.77799","1950265.88895","1951032.4199","1951798.97497","1961791.29912","Mapping"
"Mixed","Both","done","37","M_dime.wav","None","732.454807381","104","1960265.55319","1952565.72759","1953315.08274","1954082.0017","1954848.41331","1955615.02835","1956381.54632","1957148.77353","1961015.26234","1961781.76299","1962548.13317","1963315.40922","1949498.77799","1950265.88895","1951032.4199","1951798.97497","1962558.25611","Mapping"
"Mixed","Both","done","37","F_done.wav","None","729.583825043","104","1960265.55319","1952565.72759","1953315.08274","1954082.0017","1954848.41331","1955615.02835","1956381.54632","1957148.77353","1961015.26234","1961781.76299","1962548.13317","1963315.40922","1964081.89843","1950265.88895","1951032.4199","1951798.97497","1963325.86577","Mapping"
"Mixed","Both","done","37","M_jaw.wav","space","526.396434871","104","1960265.55319","1952565.72759","1953315.08274","1954082.0017","1954848.41331","1955615.02835","1956381.54632","1957148.77353","1961015.26234","1961781.76299","1962548.13317","1963315.40922","1964081.89843","1964848.31901","1951032.4199","1951798.97497","1964091.8297","Mapping"
"Mixed","Both","done","37","F_done.wav","None","725.701228003","104","1960265.55319","1952565.72759","1953315.08274","1954082.0017","1954848.41331","1955615.02835","1956381.54632","1957148.77353","1961015.26234","1961781.76299","1962548.13317","1963315.40922","1964081.89843","1964848.31901","1965615.43028","1951798.97497","1964858.24563","Mapping"
"Mixed","Both","done","37","M_priest.wav","space","488.371532192","104","1960265.55319","1952565.72759","1953315.08274","1954082.0017","1954848.41331","1955615.02835","1956381.54632","1957148.77353","1961015.26234","1961781.76299","1962548.13317","1963315.40922","1964081.89843","1964848.31901","1965615.43028","1966381.86879","1965625.84447","Mapping"
"Mixed","Both","done","37","M_done.wav","None","721.028075088","104","1960265.55319","1967148.49249","1953315.08274","1954082.0017","1954848.41331","1955615.02835","1956381.54632","1957148.77353","1961015.26234","1961781.76299","1962548.13317","1963315.40922","1964081.89843","1964848.31901","1965615.43028","1966381.86879","1966391.79077","Mapping"
"Mixed","Both","done","37","F_jolt.wav","space","659.949672787","104","1960265.55319","1967148.49249","1967898.18092","1954082.0017","1954848.41331","1955615.02835","1956381.54632","1957148.77353","1961015.26234","1961781.76299","1962548.13317","1963315.40922","1964081.89843","1964848.31901","1965615.43028","1966381.86879","1967158.19156","Mapping"
"Mixed","Both","done","37","M_bluff.wav","None","732.612485706","104","1960265.55319","1967148.49249","1967898.18092","1968664.81328","1954848.41331","1955615.02835","1956381.54632","1957148.77353","1961015.26234","1961781.76299","1962548.13317","1963315.40922","1964081.89843","1964848.31901","1965615.43028","1966381.86879","1967908.63963","Mapping"
"Mixed","Both","done","37","F_park.wav","None","731.326634384","104","1960265.55319","1967148.49249","1967898.18092","1968664.81328","1969431.73873","1955615.02835","1956381.54632","1957148.77353","1961015.26234","1961781.76299","1962548.13317","1963315.40922","1964081.89843","1964848.31901","1965615.43028","1966381.86879","1968674.57171","Mapping"
"Mixed","Both","done","37","M_lash.wav","None","729.154692657","104","1960265.55319","1967148.49249","1967898.18092","1968664.81328","1969431.73873","1970198.12097","1956381.54632","1957148.77353","1961015.26234","1961781.76299","1962548.13317","1963315.40922","1964081.89843","1964848.31901","1965615.43028","1966381.86879","1969441.53798","Mapping"
"Mixed","Both","done","37","M_done.wav","None","727.523804016","104","1960265.55319","1967148.49249","1967898.18092","1968664.81328","1969431.73873","1970198.12097","1970964.82258","1957148.77353","1961015.26234","1961781.76299","1962548.13317","1963315.40922","1964081.89843","1964848.31901","1965615.43028","1966381.86879","1970207.9703","Mapping"
"Mixed","Both","done","37","F_lash.wav","space","636.067279789","104","1960265.55319","1967148.49249","1967898.18092","1968664.81328","1969431.73873","1970198.12097","1970964.82258","1971732.0906","1961015.26234","1961781.76299","1962548.13317","1963315.40922","1964081.89843","1964848.31901","1965615.43028","1966381.86879","1970973.99575","Mapping"
"Mixed","Both","cave","19","F_greet.wav","None","721.506675196","104","1974848.50853","1967148.49249","1967898.18092","1968664.81328","1969431.73873","1970198.12097","1970964.82258","1971732.0906","1961015.26234","1961781.76299","1962548.13317","1963315.40922","1964081.89843","1964848.31901","1965615.43028","1966381.86879","1971742.25282","Mapping"
"Mixed","Both","cave","19","F_lash.wav","None","718.89941761","104","1974848.50853","1967148.49249","1967898.18092","1968664.81328","1969431.73873","1970198.12097","1970964.82258","1971732.0906","1975598.06958","1961781.76299","1962548.13317","1963315.40922","1964081.89843","1964848.31901","1965615.43028","1966381.86879","1974859.72781","Mapping"
"Mixed","Both","cave","19","F_reek.wav","None","735.322388806","104","1974848.50853","1967148.49249","1967898.18092","1968664.81328","1969431.73873","1970198.12097","1970964.82258","1971732.0906","1975598.06958","1976364.96227","1962548.13317","1963315.40922","1964081.89843","1964848.31901","1965615.43028","1966381.86879","1975608.03362","Mapping"
"Mixed","Both","cave","19","F_cave.wav","None","733.473223911","104","1974848.50853","1967148.49249","1967898.18092","1968664.81328","1969431.73873","1970198.12097","1970964.82258","1971732.0906","1975598.06958","1976364.96227","1977131.22455","1963315.40922","1964081.89843","1964848.31901","1965615.43028","1966381.86879","1976374.6329","Mapping"
"Mixed","Both","cave","19","F_romp.wav","space","469.25844498","104","1974848.50853","1967148.49249","1967898.18092","1968664.81328","1969431.73873","1970198.12097","1970964.82258","1971732.0906","1975598.06958","1976364.96227","1977131.22455","1977897.99912","1964081.89843","1964848.31901","1965615.43028","1966381.86879","1977140.7242","Mapping"
"Mixed","Both","cave","19","M_park.wav","None","729.431402666","104","1974848.50853","1967148.49249","1967898.18092","1968664.81328","1969431.73873","1970198.12097","1970964.82258","1971732.0906","1975598.06958","1976364.96227","1977131.22455","1977897.99912","1978664.87573","1964848.31901","1965615.43028","1966381.86879","1977907.06192","Mapping"
"Mixed","Both","cave","19","F_jolt.wav","None","726.328540419","104","1974848.50853","1967148.49249","1967898.18092","1968664.81328","1969431.73873","1970198.12097","1970964.82258","1971732.0906","1975598.06958","1976364.96227","1977131.22455","1977897.99912","1978664.87573","1979431.54735","1965615.43028","1966381.86879","1978675.11369","Mapping"
"Mixed","Both","cave","19","M_depth.wav","None","724.652203338","104","1974848.50853","1967148.49249","1967898.18092","1968664.81328","1969431.73873","1970198.12097","1970964.82258","1971732.0906","1975598.06958","1976364.96227","1977131.22455","1977897.99912","1978664.87573","1979431.54735","1980198.25855","1966381.86879","1979441.42451","Mapping"
"Mixed","Both","cave","19","M_cave.wav","None","722.74089462","104","1974848.50853","1967148.49249","1967898.18092","1968664.81328","1969431.73873","1970198.12097","1970964.82258","1971732.0906","1975598.06958","1976364.96227","1977131.22455","1977897.99912","1978664.87573","1979431.54735","1980198.25855","1980965.231","1980208.36109","Mapping"
"Mixed","Both","cave","19","M_done.wav","space","634.505955139","104","1974848.50853","1981714.62541","1967898.18092","1968664.81328","1969431.73873","1970198.12097","1970964.82258","1971732.0906","1975598.06958","1976364.96227","1977131.22455","1977897.99912","1978664.87573","1979431.54735","1980198.25855","1980965.231","1980975.39445","Mapping"
"Mixed","Both","cave","19","M_knife.wav","None","734.505553206","104","1974848.50853","1981714.62541","1982497.74783","1968664.81328","1969431.73873","1970198.12097","1970964.82258","1971732.0906","1975598.06958","1976364.96227","1977131.22455","1977897.99912","1978664.87573","1979431.54735","1980198.25855","1980965.231","1981724.87141","Mapping"
"Mixed","Both","cave","19","F_cave.wav","None","720.938105689","104","1974848.50853","1981714.62541","1982497.74783","1983247.64155","1969431.73873","1970198.12097","1970964.82258","1971732.0906","1975598.06958","1976364.96227","1977131.22455","1977897.99912","1978664.87573","1979431.54735","1980198.25855","1980965.231","1982506.85916","Mapping"
"Mixed","Both","cave","19","M_jolt.wav","space","616.553194952","104","1974848.50853","1981714.62541","1982497.74783","1983247.64155","1984014.76457","1970198.12097","1970964.82258","1971732.0906","1975598.06958","1976364.96227","1977131.22455","1977897.99912","1978664.87573","1979431.54735","1980198.25855","1980965.231","1983257.34588","Mapping"
"Mixed","Both","cave","19","M_cave.wav","None","731.702588979","104","1974848.50853","1981714.62541","1982497.74783","1983247.64155","1984014.76457","1984781.41207","1970964.82258","1971732.0906","1975598.06958","1976364.96227","1977131.22455","1977897.99912","1978664.87573","1979431.54735","1980198.25855","1980965.231","1984024.32111","Mapping"
"Mixed","Both","cave","19","F_park.wav","space","610.720951707","104","1974848.50853","1981714.62541","1982497.74783","1983247.64155","1984014.76457","1984781.41207","1985547.88985","1971732.0906","1975598.06958","1976364.96227","1977131.22455","1977897.99912","1978664.87573","1979431.54735","1980198.25855","1980965.231","1984791.12599","Mapping"
"Mixed","Both","cave","19","M_done.wav","None","726.784880069","104","1974848.50853","1981714.62541","1982497.74783","1983247.64155","1984014.76457","1984781.41207","1985547.88985","1986314.77202","1975598.06958","1976364.96227","1977131.22455","1977897.99912","1978664.87573","1979431.54735","1980198.25855","1980965.231","1985558.17882","Mapping"
"Mixed","Both","done","39","M_depth.wav","None","730.690665107","104","1989448.04762","1981714.62541","1982497.74783","1983247.64155","1984014.76457","1984781.41207","1985547.88985","1986314.77202","1975598.06958","1976364.96227","1977131.22455","1977897.99912","1978664.87573","1979431.54735","1980198.25855","1980965.231","1986319.43342","Mapping"
"Mixed","Both","done","39","M_jaw.wav","None","720.387777386","104","1989448.04762","1981714.62541","1982497.74783","1983247.64155","1984014.76457","1984781.41207","1985547.88985","1986314.77202","1990215.06088","1976364.96227","1977131.22455","1977897.99912","1978664.87573","1979431.54735","1980198.25855","1980965.231","1989458.40399","Mapping"
"Mixed","Both","done","39","F_gnash.wav","None","718.652079056","104","1989448.04762","1981714.62541","1982497.74783","1983247.64155","1984014.76457","1984781.41207","1985547.88985","1986314.77202","1990215.06088","1990964.52021","1977131.22455","1977897.99912","1978664.87573","1979431.54735","1980198.25855","1980965.231","1990224.90155","Mapping"
"Mixed","Both","done","39","F_done.wav","None","734.340763898","104","1989448.04762","1981714.62541","1982497.74783","1983247.64155","1984014.76457","1984781.41207","1985547.88985","1986314.77202","1990215.06088","1990964.52021","1991731.28953","1977897.99912","1978664.87573","1979431.54735","1980198.25855","1980965.231","1990974.15621","Mapping"
"Mixed","Both","done","39","F_ball.wav","space","412.670783408","104","1989448.04762","1981714.62541","1982497.74783","1983247.64155","1984014.76457","1984781.41207","1985547.88985","1986314.77202","1990215.06088","1990964.52021","1991731.28953","1992497.71815","1978664.87573","1979431.54735","1980198.25855","1980965.231","1991741.05879","Mapping"
"Mixed","Both","done","39","F_done.wav","None","729.771184007","104","1989448.04762","1981714.62541","1982497.74783","1983247.64155","1984014.76457","1984781.41207","1985547.88985","1986314.77202","1990215.06088","1990964.52021","1991731.28953","1992497.71815","1993264.34649","1979431.54735","1980198.25855","1980965.231","1992507.04899","Mapping"
"Mixed","Both","done","39","M_park.wav","space","471.749453456","104","1989448.04762","1981714.62541","1982497.74783","1983247.64155","1984014.76457","1984781.41207","1985547.88985","1986314.77202","1990215.06088","1990964.52021","1991731.28953","1992497.71815","1993264.34649","1994031.53876","1980198.25855","1980965.231","1993273.91818","Mapping"
"Mixed","Both","done","39","M_jaw.wav","None","723.567005407","104","1989448.04762","1981714.62541","1982497.74783","1983247.64155","1984014.76457","1984781.41207","1985547.88985","1986314.77202","1990215.06088","1990964.52021","1991731.28953","1992497.71815","1993264.34649","1994031.53876","1994797.86905","1980965.231","1994041.54175","Mapping"
"Mixed","Both","done","39","F_ball.wav","None","722.605785922","104","1989448.04762","1981714.62541","1982497.74783","1983247.64155","1984014.76457","1984781.41207","1985547.88985","1986314.77202","1990215.06088","1990964.52021","1991731.28953","1992497.71815","1993264.34649","1994031.53876","1994797.86905","1995564.60128","1994807.74745","Mapping"
"Mixed","Both","done","39","M_done.wav","None","720.442810227","104","1989448.04762","1996331.60743","1982497.74783","1983247.64155","1984014.76457","1984781.41207","1985547.88985","1986314.77202","1990215.06088","1990964.52021","1991731.28953","1992497.71815","1993264.34649","1994031.53876","1994797.86905","1995564.60128","1995574.86675","Mapping"
"Mixed","Both","done","39","F_gnash.wav","space","540.055397665","104","1989448.04762","1996331.60743","1997081.20434","1983247.64155","1984014.76457","1984781.41207","1985547.88985","1986314.77202","1990215.06088","1990964.52021","1991731.28953","1992497.71815","1993264.34649","1994031.53876","1994797.86905","1995564.60128","1996341.61629","Mapping"
"Mixed","Both","done","39","M_gnash.wav","None","732.968653247","104","1989448.04762","1996331.60743","1997081.20434","1997847.74209","1984014.76457","1984781.41207","1985547.88985","1986314.77202","1990215.06088","1990964.52021","1991731.28953","1992497.71815","1993264.34649","1994031.53876","1994797.86905","1995564.60128","1997090.721","Mapping"
"Mixed","Both","done","39","F_lash.wav","None","731.176067027","104","1989448.04762","1996331.60743","1997081.20434","1997847.74209","1998614.51358","1984781.41207","1985547.88985","1986314.77202","1990215.06088","1990964.52021","1991731.28953","1992497.71815","1993264.34649","1994031.53876","1994797.86905","1995564.60128","1997857.49898","Mapping"
"Mixed","Both","done","39","M_done.wav","None","728.839954332","104","1989448.04762","1996331.60743","1997081.20434","1997847.74209","1998614.51358","1999381.18706","1985547.88985","1986314.77202","1990215.06088","1990964.52021","1991731.28953","1992497.71815","1993264.34649","1994031.53876","1994797.86905","1995564.60128","1998624.80163","Mapping"
"Mixed","Both","done","39","F_tile.wav","space","674.519769003","104","1989448.04762","1996331.60743","1997081.20434","1997847.74209","1998614.51358","1999381.18706","2000147.66452","1986314.77202","1990215.06088","1990964.52021","1991731.28953","1992497.71815","1993264.34649","1994031.53876","1994797.86905","1995564.60128","1999391.06205","Mapping"
"Mixed","Both","done","39","M_depth.wav","None","724.645710696","104","1989448.04762","1996331.60743","1997081.20434","1997847.74209","1998614.51358","1999381.18706","2000147.66452","2000914.96037","1990215.06088","1990964.52021","1991731.28953","1992497.71815","1993264.34649","1994031.53876","1994797.86905","1995564.60128","2000157.36638","Mapping"
"Mixed","Both","done","45","M_depth.wav","None","721.513786193","104","2004031.43086","1996331.60743","1997081.20434","1997847.74209","1998614.51358","1999381.18706","2000147.66452","2000914.96037","1990215.06088","1990964.52021","1991731.28953","1992497.71815","1993264.34649","1994031.53876","1994797.86905","1995564.60128","2000925.34611","Mapping"
"Mixed","Both","done","45","F_done.wav","None","719.836521574","104","2004031.43086","1996331.60743","1997081.20434","1997847.74209","1998614.51358","1999381.18706","2000147.66452","2000914.96037","2004781.11743","1990964.52021","1991731.28953","1992497.71815","1993264.34649","1994031.53876","1994797.86905","1995564.60128","2004041.12529","Mapping"
"Mixed","Both","done","45","M_depth.wav","space","378.809207046","104","2004031.43086","1996331.60743","1997081.20434","1997847.74209","1998614.51358","1999381.18706","2000147.66452","2000914.96037","2004781.11743","2005547.49658","1991731.28953","1992497.71815","1993264.34649","1994031.53876","1994797.86905","1995564.60128","2004790.66006","Mapping"
"Mixed","Both","done","45","F_depth.wav","None","732.172532255","104","2004031.43086","1996331.60743","1997081.20434","1997847.74209","1998614.51358","1999381.18706","2000147.66452","2000914.96037","2004781.11743","2005547.49658","2006314.39421","1992497.71815","1993264.34649","1994031.53876","1994797.86905","1995564.60128","2005557.66065","Mapping"
"Mixed","Both","done","45","F_greet.wav","space","332.955420628","104","2004031.43086","1996331.60743","1997081.20434","1997847.74209","1998614.51358","1999381.18706","2000147.66452","2000914.96037","2004781.11743","2005547.49658","2006314.39421","2007080.71801","1993264.34649","1994031.53876","1994797.86905","1995564.60128","2006324.49861","Mapping"
"Mixed","Both","done","45","M_lash.wav","None","728.485023501","104","2004031.43086","1996331.60743","1997081.20434","1997847.74209","1998614.51358","1999381.18706","2000147.66452","2000914.96037","2004781.11743","2005547.49658","2006314.39421","2007080.71801","2007847.44065","1994031.53876","1994797.86905","1995564.60128","2007090.37256","Mapping"
"Mixed","Both","done","45","F_lash.wav","None","727.565851572","104","2004031.43086","1996331.60743","1997081.20434","1997847.74209","1998614.51358","1999381.18706","2000147.66452","2000914.96037","2004781.11743","2005547.49658","2006314.39421","2007080.71801","2007847.44065","2008614.10578","1994797.86905","1995564.60128","2007856.79839","Mapping"
"Mixed","Both","done","45","F_done.wav","None","726.173953823","104","2004031.43086","1996331.60743","1997081.20434","1997847.74209","1998614.51358","1999381.18706","2000147.66452","2000914.96037","2004781.11743","2005547.49658","2006314.39421","2007080.71801","2007847.44065","2008614.10578","2009381.62701","1995564.60128","2008623.45054","Mapping"
"Mixed","Both","done","45","F_ball.wav","space","514.076192019","104","2004031.43086","1996331.60743","1997081.20434","1997847.74209","1998614.51358","1999381.18706","2000147.66452","2000914.96037","2004781.11743","2005547.49658","2006314.39421","2007080.71801","2007847.44065","2008614.10578","2009381.62701","2010147.99936","2009391.37153","Mapping"
"Mixed","Both","done","45","M_done.wav","None","719.390075479","104","2004031.43086","2010914.64872","1997081.20434","1997847.74209","1998614.51358","1999381.18706","2000147.66452","2000914.96037","2004781.11743","2005547.49658","2006314.39421","2007080.71801","2007847.44065","2008614.10578","2009381.62701","2010147.99936","2010158.88256","Mapping"
"Mixed","Both","done","45","F_park.wav","None","718.374132339","104","2004031.43086","2010914.64872","2011663.94234","1997847.74209","1998614.51358","1999381.18706","2000147.66452","2000914.96037","2004781.11743","2005547.49658","2006314.39421","2007080.71801","2007847.44065","2008614.10578","2009381.62701","2010147.99936","2010924.81557","Mapping"
"Mixed","Both","done","45","M_done.wav","None","734.421458095","104","2004031.43086","2010914.64872","2011663.94234","2012430.89933","1998614.51358","1999381.18706","2000147.66452","2000914.96037","2004781.11743","2005547.49658","2006314.39421","2007080.71801","2007847.44065","2008614.10578","2009381.62701","2010147.99936","2011673.89215","Mapping"
"Mixed","Both","done","45","M_dime.wav","space","648.965985689","104","2004031.43086","2010914.64872","2011663.94234","2012430.89933","2013197.28867","1999381.18706","2000147.66452","2000914.96037","2004781.11743","2005547.49658","2006314.39421","2007080.71801","2007847.44065","2008614.10578","2009381.62701","2010147.99936","2012440.43825","Mapping"
"Mixed","Both","done","45","F_romp.wav","None","730.223813574","104","2004031.43086","2010914.64872","2011663.94234","2012430.89933","2013197.28867","2013963.98287","2000147.66452","2000914.96037","2004781.11743","2005547.49658","2006314.39421","2007080.71801","2007847.44065","2008614.10578","2009381.62701","2010147.99936","2013206.36074","Mapping"
"Mixed","Both","done","45","M_cling.wav","None","728.446376845","104","2004031.43086","2010914.64872","2011663.94234","2012430.89933","2013197.28867","2013963.98287","2014730.88173","2000914.96037","2004781.11743","2005547.49658","2006314.39421","2007080.71801","2007847.44065","2008614.10578","2009381.62701","2010147.99936","2013973.40183","Mapping"
"Mixed","Both","done","45","M_gnash.wav","None","726.487764623","104","2004031.43086","2010914.64872","2011663.94234","2012430.89933","2013197.28867","2013963.98287","2014730.88173","2015497.55552","2004781.11743","2005547.49658","2006314.39421","2007080.71801","2007847.44065","2008614.10578","2009381.62701","2010147.99936","2014740.33285","Mapping"
"Mixed","Both","done","41","M_tile.wav","None","724.72022145","104","2018614.54079","2010914.64872","2011663.94234","2012430.89933","2013197.28867","2013963.98287","2014730.88173","2015497.55552","2004781.11743","2005547.49658","2006314.39421","2007080.71801","2007847.44065","2008614.10578","2009381.62701","2010147.99936","2015507.20234","Mapping"
"Mixed","Both","done","41","M_cling.wav","None","720.154969967","104","2018614.54079","2010914.64872","2011663.94234","2012430.89933","2013197.28867","2013963.98287","2014730.88173","2015497.55552","2019381.21828","2005547.49658","2006314.39421","2007080.71801","2007847.44065","2008614.10578","2009381.62701","2010147.99936","2018624.6928","Mapping"
"Mixed","Both","done","41","F_bluff.wav","None","718.888905714","104","2018614.54079","2010914.64872","2011663.94234","2012430.89933","2013197.28867","2013963.98287","2014730.88173","2015497.55552","2019381.21828","2020130.61857","2006314.39421","2007080.71801","2007847.44065","2008614.10578","2009381.62701","2010147.99936","2019390.98321","Mapping"
"Mixed","Both","done","41","F_done.wav","None","732.191082643","104","2018614.54079","2010914.64872","2011663.94234","2012430.89933","2013197.28867","2013963.98287","2014730.88173","2015497.55552","2019381.21828","2020130.61857","2020897.09974","2007080.71801","2007847.44065","2008614.10578","2009381.62701","2010147.99936","2020142.64571","Mapping"
"Mixed","Both","done","41","F_cad.wav","space","606.685313934","104","2018614.54079","2010914.64872","2011663.94234","2012430.89933","2013197.28867","2013963.98287","2014730.88173","2015497.55552","2019381.21828","2020130.61857","2020897.09974","2021664.1535","2007847.44065","2008614.10578","2009381.62701","2010147.99936","2020906.49737","Mapping"
"Mixed","Both","done","41","M_done.wav","None","729.329684676","104","2018614.54079","2010914.64872","2011663.94234","2012430.89933","2013197.28867","2013963.98287","2014730.88173","2015497.55552","2019381.21828","2020130.61857","2020897.09974","2021664.1535","2022430.79761","2008614.10578","2009381.62701","2010147.99936","2021674.05817","Mapping"
"Mixed","Both","done","41","M_depth.wav","None","727.976124399","104","2018614.54079","2010914.64872","2011663.94234","2012430.89933","2013197.28867","2013963.98287","2014730.88173","2015497.55552","2019381.21828","2020130.61857","2020897.09974","2021664.1535","2022430.79761","2023197.21571","2009381.62701","2010147.99936","2022440.67909","Mapping"
"Mixed","Both","done","41","M_depth.wav","space","82.9094311048","104","2018614.54079","2010914.64872","2011663.94234","2012430.89933","2013197.28867","2013963.98287","2014730.88173","2015497.55552","2019381.21828","2020130.61857","2020897.09974","2021664.1535","2022430.79761","2023197.21571","2023964.60091","2010147.99936","2023206.2513","Mapping"
"Mixed","Both","done","41","F_jaw.wav","None","722.018666027","104","2018614.54079","2010914.64872","2011663.94234","2012430.89933","2013197.28867","2013963.98287","2014730.88173","2015497.55552","2019381.21828","2020130.61857","2020897.09974","2021664.1535","2022430.79761","2023197.21571","2023964.60091","2024731.09259","2023975.26893","Mapping"
"Mixed","Both","done","41","M_greet.wav","None","721.349615211","104","2018614.54079","2025497.56449","2011663.94234","2012430.89933","2013197.28867","2013963.98287","2014730.88173","2015497.55552","2019381.21828","2020130.61857","2020897.09974","2021664.1535","2022430.79761","2023197.21571","2023964.60091","2024731.09259","2024741.16793","Mapping"
"Mixed","Both","done","41","M_depth.wav","None","719.99048983","104","2018614.54079","2025497.56449","2026247.09277","2012430.89933","2013197.28867","2013963.98287","2014730.88173","2015497.55552","2019381.21828","2020130.61857","2020897.09974","2021664.1535","2022430.79761","2023197.21571","2023964.60091","2024731.09259","2025507.63797","Mapping"
"Mixed","Both","done","41","F_romp.wav","None","736.061931093","104","2018614.54079","2025497.56449","2026247.09277","2027013.62495","2013197.28867","2013963.98287","2014730.88173","2015497.55552","2019381.21828","2020130.61857","2020897.09974","2021664.1535","2022430.79761","2023197.21571","2023964.60091","2024731.09259","2026256.54017","Mapping"
"Mixed","Both","done","41","F_done.wav","None","734.478964325","104","2018614.54079","2025497.56449","2026247.09277","2027013.62495","2027780.62708","2013963.98287","2014730.88173","2015497.55552","2019381.21828","2020130.61857","2020897.09974","2021664.1535","2022430.79761","2023197.21571","2023964.60091","2024731.09259","2027023.47459","Mapping"
"Mixed","Both","done","41","F_tile.wav","space","626.96212907","104","2018614.54079","2025497.56449","2026247.09277","2027013.62495","2027780.62708","2028547.06992","2014730.88173","2015497.55552","2019381.21828","2020130.61857","2020897.09974","2021664.1535","2022430.79761","2023197.21571","2023964.60091","2024731.09259","2027790.13261","Mapping"
"Mixed","Both","done","41","M_done.wav","None","730.732712662","104","2018614.54079","2025497.56449","2026247.09277","2027013.62495","2027780.62708","2028547.06992","2029313.9728","2015497.55552","2019381.21828","2020130.61857","2020897.09974","2021664.1535","2022430.79761","2023197.21571","2023964.60091","2024731.09259","2028556.70901","Mapping"
"Mixed","Both","done","41","F_jaw.wav","space","619.492504571","104","2018614.54079","2025497.56449","2026247.09277","2027013.62495","2027780.62708","2028547.06992","2029313.9728","2030080.61722","2019381.21828","2020130.61857","2020897.09974","2021664.1535","2022430.79761","2023197.21571","2023964.60091","2024731.09259","2029325.55536","Mapping"
"Mixed","Both","cave","22","M_romp.wav","None","725.510158969","104","2033214.20447","2025497.56449","2026247.09277","2027013.62495","2027780.62708","2028547.06992","2029313.9728","2030080.61722","2019381.21828","2020130.61857","2020897.09974","2021664.1535","2022430.79761","2023197.21571","2023964.60091","2024731.09259","2030090.56425","Mapping"
"Mixed","Both","cave","22","M_cave.wav","None","720.0900436","104","2033214.20447","2025497.56449","2026247.09277","2027013.62495","2027780.62708","2028547.06992","2029313.9728","2030080.61722","2033980.80962","2020130.61857","2020897.09974","2021664.1535","2022430.79761","2023197.21571","2023964.60091","2024731.09259","2033224.37936","Mapping"
"Mixed","Both","cave","22","F_jaw.wav","space","378.679354311","104","2033214.20447","2025497.56449","2026247.09277","2027013.62495","2027780.62708","2028547.06992","2029313.9728","2030080.61722","2033980.80962","2034730.58245","2020897.09974","2021664.1535","2022430.79761","2023197.21571","2023964.60091","2024731.09259","2033990.28732","Mapping"
"Mixed","Both","cave","22","F_cave.wav","None","732.353707746","104","2033214.20447","2025497.56449","2026247.09277","2027013.62495","2027780.62708","2028547.06992","2029313.9728","2030080.61722","2033980.80962","2034730.58245","2035496.95078","2021664.1535","2022430.79761","2023197.21571","2023964.60091","2024731.09259","2034740.49486","Mapping"
"Mixed","Both","cave","22","M_cling.wav","space","357.966914133","104","2033214.20447","2025497.56449","2026247.09277","2027013.62495","2027780.62708","2028547.06992","2029313.9728","2030080.61722","2033980.80962","2034730.58245","2035496.95078","2036263.61807","2022430.79761","2023197.21571","2023964.60091","2024731.09259","2035506.9785","Mapping"
"Mixed","Both","cave","22","F_depth.wav","None","728.118653264","104","2033214.20447","2025497.56449","2026247.09277","2027013.62495","2027780.62708","2028547.06992","2029313.9728","2030080.61722","2033980.80962","2034730.58245","2035496.95078","2036263.61807","2037030.49437","2023197.21571","2023964.60091","2024731.09259","2036273.16565","Mapping"
"Mixed","Both","cave","22","M_reek.wav","None","724.905107025","104","2033214.20447","2025497.56449","2026247.09277","2027013.62495","2027780.62708","2028547.06992","2029313.9728","2030080.61722","2033980.80962","2034730.58245","2035496.95078","2036263.61807","2037030.49437","2037797.04387","2023964.60091","2024731.09259","2037041.63914","Mapping"
"Mixed","Both","cave","22","M_romp.wav","None","724.89212174","104","2033214.20447","2025497.56449","2026247.09277","2027013.62495","2027780.62708","2028547.06992","2029313.9728","2030080.61722","2033980.80962","2034730.58245","2035496.95078","2036263.61807","2037030.49437","2037797.04387","2038564.05837","2024731.09259","2037806.92134","Mapping"
"Mixed","Both","cave","22","F_lash.wav","None","722.743986349","104","2033214.20447","2025497.56449","2026247.09277","2027013.62495","2027780.62708","2028547.06992","2029313.9728","2030080.61722","2033980.80962","2034730.58245","2035496.95078","2036263.61807","2037030.49437","2037797.04387","2038564.05837","2039330.79523","2038574.26232","Mapping"
"Mixed","Both","cave","22","M_cad.wav","None","720.290387835","104","2033214.20447","2040097.19725","2026247.09277","2027013.62495","2027780.62708","2028547.06992","2029313.9728","2030080.61722","2033980.80962","2034730.58245","2035496.95078","2036263.61807","2037030.49437","2037797.04387","2038564.05837","2039330.79523","2039342.36202","Mapping"
"Mixed","Both","cave","22","M_cave.wav","None","718.697218326","104","2033214.20447","2040097.19725","2040863.65245","2027013.62495","2027780.62708","2028547.06992","2029313.9728","2030080.61722","2033980.80962","2034730.58245","2035496.95078","2036263.61807","2037030.49437","2037797.04387","2038564.05837","2039330.79523","2040109.15731","Mapping"
"Mixed","Both","cave","22","F_gnash.wav","space","711.327765952","104","2033214.20447","2040097.19725","2040863.65245","2041613.80403","2027780.62708","2028547.06992","2029313.9728","2030080.61722","2033980.80962","2034730.58245","2035496.95078","2036263.61807","2037030.49437","2037797.04387","2038564.05837","2039330.79523","2040873.49993","Mapping"
"Mixed","Both","cave","22","F_cave.wav","None","732.550032728","104","2033214.20447","2040097.19725","2040863.65245","2041613.80403","2042380.42247","2028547.06992","2029313.9728","2030080.61722","2033980.80962","2034730.58245","2035496.95078","2036263.61807","2037030.49437","2037797.04387","2038564.05837","2039330.79523","2041623.83113","Mapping"
"Mixed","Both","cave","22","M_romp.wav","None","731.63951766","104","2033214.20447","2040097.19725","2040863.65245","2041613.80403","2042380.42247","2043146.73484","2029313.9728","2030080.61722","2033980.80962","2034730.58245","2035496.95078","2036263.61807","2037030.49437","2037797.04387","2038564.05837","2039330.79523","2042389.95057","Mapping"
"Mixed","Both","cave","22","F_ball.wav","None","729.729754806","104","2033214.20447","2040097.19725","2040863.65245","2041613.80403","2042380.42247","2043146.73484","2043913.72584","2030080.61722","2033980.80962","2034730.58245","2035496.95078","2036263.61807","2037030.49437","2037797.04387","2038564.05837","2039330.79523","2043157.2965","Mapping"
