"Condition","Talker","Target","Trial","current_stimulus","response_response","response_time_response","subject_nr","time_Audio1","time_Audio10","time_Audio11","time_Audio12","time_Audio13","time_Audio14","time_Audio15","time_Audio16","time_Audio2","time_Audio3","time_Audio4","time_Audio5","time_Audio6","time_Audio7","time_Audio8","time_Audio9","time_response"
"Blocked","Female","cave","11","F_lash.wav","NA","NA","239","73839.2612458","NA","NA","NA","NA","NA","NA","NA","NA","NA","NA","NA","NA","NA","NA","NA","NA"
"Blocked","Female","cave","11","F_lash.wav","None","720.648996183","239","73839.2612458","NA","NA","NA","NA","NA","NA","NA","74606.5317616","NA","NA","NA","NA","NA","NA","NA","73853.0925604"
"Blocked","Female","cave","11","F_cave.wav","None","721.267025918","239","73839.2612458","NA","NA","NA","NA","NA","NA","NA","74606.5317616","75372.4450235","NA","NA","NA","NA","NA","NA","74616.4842361"
"Blocked","Female","cave","11","F_jolt.wav","space","434.695678297","239","73839.2612458","NA","NA","NA","NA","NA","NA","NA","74606.5317616","75372.4450235","76139.5510612","NA","NA","NA","NA","NA","75381.9986694"
"Blocked","Female","cave","11","F_done.wav","None","723.213556921","239","73839.2612458","NA","NA","NA","NA","NA","NA","NA","74606.5317616","75372.4450235","76139.5510612","76905.6872342","NA","NA","NA","NA","76149.146445"
"Blocked","Female","cave","11","F_depth.wav","None","724.736216594","239","73839.2612458","NA","NA","NA","NA","NA","NA","NA","74606.5317616","75372.4450235","76139.5510612","76905.6872342","77672.1993574","NA","NA","NA","76915.0742379"
"Blocked","Female","cave","11","F_cave.wav","None","726.628333796","239","73839.2612458","NA","NA","NA","NA","NA","NA","NA","74606.5317616","75372.4450235","76139.5510612","76905.6872342","77672.1993574","78438.9915882","NA","NA","77680.9853355"
"Blocked","Female","cave","11","F_done.wav","space","440.482403268","239","73839.2612458","NA","NA","NA","NA","NA","NA","NA","74606.5317616","75372.4450235","76139.5510612","76905.6872342","77672.1993574","78438.9915882","79206.3619657","NA","78448.118271"
"Blocked","Female","cave","11","F_cave.wav","None","719.911627006","239","73839.2612458","NA","NA","NA","NA","NA","NA","NA","74606.5317616","75372.4450235","76139.5510612","76905.6872342","77672.1993574","78438.9915882","79206.3619657","79955.4254914","79216.4492381"
"Blocked","Female","cave","11","F_gnash.wav","space","636.038277647","239","73839.2612458","80723.049388","NA","NA","NA","NA","NA","NA","74606.5317616","75372.4450235","76139.5510612","76905.6872342","77672.1993574","78438.9915882","79206.3619657","79955.4254914","79964.4841569"
"Blocked","Female","cave","11","F_depth.wav","None","735.838183202","239","73839.2612458","80723.049388","81489.0263388","NA","NA","NA","NA","NA","74606.5317616","75372.4450235","76139.5510612","76905.6872342","77672.1993574","78438.9915882","79206.3619657","79955.4254914","80732.4543233"
"Blocked","Female","cave","11","F_done.wav","None","734.752380056","239","73839.2612458","80723.049388","81489.0263388","82256.0662143","NA","NA","NA","NA","74606.5317616","75372.4450235","76139.5510612","76905.6872342","77672.1993574","78438.9915882","79206.3619657","79955.4254914","81497.6963783"
"Blocked","Female","cave","11","F_gnash.wav","None","731.110981898","239","73839.2612458","80723.049388","81489.0263388","82256.0662143","83022.9672726","NA","NA","NA","74606.5317616","75372.4450235","76139.5510612","76905.6872342","77672.1993574","78438.9915882","79206.3619657","79955.4254914","82265.659743"
"Blocked","Female","cave","11","F_jolt.wav","None","729.257510975","239","73839.2612458","80723.049388","81489.0263388","82256.0662143","83022.9672726","83789.5375196","NA","NA","74606.5317616","75372.4450235","76139.5510612","76905.6872342","77672.1993574","78438.9915882","79206.3619657","79955.4254914","83032.0216097"
"Blocked","Female","cave","11","F_cave.wav","None","726.883707801","239","73839.2612458","80723.049388","81489.0263388","82256.0662143","83022.9672726","83789.5375196","84555.7160489","NA","74606.5317616","75372.4450235","76139.5510612","76905.6872342","77672.1993574","78438.9915882","79206.3619657","79955.4254914","83798.9443099"
"Blocked","Female","cave","11","F_cad.wav","space","435.926791164","239","73839.2612458","80723.049388","81489.0263388","82256.0662143","83022.9672726","83789.5375196","84555.7160489","85322.3237054","74606.5317616","75372.4450235","76139.5510612","76905.6872342","77672.1993574","78438.9915882","79206.3619657","79955.4254914","84564.5159396"
"Blocked","Female","ball","6","F_dime.wav","None","726.76529584","239","88505.9771735","80723.049388","81489.0263388","82256.0662143","83022.9672726","83789.5375196","84555.7160489","85322.3237054","74606.5317616","75372.4450235","76139.5510612","76905.6872342","77672.1993574","78438.9915882","79206.3619657","79955.4254914","85331.243863"
"Blocked","Female","ball","6","F_priest.wav","None","725.487189251","239","88505.9771735","80723.049388","81489.0263388","82256.0662143","83022.9672726","83789.5375196","84555.7160489","85322.3237054","89272.7353955","75372.4450235","76139.5510612","76905.6872342","77672.1993574","78438.9915882","79206.3619657","79955.4254914","88515.2630785"
"Blocked","Female","ball","6","F_reek.wav","None","726.076775463","239","88505.9771735","80723.049388","81489.0263388","82256.0662143","83022.9672726","83789.5375196","84555.7160489","85322.3237054","89272.7353955","90039.185994","76139.5510612","76905.6872342","77672.1993574","78438.9915882","79206.3619657","79955.4254914","89282.4618671"
"Blocked","Female","ball","6","F_ball.wav","None","727.511940058","239","88505.9771735","80723.049388","81489.0263388","82256.0662143","83022.9672726","83789.5375196","84555.7160489","85322.3237054","89272.7353955","90039.185994","90806.354793","76905.6872342","77672.1993574","78438.9915882","79206.3619657","79955.4254914","90048.3034017"
"Blocked","Female","ball","6","F_greet.wav","space","544.875639724","239","88505.9771735","80723.049388","81489.0263388","82256.0662143","83022.9672726","83789.5375196","84555.7160489","85322.3237054","89272.7353955","90039.185994","90806.354793","91572.7896238","77672.1993574","78438.9915882","79206.3619657","79955.4254914","90815.3126693"
"Blocked","Female","ball","6","F_ball.wav","None","729.133843211","239","88505.9771735","80723.049388","81489.0263388","82256.0662143","83022.9672726","83789.5375196","84555.7160489","85322.3237054","89272.7353955","90039.185994","90806.354793","91572.7896238","92339.2810326","78438.9915882","79206.3619657","79955.4254914","91582.1528212"
"Blocked","Female","ball","6","F_greet.wav","None","726.970275166","239","88505.9771735","80723.049388","81489.0263388","82256.0662143","83022.9672726","83789.5375196","84555.7160489","85322.3237054","89272.7353955","90039.185994","90806.354793","91572.7896238","92339.2810326","93105.8151068","79206.3619657","79955.4254914","92348.768207"
"Blocked","Female","ball","6","F_bluff.wav","space","285.049615428","239","88505.9771735","80723.049388","81489.0263388","82256.0662143","83022.9672726","83789.5375196","84555.7160489","85322.3237054","89272.7353955","90039.185994","90806.354793","91572.7896238","92339.2810326","93105.8151068","93872.1071013","79955.4254914","93115.1031761"
"Blocked","Female","ball","6","F_reek.wav","None","725.499246852","239","88505.9771735","80723.049388","81489.0263388","82256.0662143","83022.9672726","83789.5375196","84555.7160489","85322.3237054","89272.7353955","90039.185994","90806.354793","91572.7896238","92339.2810326","93105.8151068","93872.1071013","94638.9163363","93882.6092791"
"Blocked","Female","ball","6","F_ball.wav","None","724.331822945","239","88505.9771735","95405.7039295","81489.0263388","82256.0662143","83022.9672726","83789.5375196","84555.7160489","85322.3237054","89272.7353955","90039.185994","90806.354793","91572.7896238","92339.2810326","93105.8151068","93872.1071013","94638.9163363","94647.7975385"
"Blocked","Female","ball","6","F_cad.wav","space","497.356910142","239","88505.9771735","95405.7039295","96155.2120409","82256.0662143","83022.9672726","83789.5375196","84555.7160489","85322.3237054","89272.7353955","90039.185994","90806.354793","91572.7896238","92339.2810326","93105.8151068","93872.1071013","94638.9163363","95414.746209"
"Blocked","Female","ball","6","F_dime.wav","None","735.508299316","239","88505.9771735","95405.7039295","96155.2120409","96921.8632902","83022.9672726","83789.5375196","84555.7160489","85322.3237054","89272.7353955","90039.185994","90806.354793","91572.7896238","92339.2810326","93105.8151068","93872.1071013","94638.9163363","96165.2560295"
"Blocked","Female","ball","6","F_depth.wav","None","734.661484137","239","88505.9771735","95405.7039295","96155.2120409","96921.8632902","97688.6366616","83789.5375196","84555.7160489","85322.3237054","89272.7353955","90039.185994","90806.354793","91572.7896238","92339.2810326","93105.8151068","93872.1071013","94638.9163363","96930.6535966"
"Blocked","Female","ball","6","F_dime.wav","None","731.578446226","239","88505.9771735","95405.7039295","96155.2120409","96921.8632902","97688.6366616","98455.6023363","84555.7160489","85322.3237054","89272.7353955","90039.185994","90806.354793","91572.7896238","92339.2810326","93105.8151068","93872.1071013","94638.9163363","97697.6501883"
"Blocked","Female","ball","6","F_ball.wav","None","727.111874847","239","88505.9771735","95405.7039295","96155.2120409","96921.8632902","97688.6366616","98455.6023363","99222.4613477","85322.3237054","89272.7353955","90039.185994","90806.354793","91572.7896238","92339.2810326","93105.8151068","93872.1071013","94638.9163363","98466.6171172"
"Blocked","Female","ball","6","F_greet.wav","space","392.506103031","239","88505.9771735","95405.7039295","96155.2120409","96921.8632902","97688.6366616","98455.6023363","99222.4613477","99989.3620969","89272.7353955","90039.185994","90806.354793","91572.7896238","92339.2810326","93105.8151068","93872.1071013","94638.9163363","99231.4810578"
"Blocked","Female","tile","16","F_jaw.wav","None","717.8618334","239","103105.561279","95405.7039295","96155.2120409","96921.8632902","97688.6366616","98455.6023363","99222.4613477","99989.3620969","89272.7353955","90039.185994","90806.354793","91572.7896238","92339.2810326","93105.8151068","93872.1071013","94638.9163363","100004.401027"
"Blocked","Female","tile","16","F_lash.wav","None","724.618423032","239","103105.561279","95405.7039295","96155.2120409","96921.8632902","97688.6366616","98455.6023363","99222.4613477","99989.3620969","103872.090715","90039.185994","90806.354793","91572.7896238","92339.2810326","93105.8151068","93872.1071013","94638.9163363","103115.091428"
"Blocked","Female","tile","16","F_tile.wav","None","723.136882996","239","103105.561279","95405.7039295","96155.2120409","96921.8632902","97688.6366616","98455.6023363","99222.4613477","99989.3620969","103872.090715","104638.575632","90806.354793","91572.7896238","92339.2810326","93105.8151068","93872.1071013","94638.9163363","103880.987685"
"Blocked","Female","tile","16","F_park.wav","None","724.785374594","239","103105.561279","95405.7039295","96155.2120409","96921.8632902","97688.6366616","98455.6023363","99222.4613477","99989.3620969","103872.090715","104638.575632","105405.152062","91572.7896238","92339.2810326","93105.8151068","93872.1071013","94638.9163363","104647.463017"
"Blocked","Female","tile","16","F_park.wav","space","65.7195362728","239","103105.561279","95405.7039295","96155.2120409","96921.8632902","97688.6366616","98455.6023363","99222.4613477","99989.3620969","103872.090715","104638.575632","105405.152062","106171.950167","92339.2810326","93105.8151068","93872.1071013","94638.9163363","105414.088915"
"Blocked","Female","tile","16","F_bluff.wav","None","723.625988932","239","103105.561279","95405.7039295","96155.2120409","96921.8632902","97688.6366616","98455.6023363","99222.4613477","99989.3620969","103872.090715","104638.575632","105405.152062","106171.950167","106939.300758","93105.8151068","93872.1071013","94638.9163363","106180.886401"
"Blocked","Female","tile","16","F_greet.wav","None","719.942544005","239","103105.561279","95405.7039295","96155.2120409","96921.8632902","97688.6366616","98455.6023363","99222.4613477","99989.3620969","103872.090715","104638.575632","105405.152062","106171.950167","106939.300758","107688.58905","93872.1071013","94638.9163363","106948.902943"
"Blocked","Female","tile","16","F_done.wav","None","735.8020104","239","103105.561279","95405.7039295","96155.2120409","96921.8632902","97688.6366616","98455.6023363","99222.4613477","99989.3620969","103872.090715","104638.575632","105405.152062","106171.950167","106939.300758","107688.58905","108455.29193","94638.9163363","107697.704602"
"Blocked","Female","tile","16","F_tile.wav","None","733.959360281","239","103105.561279","95405.7039295","96155.2120409","96921.8632902","97688.6366616","98455.6023363","99222.4613477","99989.3620969","103872.090715","104638.575632","105405.152062","106171.950167","106939.300758","107688.58905","108455.29193","109221.607422","108464.211779"
"Blocked","Female","tile","16","F_jolt.wav","space","385.133957025","239","103105.561279","109988.877628","96155.2120409","96921.8632902","97688.6366616","98455.6023363","99222.4613477","99989.3620969","103872.090715","104638.575632","105405.152062","106171.950167","106939.300758","107688.58905","108455.29193","109221.607422","109230.523251"
"Blocked","Female","tile","16","F_cave.wav","None","728.56342548","239","103105.561279","109988.877628","110755.249389","96921.8632902","97688.6366616","98455.6023363","99222.4613477","99989.3620969","103872.090715","104638.575632","105405.152062","106171.950167","106939.300758","107688.58905","108455.29193","109221.607422","109998.300495"
"Blocked","Female","tile","16","F_tile.wav","None","726.600508438","239","103105.561279","109988.877628","110755.249389","111521.977312","97688.6366616","98455.6023363","99222.4613477","99989.3620969","103872.090715","104638.575632","105405.152062","106171.950167","106939.300758","107688.58905","108455.29193","109221.607422","110764.850646"
"Blocked","Female","tile","16","F_bluff.wav","space","380.347704282","239","103105.561279","109988.877628","110755.249389","111521.977312","112289.392828","98455.6023363","99222.4613477","99989.3620969","103872.090715","104638.575632","105405.152062","106171.950167","106939.300758","107688.58905","108455.29193","109221.607422","111531.283313"
"Blocked","Female","tile","16","F_cad.wav","None","720.804508426","239","103105.561279","109988.877628","110755.249389","111521.977312","112289.392828","113055.580942","99222.4613477","99989.3620969","103872.090715","104638.575632","105405.152062","106171.950167","106939.300758","107688.58905","108455.29193","109221.607422","112299.065504"
"Blocked","Female","tile","16","F_tile.wav","None","719.597201678","239","103105.561279","109988.877628","110755.249389","111521.977312","112289.392828","113055.580942","113805.069576","99989.3620969","103872.090715","104638.575632","105405.152062","106171.950167","106939.300758","107688.58905","108455.29193","109221.607422","113065.070899"
"Blocked","Female","tile","16","F_jaw.wav","space","465.477209305","239","103105.561279","109988.877628","110755.249389","111521.977312","112289.392828","113055.580942","113805.069576","114572.039579","103872.090715","104638.575632","105405.152062","106171.950167","106939.300758","107688.58905","108455.29193","109221.607422","113814.039819"
"Blocked","Female","ball","3","F_bluff.wav","None","731.746325153","239","117705.263796","109988.877628","110755.249389","111521.977312","112289.392828","113055.580942","113805.069576","114572.039579","103872.090715","104638.575632","105405.152062","106171.950167","106939.300758","107688.58905","108455.29193","109221.607422","114581.693086"
"Blocked","Female","ball","3","F_greet.wav","None","720.708047505","239","117705.263796","109988.877628","110755.249389","111521.977312","112289.392828","113055.580942","113805.069576","114572.039579","118471.597837","104638.575632","105405.152062","106171.950167","106939.300758","107688.58905","108455.29193","109221.607422","117715.590056"
"Blocked","Female","ball","3","F_dime.wav","None","720.286340453","239","117705.263796","109988.877628","110755.249389","111521.977312","112289.392828","113055.580942","113805.069576","114572.039579","118471.597837","119221.798488","105405.152062","106171.950167","106939.300758","107688.58905","108455.29193","109221.607422","118480.563443"
"Blocked","Female","ball","3","F_cling.wav","None","734.215043485","239","117705.263796","109988.877628","110755.249389","111521.977312","112289.392828","113055.580942","113805.069576","114572.039579","118471.597837","119221.798488","120004.873748","106171.950167","106939.300758","107688.58905","108455.29193","109221.607422","119231.148391"
"Blocked","Female","ball","3","F_ball.wav","None","720.597983222","239","117705.263796","109988.877628","110755.249389","111521.977312","112289.392828","113055.580942","113805.069576","114572.039579","118471.597837","119221.798488","120004.873748","120754.937127","106939.300758","107688.58905","108455.29193","109221.607422","120013.643958"
"Blocked","Female","ball","3","F_romp.wav","space","354.980349191","239","117705.263796","109988.877628","110755.249389","111521.977312","112289.392828","113055.580942","113805.069576","114572.039579","118471.597837","119221.798488","120004.873748","120754.937127","121521.499336","107688.58905","108455.29193","109221.607422","120764.343918"
"Blocked","Female","ball","3","F_park.wav","None","734.714661376","239","117705.263796","109988.877628","110755.249389","111521.977312","112289.392828","113055.580942","113805.069576","114572.039579","118471.597837","119221.798488","120004.873748","120754.937127","121521.499336","122288.335778","108455.29193","109221.607422","121531.036287"
"Blocked","Female","ball","3","F_ball.wav","None","732.809868176","239","117705.263796","109988.877628","110755.249389","111521.977312","112289.392828","113055.580942","113805.069576","114572.039579","118471.597837","119221.798488","120004.873748","120754.937127","121521.499336","122288.335778","123054.905097","109221.607422","122297.439273"
"Blocked","Female","ball","3","F_lash.wav","space","695.164156612","239","117705.263796","109988.877628","110755.249389","111521.977312","112289.392828","113055.580942","113805.069576","114572.039579","118471.597837","119221.798488","120004.873748","120754.937127","121521.499336","122288.335778","123054.905097","123821.591901","123064.105363"
"Blocked","Female","ball","3","F_priest.wav","None","728.299085633","239","117705.263796","124587.814642","110755.249389","111521.977312","112289.392828","113055.580942","113805.069576","114572.039579","118471.597837","119221.798488","120004.873748","120754.937127","121521.499336","122288.335778","123054.905097","123821.591901","123830.766196"
"Blocked","Female","ball","3","F_greet.wav","None","726.957290084","239","117705.263796","124587.814642","125355.273133","111521.977312","112289.392828","113055.580942","113805.069576","114572.039579","118471.597837","119221.798488","120004.873748","120754.937127","121521.499336","122288.335778","123054.905097","123821.591901","124596.734799"
"Blocked","Female","ball","3","F_ball.wav","None","722.380654421","239","117705.263796","124587.814642","125355.273133","126121.918508","112289.392828","113055.580942","113805.069576","114572.039579","118471.597837","119221.798488","120004.873748","120754.937127","121521.499336","122288.335778","123054.905097","123821.591901","125365.575278"
"Blocked","Female","ball","3","F_park.wav","space","435.476022074","239","117705.263796","124587.814642","125355.273133","126121.918508","126871.25874","113055.580942","113805.069576","114572.039579","118471.597837","119221.798488","120004.873748","120754.937127","121521.499336","122288.335778","123054.905097","123821.591901","126131.702485"
"Blocked","Female","ball","3","F_ball.wav","None","736.911928747","239","117705.263796","124587.814642","125355.273133","126121.918508","126871.25874","127637.678731","113805.069576","114572.039579","118471.597837","119221.798488","120004.873748","120754.937127","121521.499336","122288.335778","123054.905097","123821.591901","126879.953822"
"Blocked","Female","ball","3","F_depth.wav","space","392.895965721","239","117705.263796","124587.814642","125355.273133","126121.918508","126871.25874","127637.678731","128404.148807","114572.039579","118471.597837","119221.798488","120004.873748","120754.937127","121521.499336","122288.335778","123054.905097","123821.591901","127646.246126"
"Blocked","Female","ball","3","F_cling.wav","None","734.624693054","239","117705.263796","124587.814642","125355.273133","126121.918508","126871.25874","127637.678731","128404.148807","129171.422724","118471.597837","119221.798488","120004.873748","120754.937127","121521.499336","122288.335778","123054.905097","123821.591901","128412.963847"
"Blocked","Female","tile","17","F_greet.wav","None","731.358935824","239","132305.00836","124587.814642","125355.273133","126121.918508","126871.25874","127637.678731","128404.148807","129171.422724","118471.597837","119221.798488","120004.873748","120754.937127","121521.499336","122288.335778","123054.905097","123821.591901","129180.538895"
"Blocked","Female","tile","17","F_ball.wav","None","721.313092276","239","132305.00836","124587.814642","125355.273133","126121.918508","126871.25874","127637.678731","128404.148807","129171.422724","133071.692072","119221.798488","120004.873748","120754.937127","121521.499336","122288.335778","123054.905097","123821.591901","132314.498626"
"Blocked","Female","tile","17","F_tile.wav","None","719.111187267","239","132305.00836","124587.814642","125355.273133","126121.918508","126871.25874","127637.678731","128404.148807","129171.422724","133071.692072","133821.211005","120004.873748","120754.937127","121521.499336","122288.335778","123054.905097","123821.591901","133081.328885"
"Blocked","Female","tile","17","F_jolt.wav","space","503.791345283","239","132305.00836","124587.814642","125355.273133","126121.918508","126871.25874","127637.678731","128404.148807","129171.422724","133071.692072","133821.211005","134588.009728","120754.937127","121521.499336","122288.335778","123054.905097","123821.591901","133831.167189"
"Blocked","Female","tile","17","F_reek.wav","None","731.521868147","239","132305.00836","124587.814642","125355.273133","126121.918508","126871.25874","127637.678731","128404.148807","129171.422724","133071.692072","133821.211005","134588.009728","135354.593887","121521.499336","122288.335778","123054.905097","123821.591901","134597.474333"
"Blocked","Female","tile","17","F_park.wav","None","729.955306393","239","132305.00836","124587.814642","125355.273133","126121.918508","126871.25874","127637.678731","128404.148807","129171.422724","133071.692072","133821.211005","134588.009728","135354.593887","136120.764997","122288.335778","123054.905097","123821.591901","135363.995113"
"Blocked","Female","tile","17","F_tile.wav","None","728.666688199","239","132305.00836","124587.814642","125355.273133","126121.918508","126871.25874","127637.678731","128404.148807","129171.422724","133071.692072","133821.211005","134588.009728","135354.593887","136120.764997","136887.952037","123054.905097","123821.591901","136129.946093"
"Blocked","Female","tile","17","F_reek.wav","space","413.585586706","239","132305.00836","124587.814642","125355.273133","126121.918508","126871.25874","127637.678731","128404.148807","129171.422724","133071.692072","133821.211005","134588.009728","135354.593887","136120.764997","136887.952037","137654.375119","123821.591901","136897.262057"
"Blocked","Female","tile","17","F_jaw.wav","None","724.57235679","239","132305.00836","124587.814642","125355.273133","126121.918508","126871.25874","127637.678731","128404.148807","129171.422724","133071.692072","133821.211005","134588.009728","135354.593887","136120.764997","136887.952037","137654.375119","138421.660475","137663.075457"
"Blocked","Female","tile","17","F_tile.wav","None","721.581451246","239","132305.00836","139187.547458","125355.273133","126121.918508","126871.25874","127637.678731","128404.148807","129171.422724","133071.692072","133821.211005","134588.009728","135354.593887","136120.764997","136887.952037","137654.375119","138421.660475","138431.387874"
"Blocked","Female","tile","17","F_lash.wav","space","386.284994893","239","132305.00836","139187.547458","139937.059588","126121.918508","126871.25874","127637.678731","128404.148807","129171.422724","133071.692072","133821.211005","134588.009728","135354.593887","136120.764997","136887.952037","137654.375119","138421.660475","139196.494513"
"Blocked","Female","tile","17","F_cling.wav","None","736.147971009","239","132305.00836","139187.547458","139937.059588","140704.444188","126871.25874","127637.678731","128404.148807","129171.422724","133071.692072","133821.211005","134588.009728","135354.593887","136120.764997","136887.952037","137654.375119","138421.660475","139945.866899"
"Blocked","Female","tile","17","F_greet.wav","None","732.502862928","239","132305.00836","139187.547458","139937.059588","140704.444188","141471.136247","127637.678731","128404.148807","129171.422724","133071.692072","133821.211005","134588.009728","135354.593887","136120.764997","136887.952037","137654.375119","138421.660475","140713.962279"
"Blocked","Female","tile","17","F_tile.wav","None","730.72081001","239","132305.00836","139187.547458","139937.059588","140704.444188","141471.136247","142237.777913","128404.148807","129171.422724","133071.692072","133821.211005","134588.009728","135354.593887","136120.764997","136887.952037","137654.375119","138421.660475","141480.524178"
"Blocked","Female","tile","17","F_cling.wav","space","487.529649283","239","132305.00836","139187.547458","139937.059588","140704.444188","141471.136247","142237.777913","143004.330846","129171.422724","133071.692072","133821.211005","134588.009728","135354.593887","136120.764997","136887.952037","137654.375119","138421.660475","142247.153786"
"Blocked","Female","tile","17","F_park.wav","None","727.056533447","239","132305.00836","139187.547458","139937.059588","140704.444188","141471.136247","142237.777913","143004.330846","143771.58343","133071.692072","133821.211005","134588.009728","135354.593887","136120.764997","136887.952037","137654.375119","138421.660475","143013.327678"
"Blocked","Female","cave","9","F_tile.wav","None","723.017852753","239","146887.961312","139187.547458","139937.059588","140704.444188","141471.136247","142237.777913","143004.330846","143771.58343","133071.692072","133821.211005","134588.009728","135354.593887","136120.764997","136887.952037","137654.375119","138421.660475","143781.740884"
"Blocked","Female","cave","9","F_cave.wav","None","720.421447419","239","146887.961312","139187.547458","139937.059588","140704.444188","141471.136247","142237.777913","143004.330846","143771.58343","147637.193026","133821.211005","134588.009728","135354.593887","136120.764997","136887.952037","137654.375119","138421.660475","146897.767549"
"Blocked","Female","cave","9","F_romp.wav","space","424.572542193","239","146887.961312","139187.547458","139937.059588","140704.444188","141471.136247","142237.777913","143004.330846","143771.58343","147637.193026","148404.136749","134588.009728","135354.593887","136120.764997","136887.952037","137654.375119","138421.660475","147645.96942"
"Blocked","Female","cave","9","F_bluff.wav","None","733.326181187","239","146887.961312","139187.547458","139937.059588","140704.444188","141471.136247","142237.777913","143004.330846","143771.58343","147637.193026","148404.136749","149170.438328","135354.593887","136120.764997","136887.952037","137654.375119","138421.660475","148413.549414"
"Blocked","Female","cave","9","F_done.wav","None","732.300666161","239","146887.961312","139187.547458","139937.059588","140704.444188","141471.136247","142237.777913","143004.330846","143771.58343","147637.193026","148404.136749","149170.438328","149937.552713","136120.764997","136887.952037","137654.375119","138421.660475","149179.253677"
"Blocked","Female","cave","9","F_cave.wav","None","729.065516731","239","146887.961312","139187.547458","139937.059588","140704.444188","141471.136247","142237.777913","143004.330846","143771.58343","147637.193026","148404.136749","149170.438328","149937.552713","150704.088333","136887.952037","137654.375119","138421.660475","149947.114398"
"Blocked","Female","cave","9","F_bluff.wav","space","356.67274287","239","146887.961312","139187.547458","139937.059588","140704.444188","141471.136247","142237.777913","143004.330846","143771.58343","147637.193026","148404.136749","149170.438328","149937.552713","150704.088333","151470.873144","137654.375119","138421.660475","150713.727619"
"Blocked","Female","cave","9","F_park.wav","None","724.938104278","239","146887.961312","139187.547458","139937.059588","140704.444188","141471.136247","142237.777913","143004.330846","143771.58343","147637.193026","148404.136749","149170.438328","149937.552713","150704.088333","151470.873144","152237.845621","138421.660475","151480.300958"
"Blocked","Female","cave","9","F_cave.wav","None","721.818275051","239","146887.961312","139187.547458","139937.059588","140704.444188","141471.136247","142237.777913","143004.330846","143771.58343","147637.193026","148404.136749","149170.438328","149937.552713","150704.088333","151470.873144","152237.845621","153004.343831","152247.507476"
"Blocked","Female","cave","9","F_cad.wav","space","528.633730602","239","146887.961312","153753.790418","139937.059588","140704.444188","141471.136247","142237.777913","143004.330846","143771.58343","147637.193026","148404.136749","149170.438328","149937.552713","150704.088333","151470.873144","152237.845621","153004.343831","153013.745675"
"Blocked","Female","cave","9","F_reek.wav","None","734.911602223","239","146887.961312","153753.790418","154520.742798","140704.444188","141471.136247","142237.777913","143004.330846","143771.58343","147637.193026","148404.136749","149170.438328","149937.552713","150704.088333","151470.873144","152237.845621","153004.343831","153763.248839"
"Blocked","Female","cave","9","F_cling.wav","None","732.310868683","239","146887.961312","153753.790418","154520.742798","155286.843726","141471.136247","142237.777913","143004.330846","143771.58343","147637.193026","148404.136749","149170.438328","149937.552713","150704.088333","151470.873144","152237.845621","153004.343831","154530.570987"
"Blocked","Female","cave","9","F_cave.wav","None","732.262019883","239","146887.961312","153753.790418","154520.742798","155286.843726","156053.876491","142237.777913","143004.330846","143771.58343","147637.193026","148404.136749","149170.438328","149937.552713","150704.088333","151470.873144","152237.845621","153004.343831","155295.479757"
"Blocked","Female","cave","9","F_cling.wav","space","463.090111734","239","146887.961312","153753.790418","154520.742798","155286.843726","156053.876491","156820.668103","143004.330846","143771.58343","147637.193026","148404.136749","149170.438328","149937.552713","150704.088333","151470.873144","152237.845621","153004.343831","156063.185893"
"Blocked","Female","cave","9","F_gnash.wav","None","727.042002603","239","146887.961312","153753.790418","154520.742798","155286.843726","156053.876491","156820.668103","157586.940311","143771.58343","147637.193026","148404.136749","149170.438328","149937.552713","150704.088333","151470.873144","152237.845621","153004.343831","156829.573111"
"Blocked","Female","cave","9","F_bluff.wav","None","725.086505641","239","146887.961312","153753.790418","154520.742798","155286.843726","156053.876491","156820.668103","157586.940311","158354.177127","147637.193026","148404.136749","149170.438328","149937.552713","150704.088333","151470.873144","152237.845621","153004.343831","157596.087708"
"Blocked","Female","done","24","F_jolt.wav","None","722.36859682","239","161470.886748","153753.790418","154520.742798","155286.843726","156053.876491","156820.668103","157586.940311","158354.177127","147637.193026","148404.136749","149170.438328","149937.552713","150704.088333","151470.873144","152237.845621","153004.343831","158363.547126"
"Blocked","Female","done","24","F_done.wav","None","720.374144614","239","161470.886748","153753.790418","154520.742798","155286.843726","156053.876491","156820.668103","157586.940311","158354.177127","162237.525012","148404.136749","149170.438328","149937.552713","150704.088333","151470.873144","152237.845621","153004.343831","161481.015449"
"Blocked","Female","done","24","F_ball.wav","space","398.582210648","239","161470.886748","153753.790418","154520.742798","155286.843726","156053.876491","156820.668103","157586.940311","158354.177127","162237.525012","162987.056311","149170.438328","149937.552713","150704.088333","151470.873144","152237.845621","153004.343831","162247.47254"
"Blocked","Female","done","24","F_dime.wav","None","734.102814924","239","161470.886748","153753.790418","154520.742798","155286.843726","156053.876491","156820.668103","157586.940311","158354.177127","162237.525012","162987.056311","163753.254936","149937.552713","150704.088333","151470.873144","152237.845621","153004.343831","162996.136"
"Blocked","Female","done","24","F_park.wav","space","403.7323558","239","161470.886748","153753.790418","154520.742798","155286.843726","156053.876491","156820.668103","157586.940311","158354.177127","162237.525012","162987.056311","163753.254936","164519.964","150704.088333","151470.873144","152237.845621","153004.343831","163762.312674"
"Blocked","Female","done","24","F_tile.wav","None","730.349188321","239","161470.886748","153753.790418","154520.742798","155286.843726","156053.876491","156820.668103","157586.940311","158354.177127","162237.525012","162987.056311","163753.254936","164519.964","165287.076221","151470.873144","152237.845621","153004.343831","164528.870555"
"Blocked","Female","done","24","F_jaw.wav","None","727.150521008","239","161470.886748","153753.790418","154520.742798","155286.843726","156053.876491","156820.668103","157586.940311","158354.177127","162237.525012","162987.056311","163753.254936","164519.964","165287.076221","166053.319367","152237.845621","153004.343831","165296.362436"
"Blocked","Female","done","24","F_done.wav","None","725.854173419","239","161470.886748","153753.790418","154520.742798","155286.843726","156053.876491","156820.668103","157586.940311","158354.177127","162237.525012","162987.056311","163753.254936","164519.964","165287.076221","166053.319367","166820.094594","153004.343831","166062.399675"
"Blocked","Female","done","24","F_romp.wav","space","424.720634473","239","161470.886748","153753.790418","154520.742798","155286.843726","156053.876491","156820.668103","157586.940311","158354.177127","162237.525012","162987.056311","163753.254936","164519.964","165287.076221","166053.319367","166820.094594","167586.563433","166829.236116"
"Blocked","Female","done","24","F_tile.wav","None","721.689660568","239","161470.886748","168353.763767","154520.742798","155286.843726","156053.876491","156820.668103","157586.940311","158354.177127","162237.525012","162987.056311","163753.254936","164519.964","165287.076221","166053.319367","166820.094594","167586.563433","167595.798943"
"Blocked","Female","done","24","F_gnash.wav","None","718.338881852","239","161470.886748","168353.763767","169103.423681","155286.843726","156053.876491","156820.668103","157586.940311","158354.177127","162237.525012","162987.056311","163753.254936","164519.964","165287.076221","166053.319367","166820.094594","167586.563433","168364.032522"
"Blocked","Female","done","24","F_done.wav","None","734.678488458","239","161470.886748","168353.763767","169103.423681","169869.85542","156053.876491","156820.668103","157586.940311","158354.177127","162237.525012","162987.056311","163753.254936","164519.964","165287.076221","166053.319367","166820.094594","167586.563433","169112.437517"
"Blocked","Female","done","24","F_cave.wav","space","414.980559377","239","161470.886748","168353.763767","169103.423681","169869.85542","170636.882929","156820.668103","157586.940311","158354.177127","162237.525012","162987.056311","163753.254936","164519.964","165287.076221","166053.319367","166820.094594","167586.563433","169878.900482"
"Blocked","Female","done","24","F_done.wav","None","729.513194063","239","161470.886748","168353.763767","169103.423681","169869.85542","170636.882929","171403.484711","157586.940311","158354.177127","162237.525012","162987.056311","163753.254936","164519.964","165287.076221","166053.319367","166820.094594","167586.563433","170646.450487"
"Blocked","Female","done","24","F_knife.wav","space","609.011300723","239","161470.886748","168353.763767","169103.423681","169869.85542","170636.882929","171403.484711","172170.29611","158354.177127","162237.525012","162987.056311","163753.254936","164519.964","165287.076221","166053.319367","166820.094594","167586.563433","171412.791021"
"Blocked","Female","done","24","F_jolt.wav","None","728.010939667","239","161470.886748","168353.763767","169103.423681","169869.85542","170636.882929","171403.484711","172170.29611","172937.248491","162237.525012","162987.056311","163753.254936","164519.964","165287.076221","166053.319367","166820.094594","167586.563433","172179.914063"
"Blocked","Female","done","19","F_reek.wav","None","726.452107192","239","176070.587719","168353.763767","169103.423681","169869.85542","170636.882929","171403.484711","172170.29611","172937.248491","162237.525012","162987.056311","163753.254936","164519.964","165287.076221","166053.319367","166820.094594","167586.563433","172946.228936"
"Blocked","Female","done","19","F_jaw.wav","None","719.539387035","239","176070.587719","168353.763767","169103.423681","169869.85542","170636.882929","171403.484711","172170.29611","172937.248491","176820.087483","162987.056311","163753.254936","164519.964","165287.076221","166053.319367","166820.094594","167586.563433","176080.811335"
"Blocked","Female","done","19","F_romp.wav","None","735.505516757","239","176070.587719","168353.763767","169103.423681","169869.85542","170636.882929","171403.484711","172170.29611","172937.248491","176820.087483","177586.587239","163753.254936","164519.964","165287.076221","166053.319367","166820.094594","167586.563433","176829.766033"
"Blocked","Female","done","19","F_knife.wav","None","734.261109727","239","176070.587719","168353.763767","169103.423681","169869.85542","170636.882929","171403.484711","172170.29611","172937.248491","176820.087483","177586.587239","178353.310525","164519.964","165287.076221","166053.319367","166820.094594","167586.563433","177596.028656"
"Blocked","Female","done","19","F_park.wav","None","732.515538926","239","176070.587719","168353.763767","169103.423681","169869.85542","170636.882929","171403.484711","172170.29611","172937.248491","176820.087483","177586.587239","178353.310525","179120.077713","165287.076221","166053.319367","166820.094594","167586.563433","178362.660119"
"Blocked","Female","done","19","F_done.wav","None","730.997516774","239","176070.587719","168353.763767","169103.423681","169869.85542","170636.882929","171403.484711","172170.29611","172937.248491","176820.087483","177586.587239","178353.310525","179120.077713","179886.607149","166053.319367","166820.094594","167586.563433","179129.103297"
"Blocked","Female","done","19","F_depth.wav","space","421.846285928","239","176070.587719","168353.763767","169103.423681","169869.85542","170636.882929","171403.484711","172170.29611","172937.248491","176820.087483","177586.587239","178353.310525","179120.077713","179886.607149","180653.200275","166820.094594","167586.563433","179895.755783"
"Blocked","Female","done","19","F_greet.wav","None","725.766060175","239","176070.587719","168353.763767","169103.423681","169869.85542","170636.882929","171403.484711","172170.29611","172937.248491","176820.087483","177586.587239","178353.310525","179120.077713","179886.607149","180653.200275","181420.561996","167586.563433","180662.774635"
"Blocked","Female","done","19","F_done.wav","None","728.805814404","239","176070.587719","168353.763767","169103.423681","169869.85542","170636.882929","171403.484711","172170.29611","172937.248491","176820.087483","177586.587239","178353.310525","179120.077713","179886.607149","180653.200275","181420.561996","182186.402294","181424.662511"
"Blocked","Female","done","19","F_lash.wav","space","649.794154917","239","176070.587719","182953.252958","169103.423681","169869.85542","170636.882929","171403.484711","172170.29611","172937.248491","176820.087483","177586.587239","178353.310525","179120.077713","179886.607149","180653.200275","181420.561996","182186.402294","182195.709222"
"Blocked","Female","done","19","F_done.wav","None","720.127118169","239","176070.587719","182953.252958","183702.97285","169869.85542","170636.882929","171403.484711","172170.29611","172937.248491","176820.087483","177586.587239","178353.310525","179120.077713","179886.607149","180653.200275","181420.561996","182186.402294","182962.343468"
"Blocked","Female","done","19","F_park.wav","space","581.153276376","239","176070.587719","182953.252958","183702.97285","184469.720251","170636.882929","171403.484711","172170.29611","172937.248491","176820.087483","177586.587239","178353.310525","179120.077713","179886.607149","180653.200275","181420.561996","182186.402294","183712.321516"
"Blocked","Female","done","19","F_done.wav","None","732.215026044","239","176070.587719","182953.252958","183702.97285","184469.720251","185236.426533","171403.484711","172170.29611","172937.248491","176820.087483","177586.587239","178353.310525","179120.077713","179886.607149","180653.200275","181420.561996","182186.402294","184479.114675"
"Blocked","Female","done","19","F_gnash.wav","space","448.039123556","239","176070.587719","182953.252958","183702.97285","184469.720251","185236.426533","186002.601661","172170.29611","172937.248491","176820.087483","177586.587239","178353.310525","179120.077713","179886.607149","180653.200275","181420.561996","182186.402294","185245.368641"
"Blocked","Female","done","19","F_knife.wav","None","728.936283966","239","176070.587719","182953.252958","183702.97285","184469.720251","185236.426533","186002.601661","186769.563317","172937.248491","176820.087483","177586.587239","178353.310525","179120.077713","179886.607149","180653.200275","181420.561996","182186.402294","186011.48781"
"Blocked","Female","done","19","F_cad.wav","None","726.513631875","239","176070.587719","182953.252958","183702.97285","184469.720251","185236.426533","186002.601661","186769.563317","187536.327104","176820.087483","177586.587239","178353.310525","179120.077713","179886.607149","180653.200275","181420.561996","182186.402294","186779.018337"
"Blocked","Female","cave","10","F_greet.wav","None","724.61904143","239","190669.936855","182953.252958","183702.97285","184469.720251","185236.426533","186002.601661","186769.563317","187536.327104","176820.087483","177586.587239","178353.310525","179120.077713","179886.607149","180653.200275","181420.561996","182186.402294","187545.890643"
"Blocked","Female","cave","10","F_cave.wav","None","720.09125445","239","190669.936855","182953.252958","183702.97285","184469.720251","185236.426533","186002.601661","186769.563317","187536.327104","191436.649011","177586.587239","178353.310525","179120.077713","179886.607149","180653.200275","181420.561996","182186.402294","190679.854394"
"Blocked","Female","cave","10","F_depth.wav","space","550.560647971","239","190669.936855","182953.252958","183702.97285","184469.720251","185236.426533","186002.601661","186769.563317","187536.327104","191436.649011","192185.877324","178353.310525","179120.077713","179886.607149","180653.200275","181420.561996","182186.402294","191446.662392"
"Blocked","Female","cave","10","F_priest.wav","None","734.002334764","239","190669.936855","182953.252958","183702.97285","184469.720251","185236.426533","186002.601661","186769.563317","187536.327104","191436.649011","192185.877324","192952.855056","179120.077713","179886.607149","180653.200275","181420.561996","182186.402294","192194.750797"
"Blocked","Female","cave","10","F_priest.wav","None","731.623894069","239","190669.936855","182953.252958","183702.97285","184469.720251","185236.426533","186002.601661","186769.563317","187536.327104","191436.649011","192185.877324","192952.855056","193719.673257","179886.607149","180653.200275","181420.561996","182186.402294","192962.295546"
"Blocked","Female","cave","10","F_cave.wav","None","730.100925313","239","190669.936855","182953.252958","183702.97285","184469.720251","185236.426533","186002.601661","186769.563317","187536.327104","191436.649011","192185.877324","192952.855056","193719.673257","194486.213824","180653.200275","181420.561996","182186.402294","193729.042329"
"Blocked","Female","cave","10","F_jolt.wav","space","453.438149998","239","190669.936855","182953.252958","183702.97285","184469.720251","185236.426533","186002.601661","186769.563317","187536.327104","191436.649011","192185.877324","192952.855056","193719.673257","194486.213824","195252.777888","181420.561996","182186.402294","194495.683685"
"Blocked","Female","cave","10","F_cave.wav","None","725.660015014","239","190669.936855","182953.252958","183702.97285","184469.720251","185236.426533","186002.601661","186769.563317","187536.327104","191436.649011","192185.877324","192952.855056","193719.673257","194486.213824","195252.777888","196019.989043","182186.402294","195261.951255"
"Blocked","Female","cave","10","F_knife.wav","space","519.463764154","239","190669.936855","182953.252958","183702.97285","184469.720251","185236.426533","186002.601661","186769.563317","187536.327104","191436.649011","192185.877324","192952.855056","193719.673257","194486.213824","195252.777888","196019.989043","196786.439951","196029.645024"
"Blocked","Female","cave","10","F_bluff.wav","None","720.445562736","239","190669.936855","197536.048851","183702.97285","184469.720251","185236.426533","186002.601661","186769.563317","187536.327104","191436.649011","192185.877324","192952.855056","193719.673257","194486.213824","195252.777888","196019.989043","196786.439951","196796.210324"
"Blocked","Female","cave","10","F_cave.wav","None","736.424677656","239","190669.936855","197536.048851","198302.322914","184469.720251","185236.426533","186002.601661","186769.563317","187536.327104","191436.649011","192185.877324","192952.855056","193719.673257","194486.213824","195252.777888","196019.989043","196786.439951","197545.1508"
"Blocked","Female","cave","10","F_lash.wav","space","397.060169256","239","190669.936855","197536.048851","198302.322914","199069.517065","185236.426533","186002.601661","186769.563317","187536.327104","191436.649011","192185.877324","192952.855056","193719.673257","194486.213824","195252.777888","196019.989043","196786.439951","198311.975803"
"Blocked","Female","cave","10","F_reek.wav","None","731.976965675","239","190669.936855","197536.048851","198302.322914","199069.517065","199836.017131","186002.601661","186769.563317","187536.327104","191436.649011","192185.877324","192952.855056","193719.673257","194486.213824","195252.777888","196019.989043","196786.439951","199078.742064"
"Blocked","Female","cave","10","F_gnash.wav","None","730.587248923","239","190669.936855","197536.048851","198302.322914","199069.517065","199836.017131","200602.581503","186769.563317","187536.327104","191436.649011","192185.877324","192952.855056","193719.673257","194486.213824","195252.777888","196019.989043","196786.439951","199845.035295"
"Blocked","Female","cave","10","F_romp.wav","None","729.515667423","239","190669.936855","197536.048851","198302.322914","199069.517065","199836.017131","200602.581503","201369.359512","187536.327104","191436.649011","192185.877324","192952.855056","193719.673257","194486.213824","195252.777888","196019.989043","196786.439951","200611.472908"
"Blocked","Female","cave","10","F_jolt.wav","None","727.382089011","239","190669.936855","197536.048851","198302.322914","199069.517065","199836.017131","200602.581503","201369.359512","202136.043224","191436.649011","192185.877324","192952.855056","193719.673257","194486.213824","195252.777888","196019.989043","196786.439951","201378.606153"
"Blocked","Female","tile","13","F_cave.wav","None","725.127934362","239","205269.742326","197536.048851","198302.322914","199069.517065","199836.017131","200602.581503","201369.359512","202136.043224","191436.649011","192185.877324","192952.855056","193719.673257","194486.213824","195252.777888","196019.989043","196786.439951","202145.542456"
"Blocked","Female","tile","13","F_tile.wav","space","717.389422469","239","205269.742326","197536.048851","198302.322914","199069.517065","199836.017131","200602.581503","201369.359512","202136.043224","206018.618186","192185.877324","192952.855056","193719.673257","194486.213824","195252.777888","196019.989043","196786.439951","205279.410983"
"Blocked","Female","tile","13","F_done.wav","None","736.485893256","239","205269.742326","197536.048851","198302.322914","199069.517065","199836.017131","200602.581503","201369.359512","202136.043224","206018.618186","206785.840471","192952.855056","193719.673257","194486.213824","195252.777888","196019.989043","196786.439951","206027.326562"
"Blocked","Female","tile","13","F_priest.wav","None","733.575990191","239","205269.742326","197536.048851","198302.322914","199069.517065","199836.017131","200602.581503","201369.359512","202136.043224","206018.618186","206785.840471","207552.361869","193719.673257","194486.213824","195252.777888","196019.989043","196786.439951","206794.847196"
"Blocked","Female","tile","13","F_depth.wav","None","732.14051628","239","205269.742326","197536.048851","198302.322914","199069.517065","199836.017131","200602.581503","201369.359512","202136.043224","206018.618186","206785.840471","207552.361869","208319.106797","194486.213824","195252.777888","196019.989043","196786.439951","207561.593051"
"Blocked","Female","tile","13","F_jaw.wav","None","730.689893127","239","205269.742326","197536.048851","198302.322914","199069.517065","199836.017131","200602.581503","201369.359512","202136.043224","206018.618186","206785.840471","207552.361869","208319.106797","209085.714454","195252.777888","196019.989043","196786.439951","208328.187104"
"Blocked","Female","tile","13","F_tile.wav","None","728.489843197","239","205269.742326","197536.048851","198302.322914","199069.517065","199836.017131","200602.581503","201369.359512","202136.043224","206018.618186","206785.840471","207552.361869","208319.106797","209085.714454","209852.271097","196019.989043","196786.439951","209095.26037"
"Blocked","Female","tile","13","F_lash.wav","space","607.304994366","239","205269.742326","197536.048851","198302.322914","199069.517065","199836.017131","200602.581503","201369.359512","202136.043224","206018.618186","206785.840471","207552.361869","208319.106797","209085.714454","209852.271097","210618.503422","196786.439951","209861.368409"
"Blocked","Female","tile","13","F_reek.wav","None","725.821710657","239","205269.742326","197536.048851","198302.322914","199069.517065","199836.017131","200602.581503","201369.359512","202136.043224","206018.618186","206785.840471","207552.361869","208319.106797","209085.714454","209852.271097","210618.503422","211385.269064","210627.584038"
"Blocked","Female","tile","13","F_cling.wav","None","724.07150222","239","205269.742326","212152.751979","198302.322914","199069.517065","199836.017131","200602.581503","201369.359512","202136.043224","206018.618186","206785.840471","207552.361869","208319.106797","209085.714454","209852.271097","210618.503422","211385.269064","211394.443977"
"Blocked","Female","tile","13","F_jaw.wav","None","721.739436965","239","205269.742326","212152.751979","212919.416214","199069.517065","199836.017131","200602.581503","201369.359512","202136.043224","206018.618186","206785.840471","207552.361869","208319.106797","209085.714454","209852.271097","210618.503422","211385.269064","212161.666881"
"Blocked","Female","tile","13","F_tile.wav","None","718.989992747","239","205269.742326","212152.751979","212919.416214","213668.817043","199836.017131","200602.581503","201369.359512","202136.043224","206018.618186","206785.840471","207552.361869","208319.106797","209085.714454","209852.271097","210618.503422","211385.269064","212929.190916"
"Blocked","Female","tile","13","F_ball.wav","space","534.451063373","239","205269.742326","212152.751979","212919.416214","213668.817043","214435.583613","200602.581503","201369.359512","202136.043224","206018.618186","206785.840471","207552.361869","208319.106797","209085.714454","209852.271097","210618.503422","211385.269064","213678.128919"
"Blocked","Female","tile","13","F_tile.wav","None","732.246561442","239","205269.742326","212152.751979","212919.416214","213668.817043","214435.583613","215202.198999","201369.359512","202136.043224","206018.618186","206785.840471","207552.361869","208319.106797","209085.714454","209852.271097","210618.503422","211385.269064","214445.076662"
"Blocked","Female","tile","13","F_jolt.wav","space","536.781892064","239","205269.742326","212152.751979","212919.416214","213668.817043","214435.583613","215202.198999","215968.342283","202136.043224","206018.618186","206785.840471","207552.361869","208319.106797","209085.714454","209852.271097","210618.503422","211385.269064","215211.728529"
"Blocked","Female","tile","13","F_jolt.wav","None","729.299867176","239","205269.742326","212152.751979","212919.416214","213668.817043","214435.583613","215202.198999","215968.342283","216735.517574","206018.618186","206785.840471","207552.361869","208319.106797","209085.714454","209852.271097","210618.503422","211385.269064","215977.110947"
"Blocked","Female","ball","1","F_gnash.wav","None","727.008612128","239","219869.351783","212152.751979","212919.416214","213668.817043","214435.583613","215202.198999","215968.342283","216735.517574","206018.618186","206785.840471","207552.361869","208319.106797","209085.714454","209852.271097","210618.503422","211385.269064","216744.62076"
"Blocked","Female","ball","1","F_priest.wav","None","721.063283272","239","219869.351783","212152.751979","212919.416214","213668.817043","214435.583613","215202.198999","215968.342283","216735.517574","220635.750441","206785.840471","207552.361869","208319.106797","209085.714454","209852.271097","210618.503422","211385.269064","219879.032807"
"Blocked","Female","ball","1","F_gnash.wav","None","720.648377785","239","219869.351783","212152.751979","212919.416214","213668.817043","214435.583613","215202.198999","215968.342283","216735.517574","220635.750441","221402.392724","207552.361869","208319.106797","209085.714454","209852.271097","210618.503422","211385.269064","220645.15012"
"Blocked","Female","ball","1","F_cling.wav","None","718.587454176","239","219869.351783","212152.751979","212919.416214","213668.817043","214435.583613","215202.198999","215968.342283","216735.517574","220635.750441","221402.392724","222151.532924","208319.106797","209085.714454","209852.271097","210618.503422","211385.269064","221412.431766"
"Blocked","Female","ball","1","F_ball.wav","None","736.334709334","239","219869.351783","212152.751979","212919.416214","213668.817043","214435.583613","215202.198999","215968.342283","216735.517574","220635.750441","221402.392724","222151.532924","222918.009493","209085.714454","209852.271097","210618.503422","211385.269064","222160.416291"
"Blocked","Female","ball","1","F_bluff.wav","space","421.513001202","239","219869.351783","212152.751979","212919.416214","213668.817043","214435.583613","215202.198999","215968.342283","216735.517574","220635.750441","221402.392724","222151.532924","222918.009493","223684.81409","209852.271097","210618.503422","211385.269064","222926.709212"
"Blocked","Female","ball","1","F_depth.wav","None","733.307012706","239","219869.351783","212152.751979","212919.416214","213668.817043","214435.583613","215202.198999","215968.342283","216735.517574","220635.750441","221402.392724","222151.532924","222918.009493","223684.81409","224451.855512","210618.503422","211385.269064","223693.418895"
"Blocked","Female","ball","1","F_romp.wav","None","730.547056766","239","219869.351783","212152.751979","212919.416214","213668.817043","214435.583613","215202.198999","215968.342283","216735.517574","220635.750441","221402.392724","222151.532924","222918.009493","223684.81409","224451.855512","225218.156472","211385.269064","224461.288272"
"Blocked","Female","ball","1","F_ball.wav","None","730.203569634","239","219869.351783","212152.751979","212919.416214","213668.817043","214435.583613","215202.198999","215968.342283","216735.517574","220635.750441","221402.392724","222151.532924","222918.009493","223684.81409","224451.855512","225218.156472","225984.727956","225227.044785"
"Blocked","Female","ball","1","F_knife.wav","space","402.694783057","239","219869.351783","226751.837703","212919.416214","213668.817043","214435.583613","215202.198999","215968.342283","216735.517574","220635.750441","221402.392724","222151.532924","222918.009493","223684.81409","224451.855512","225218.156472","225984.727956","225993.503113"
"Blocked","Female","ball","1","F_depth.wav","None","725.413297769","239","219869.351783","226751.837703","227518.2107","213668.817043","214435.583613","215202.198999","215968.342283","216735.517574","220635.750441","221402.392724","222151.532924","222918.009493","223684.81409","224451.855512","225218.156472","225984.727956","226761.039824"
"Blocked","Female","ball","1","F_ball.wav","None","724.425192107","239","219869.351783","226751.837703","227518.2107","228284.858858","214435.583613","215202.198999","215968.342283","216735.517574","220635.750441","221402.392724","222151.532924","222918.009493","223684.81409","224451.855512","225218.156472","225984.727956","227527.180943"
"Blocked","Female","ball","1","F_bluff.wav","space","398.454832728","239","219869.351783","226751.837703","227518.2107","228284.858858","229051.561739","215202.198999","215968.342283","216735.517574","220635.750441","221402.392724","222151.532924","222918.009493","223684.81409","224451.855512","225218.156472","225984.727956","228293.694922"
"Blocked","Female","ball","1","F_jolt.wav","None","720.658271341","239","219869.351783","226751.837703","227518.2107","228284.858858","229051.561739","229801.47208","215968.342283","216735.517574","220635.750441","221402.392724","222151.532924","222918.009493","223684.81409","224451.855512","225218.156472","225984.727956","229060.292375"
"Blocked","Female","ball","1","F_ball.wav","None","735.940827406","239","219869.351783","226751.837703","227518.2107","228284.858858","229051.561739","229801.47208","230568.342839","216735.517574","220635.750441","221402.392724","222151.532924","222918.009493","223684.81409","224451.855512","225218.156472","225984.727956","229810.483442"
"Blocked","Female","ball","1","F_dime.wav","space","393.968783785","239","219869.351783","226751.837703","227518.2107","228284.858858","229051.561739","229801.47208","230568.342839","231334.562488","220635.750441","221402.392724","222151.532924","222918.009493","223684.81409","224451.855512","225218.156472","225984.727956","230578.108266"
"Blocked","Female","tile","14","F_cave.wav","None","732.632714091","239","234468.350321","226751.837703","227518.2107","228284.858858","229051.561739","229801.47208","230568.342839","231334.562488","220635.750441","221402.392724","222151.532924","222918.009493","223684.81409","224451.855512","225218.156472","225984.727956","231343.156781"
"Blocked","Female","tile","14","F_cling.wav","None","720.435360097","239","234468.350321","226751.837703","227518.2107","228284.858858","229051.561739","229801.47208","230568.342839","231334.562488","235235.288171","221402.392724","222151.532924","222918.009493","223684.81409","224451.855512","225218.156472","225984.727956","234478.37205"
"Blocked","Female","tile","14","F_cling.wav","None","719.323586673","239","234468.350321","226751.837703","227518.2107","228284.858858","229051.561739","229801.47208","230568.342839","231334.562488","235235.288171","235984.911911","222151.532924","222918.009493","223684.81409","224451.855512","225218.156472","225984.727956","235245.138001"
"Blocked","Female","tile","14","F_tile.wav","None","735.950102448","239","234468.350321","226751.837703","227518.2107","228284.858858","229051.561739","229801.47208","230568.342839","231334.562488","235235.288171","235984.911911","236751.445367","222918.009493","223684.81409","224451.855512","225218.156472","225984.727956","235993.838252"
"Blocked","Female","tile","14","F_dime.wav","space","427.499758778","239","234468.350321","226751.837703","227518.2107","228284.858858","229051.561739","229801.47208","230568.342839","231334.562488","235235.288171","235984.911911","236751.445367","237518.113003","223684.81409","224451.855512","225218.156472","225984.727956","236760.378201"
"Blocked","Female","tile","14","F_jolt.wav","None","732.254599803","239","234468.350321","226751.837703","227518.2107","228284.858858","229051.561739","229801.47208","230568.342839","231334.562488","235235.288171","235984.911911","236751.445367","237518.113003","238284.819903","224451.855512","225218.156472","225984.727956","237527.089738"
"Blocked","Female","tile","14","F_greet.wav","None","730.77336885","239","234468.350321","226751.837703","227518.2107","228284.858858","229051.561739","229801.47208","230568.342839","231334.562488","235235.288171","235984.911911","236751.445367","237518.113003","238284.819903","239051.522783","225218.156472","225984.727956","238293.965136"
"Blocked","Female","tile","14","F_reek.wav","None","728.714300203","239","234468.350321","226751.837703","227518.2107","228284.858858","229051.561739","229801.47208","230568.342839","231334.562488","235235.288171","235984.911911","236751.445367","237518.113003","238284.819903","239051.522783","239818.25318","225984.727956","239061.027271"
"Blocked","Female","tile","14","F_tile.wav","None","727.371268091","239","234468.350321","226751.837703","227518.2107","228284.858858","229051.561739","229801.47208","230568.342839","231334.562488","235235.288171","235984.911911","236751.445367","237518.113003","238284.819903","239051.522783","239818.25318","240584.2864","239827.82012"
"Blocked","Female","tile","14","F_jolt.wav","space","450.77063574","239","234468.350321","241351.136754","227518.2107","228284.858858","229051.561739","229801.47208","230568.342839","231334.562488","235235.288171","235984.911911","236751.445367","237518.113003","238284.819903","239051.522783","239818.25318","240584.2864","240593.00838"
"Blocked","Female","tile","14","F_cling.wav","None","724.797122995","239","234468.350321","241351.136754","242118.462302","228284.858858","229051.561739","229801.47208","230568.342839","231334.562488","235235.288171","235984.911911","236751.445367","237518.113003","238284.819903","239051.522783","239818.25318","240584.2864","241359.958905"
"Blocked","Female","tile","14","F_tile.wav","None","721.943179611","239","234468.350321","241351.136754","242118.462302","242885.11788","229051.561739","229801.47208","230568.342839","231334.562488","235235.288171","235984.911911","236751.445367","237518.113003","238284.819903","239051.522783","239818.25318","240584.2864","242128.266066"
"Blocked","Female","tile","14","F_cave.wav","space","684.994645184","239","234468.350321","241351.136754","242118.462302","242885.11788","243634.76821","229801.47208","230568.342839","231334.562488","235235.288171","235984.911911","236751.445367","237518.113003","238284.819903","239051.522783","239818.25318","240584.2864","242894.670599"
"Blocked","Female","tile","14","F_tile.wav","None","735.250142869","239","234468.350321","241351.136754","242118.462302","242885.11788","243634.76821","244401.141825","230568.342839","231334.562488","235235.288171","235984.911911","236751.445367","237518.113003","238284.819903","239051.522783","239818.25318","240584.2864","243644.222921"
"Blocked","Female","tile","14","F_reek.wav","space","472.887692391","239","234468.350321","241351.136754","242118.462302","242885.11788","243634.76821","244401.141825","245167.74237","231334.562488","235235.288171","235984.911911","236751.445367","237518.113003","238284.819903","239051.522783","239818.25318","240584.2864","244410.745247"
"Blocked","Female","tile","14","F_jaw.wav","None","731.580301304","239","234468.350321","241351.136754","242118.462302","242885.11788","243634.76821","244401.141825","245167.74237","245934.622405","235235.288171","235984.911911","236751.445367","237518.113003","238284.819903","239051.522783","239818.25318","240584.2864","245177.180696"
"Blocked","Female","tile","15","F_cave.wav","None","729.91851531","239","249067.965343","241351.136754","242118.462302","242885.11788","243634.76821","244401.141825","245167.74237","245934.622405","235235.288171","235984.911911","236751.445367","237518.113003","238284.819903","239051.522783","239818.25318","240584.2864","245944.044654"
"Blocked","Female","tile","15","F_lash.wav","None","721.638647607","239","249067.965343","241351.136754","242118.462302","242885.11788","243634.76821","244401.141825","245167.74237","245934.622405","249834.218382","235984.911911","236751.445367","237518.113003","238284.819903","239051.522783","239818.25318","240584.2864","249077.724896"
"Blocked","Female","tile","15","F_tile.wav","None","721.644831123","239","249067.965343","241351.136754","242118.462302","242885.11788","243634.76821","244401.141825","245167.74237","245934.622405","249834.218382","250601.54424","236751.445367","237518.113003","238284.819903","239051.522783","239818.25318","240584.2864","249843.322496"
"Blocked","Female","tile","15","F_bluff.wav","space","479.980039992","239","249067.965343","241351.136754","242118.462302","242885.11788","243634.76821","244401.141825","245167.74237","245934.622405","249834.218382","250601.54424","251350.615185","237518.113003","238284.819903","239051.522783","239818.25318","240584.2864","250611.488367"
"Blocked","Female","tile","15","F_depth.wav","None","735.606924398","239","249067.965343","241351.136754","242118.462302","242885.11788","243634.76821","244401.141825","245167.74237","245934.622405","249834.218382","250601.54424","251350.615185","252117.89003","238284.819903","239051.522783","239818.25318","240584.2864","251359.482475"
"Blocked","Female","tile","15","F_lash.wav","None","732.968472061","239","249067.965343","241351.136754","242118.462302","242885.11788","243634.76821","244401.141825","245167.74237","245934.622405","249834.218382","250601.54424","251350.615185","252117.89003","252884.417611","239051.522783","239818.25318","240584.2864","252127.554667"
"Blocked","Female","tile","15","F_tile.wav","None","732.262328966","239","249067.965343","241351.136754","242118.462302","242885.11788","243634.76821","244401.141825","245167.74237","245934.622405","249834.218382","250601.54424","251350.615185","252117.89003","252884.417611","253651.057731","239818.25318","240584.2864","252893.609838"
"Blocked","Female","tile","15","F_reek.wav","space","503.077782108","239","249067.965343","241351.136754","242118.462302","242885.11788","243634.76821","244401.141825","245167.74237","245934.622405","249834.218382","250601.54424","251350.615185","252117.89003","252884.417611","253651.057731","254417.886134","240584.2864","253660.262942"
"Blocked","Female","tile","15","F_cave.wav","None","727.980331867","239","249067.965343","241351.136754","242118.462302","242885.11788","243634.76821","244401.141825","245167.74237","245934.622405","249834.218382","250601.54424","251350.615185","252117.89003","252884.417611","253651.057731","254417.886134","255184.057553","254427.517691"
"Blocked","Female","tile","15","F_tile.wav","None","729.361701175","239","249067.965343","255950.841745","242118.462302","242885.11788","243634.76821","244401.141825","245167.74237","245934.622405","249834.218382","250601.54424","251350.615185","252117.89003","252884.417611","253651.057731","254417.886134","255184.057553","255193.145898"
"Blocked","Female","tile","15","F_cave.wav","space","619.460610556","239","249067.965343","255950.841745","256717.768155","242885.11788","243634.76821","244401.141825","245167.74237","245934.622405","249834.218382","250601.54424","251350.615185","252117.89003","252884.417611","253651.057731","254417.886134","255184.057553","255959.815698"
"Blocked","Female","tile","15","F_lash.wav","None","725.498319371","239","249067.965343","255950.841745","256717.768155","257484.661484","243634.76821","244401.141825","245167.74237","245934.622405","249834.218382","250601.54424","251350.615185","252117.89003","252884.417611","253651.057731","254417.886134","255184.057553","256726.782609"
"Blocked","Female","tile","15","F_priest.wav","None","722.930666874","239","249067.965343","255950.841745","256717.768155","257484.661484","258251.32139","244401.141825","245167.74237","245934.622405","249834.218382","250601.54424","251350.615185","252117.89003","252884.417611","253651.057731","254417.886134","255184.057553","257494.41609"
"Blocked","Female","tile","15","F_depth.wav","None","722.464748542","239","249067.965343","255950.841745","256717.768155","257484.661484","258251.32139","259017.767042","245167.74237","245934.622405","249834.218382","250601.54424","251350.615185","252117.89003","252884.417611","253651.057731","254417.886134","255184.057553","258260.78816"
"Blocked","Female","tile","15","F_tile.wav","None","721.611131565","239","249067.965343","255950.841745","256717.768155","257484.661484","258251.32139","259017.767042","259784.669646","245934.622405","249834.218382","250601.54424","251350.615185","252117.89003","252884.417611","253651.057731","254417.886134","255184.057553","259027.15621"
"Blocked","Female","tile","15","F_romp.wav","space","504.771721666","239","249067.965343","255950.841745","256717.768155","257484.661484","258251.32139","259017.767042","259784.669646","260533.485527","249834.218382","250601.54424","251350.615185","252117.89003","252884.417611","253651.057731","254417.886134","255184.057553","259794.40292"
"Blocked","Female","cave","7","F_bluff.wav","None","735.974217649","239","263668.041646","255950.841745","256717.768155","257484.661484","258251.32139","259017.767042","259784.669646","260533.485527","249834.218382","250601.54424","251350.615185","252117.89003","252884.417611","253651.057731","254417.886134","255184.057553","260542.571091"
"Blocked","Female","cave","7","F_reek.wav","None","720.729071065","239","263668.041646","255950.841745","256717.768155","257484.661484","258251.32139","259017.767042","259784.669646","260533.485527","264433.773735","250601.54424","251350.615185","252117.89003","252884.417611","253651.057731","254417.886134","255184.057553","263677.995048"
"Blocked","Female","cave","7","F_reek.wav","None","721.265789354","239","263668.041646","255950.841745","256717.768155","257484.661484","258251.32139","259017.767042","259784.669646","260533.485527","264433.773735","265200.5233","251350.615185","252117.89003","252884.417611","253651.057731","254417.886134","255184.057553","264443.00399"
"Blocked","Female","cave","7","F_cave.wav","None","720.706501743","239","263668.041646","255950.841745","256717.768155","257484.661484","258251.32139","259017.767042","259784.669646","260533.485527","264433.773735","265200.5233","265950.088299","252117.89003","252884.417611","253651.057731","254417.886134","255184.057553","265209.318244"
"Blocked","Female","cave","7","F_done.wav","space","596.166236675","239","263668.041646","255950.841745","256717.768155","257484.661484","258251.32139","259017.767042","259784.669646","260533.485527","264433.773735","265200.5233","265950.088299","266717.25617","252884.417611","253651.057731","254417.886134","255184.057553","265958.822955"
"Blocked","Female","cave","7","F_knife.wav","None","732.941265218","239","263668.041646","255950.841745","256717.768155","257484.661484","258251.32139","259017.767042","259784.669646","260533.485527","264433.773735","265200.5233","265950.088299","266717.25617","267483.9708","253651.057731","254417.886134","255184.057553","266726.59247"
"Blocked","Female","cave","7","F_bluff.wav","None","731.128913816","239","263668.041646","255950.841745","256717.768155","257484.661484","258251.32139","259017.767042","259784.669646","260533.485527","264433.773735","265200.5233","265950.088299","266717.25617","267483.9708","268250.010203","254417.886134","255184.057553","267493.510842"
"Blocked","Female","cave","7","F_cave.wav","None","731.834438513","239","263668.041646","255950.841745","256717.768155","257484.661484","258251.32139","259017.767042","259784.669646","260533.485527","264433.773735","265200.5233","265950.088299","266717.25617","267483.9708","268250.010203","269017.401913","255184.057553","268258.678387"
"Blocked","Female","cave","7","F_bluff.wav","space","432.403805084","239","263668.041646","255950.841745","256717.768155","257484.661484","258251.32139","259017.767042","259784.669646","260533.485527","264433.773735","265200.5233","265950.088299","266717.25617","267483.9708","268250.010203","269017.401913","269783.902597","269026.494278"
"Blocked","Female","cave","7","F_cling.wav","None","727.031490766","239","263668.041646","270550.075252","256717.768155","257484.661484","258251.32139","259017.767042","259784.669646","260533.485527","264433.773735","265200.5233","265950.088299","266717.25617","267483.9708","268250.010203","269017.401913","269783.902597","269793.518386"
"Blocked","Female","cave","7","F_knife.wav","None","727.313144132","239","263668.041646","270550.075252","271316.822035","257484.661484","258251.32139","259017.767042","259784.669646","260533.485527","264433.773735","265200.5233","265950.088299","266717.25617","267483.9708","268250.010203","269017.401913","269783.902597","270559.056625"
"Blocked","Female","cave","7","F_romp.wav","None","726.188694825","239","263668.041646","270550.075252","271316.822035","272084.001346","258251.32139","259017.767042","259784.669646","260533.485527","264433.773735","265200.5233","265950.088299","266717.25617","267483.9708","268250.010203","269017.401913","269783.902597","271325.664591"
"Blocked","Female","cave","7","F_cave.wav","None","723.314037081","239","263668.041646","270550.075252","271316.822035","272084.001346","272850.895293","259017.767042","259784.669646","260533.485527","264433.773735","265200.5233","265950.088299","266717.25617","267483.9708","268250.010203","269017.401913","269783.902597","272093.905899"
"Blocked","Female","cave","7","F_cad.wav","space","406.382247224","239","263668.041646","270550.075252","271316.822035","272084.001346","272850.895293","273617.55489","259784.669646","260533.485527","264433.773735","265200.5233","265950.088299","266717.25617","267483.9708","268250.010203","269017.401913","269783.902597","272860.43719"
"Blocked","Female","cave","7","F_cave.wav","None","725.692168577","239","263668.041646","270550.075252","271316.822035","272084.001346","272850.895293","273617.55489","274384.161619","260533.485527","264433.773735","265200.5233","265950.088299","266717.25617","267483.9708","268250.010203","269017.401913","269783.902597","273620.92762"
"Blocked","Female","cave","7","F_knife.wav","space","632.348030806","239","263668.041646","270550.075252","271316.822035","272084.001346","272850.895293","273617.55489","274384.161619","275133.638504","264433.773735","265200.5233","265950.088299","266717.25617","267483.9708","268250.010203","269017.401913","269783.902597","274394.348135"
"Blocked","Female","cave","12","F_gnash.wav","None","733.201895026","239","278267.254439","270550.075252","271316.822035","272084.001346","272850.895293","273617.55489","274384.161619","275133.638504","264433.773735","265200.5233","265950.088299","266717.25617","267483.9708","268250.010203","269017.401913","269783.902597","275142.950998"
"Blocked","Female","cave","12","F_cave.wav","None","721.683168085","239","278267.254439","270550.075252","271316.822035","272084.001346","272850.895293","273617.55489","274384.161619","275133.638504","279034.056872","265200.5233","265950.088299","266717.25617","267483.9708","268250.010203","269017.401913","269783.902597","278276.696166"
"Blocked","Female","cave","12","F_jolt.wav","space","622.996581835","239","278267.254439","270550.075252","271316.822035","272084.001346","272850.895293","273617.55489","274384.161619","275133.638504","279034.056872","279783.332797","265950.088299","266717.25617","267483.9708","268250.010203","269017.401913","269783.902597","279043.567544"
"Blocked","Female","cave","12","F_cave.wav","None","734.748051618","239","278267.254439","270550.075252","271316.822035","272084.001346","272850.895293","273617.55489","274384.161619","275133.638504","279034.056872","279783.332797","280549.822351","266717.25617","267483.9708","268250.010203","269017.401913","269783.902597","279792.797402"
"Blocked","Female","cave","12","F_priest.wav","space","571.814812371","239","278267.254439","270550.075252","271316.822035","272084.001346","272850.895293","273617.55489","274384.161619","275133.638504","279034.056872","279783.332797","280549.822351","281317.126257","267483.9708","268250.010203","269017.401913","269783.902597","280558.706027"
"Blocked","Female","cave","12","F_gnash.wav","None","730.236032279","239","278267.254439","270550.075252","271316.822035","272084.001346","272850.895293","273617.55489","274384.161619","275133.638504","279034.056872","279783.332797","280549.822351","281317.126257","282082.926672","268250.010203","269017.401913","269783.902597","281326.65888"
"Blocked","Female","cave","12","F_bluff.wav","None","730.996589176","239","278267.254439","270550.075252","271316.822035","272084.001346","272850.895293","273617.55489","274384.161619","275133.638504","279034.056872","279783.332797","280549.822351","281317.126257","282082.926672","282849.606056","269017.401913","269783.902597","282091.921031"
"Blocked","Female","cave","12","F_lash.wav","None","730.085466872","239","278267.254439","270550.075252","271316.822035","272084.001346","272850.895293","273617.55489","274384.161619","275133.638504","279034.056872","279783.332797","280549.822351","281317.126257","282082.926672","282849.606056","283616.624599","269783.902597","282858.314124"
"Blocked","Female","cave","12","F_depth.wav","None","728.123168228","239","278267.254439","270550.075252","271316.822035","272084.001346","272850.895293","273617.55489","274384.161619","275133.638504","279034.056872","279783.332797","280549.822351","281317.126257","282082.926672","282849.606056","283616.624599","284382.933598","283626.240697"
"Blocked","Female","cave","12","F_bluff.wav","None","728.276207112","239","278267.254439","285150.111672","271316.822035","272084.001346","272850.895293","273617.55489","274384.161619","275133.638504","279034.056872","279783.332797","280549.822351","281317.126257","282082.926672","282849.606056","283616.624599","284382.933598","284391.655269"
"Blocked","Female","cave","12","F_tile.wav","None","725.758021697","239","278267.254439","285150.111672","285916.357909","272084.001346","272850.895293","273617.55489","274384.161619","275133.638504","279034.056872","279783.332797","280549.822351","281317.126257","282082.926672","282849.606056","283616.624599","284382.933598","285159.644603"
"Blocked","Female","cave","12","F_cave.wav","None","725.900858059","239","278267.254439","285150.111672","285916.357909","286682.611567","272850.895293","273617.55489","274384.161619","275133.638504","279034.056872","279783.332797","280549.822351","281317.126257","282082.926672","282849.606056","283616.624599","284382.933598","285925.170167"
"Blocked","Female","cave","12","F_tile.wav","space","407.085916959","239","278267.254439","285150.111672","285916.357909","286682.611567","287450.498567","273617.55489","274384.161619","275133.638504","279034.056872","279783.332797","280549.822351","281317.126257","282082.926672","282849.606056","283616.624599","284382.933598","286691.285935"
"Blocked","Female","cave","12","F_jaw.wav","None","720.894476748","239","278267.254439","285150.111672","285916.357909","286682.611567","287450.498567","288216.373801","274384.161619","275133.638504","279034.056872","279783.332797","280549.822351","281317.126257","282082.926672","282849.606056","283616.624599","284382.933598","287459.944003"
"Blocked","Female","cave","12","F_cave.wav","None","720.854593907","239","278267.254439","285150.111672","285916.357909","286682.611567","287450.498567","288216.373801","288966.684825","275133.638504","279034.056872","279783.332797","280549.822351","281317.126257","282082.926672","282849.606056","283616.624599","284382.933598","288225.43123"
"Blocked","Female","cave","12","F_reek.wav","space","506.33581006","239","278267.254439","285150.111672","285916.357909","286682.611567","287450.498567","288216.373801","288966.684825","289733.345968","279034.056872","279783.332797","280549.822351","281317.126257","282082.926672","282849.606056","283616.624599","284382.933598","288975.971967"
"Blocked","Female","tile","18","F_depth.wav","None","732.625294011","239","292866.968705","285150.111672","285916.357909","286682.611567","287450.498567","288216.373801","288966.684825","289733.345968","279034.056872","279783.332797","280549.822351","281317.126257","282082.926672","282849.606056","283616.624599","284382.933598","289742.846437"
"Blocked","Female","tile","18","F_dime.wav","None","721.288358676","239","292866.968705","285150.111672","285916.357909","286682.611567","287450.498567","288216.373801","288966.684825","289733.345968","293632.937926","279783.332797","280549.822351","281317.126257","282082.926672","282849.606056","283616.624599","284382.933598","292876.774014"
"Blocked","Female","tile","18","F_lash.wav","None","721.750876284","239","292866.968705","285150.111672","285916.357909","286682.611567","287450.498567","288216.373801","288966.684825","289733.345968","293632.937926","294400.368592","280549.822351","281317.126257","282082.926672","282849.606056","283616.624599","284382.933598","293642.276081"
"Blocked","Female","tile","18","F_bluff.wav","None","719.854739844","239","292866.968705","285150.111672","285916.357909","286682.611567","287450.498567","288216.373801","288966.684825","289733.345968","293632.937926","294400.368592","295167.121867","281317.126257","282082.926672","282849.606056","283616.624599","284382.933598","294409.944189"
"Blocked","Female","tile","18","F_dime.wav","None","718.571686535","239","292866.968705","285150.111672","285916.357909","286682.611567","287450.498567","288216.373801","288966.684825","289733.345968","293632.937926","294400.368592","295167.121867","295916.616375","282082.926672","282849.606056","283616.624599","284382.933598","295177.079907"
"Blocked","Female","tile","18","F_done.wav","None","735.455740476","239","292866.968705","285150.111672","285916.357909","286682.611567","287450.498567","288216.373801","288966.684825","289733.345968","293632.937926","294400.368592","295167.121867","295916.616375","296683.056462","282849.606056","283616.624599","284382.933598","295925.905681"
"Blocked","Female","tile","18","F_tile.wav","None","734.579863376","239","292866.968705","285150.111672","285916.357909","286682.611567","287450.498567","288216.373801","288966.684825","289733.345968","293632.937926","294400.368592","295167.121867","295916.616375","296683.056462","297449.595483","283616.624599","284382.933598","296692.191801"
"Blocked","Female","tile","18","F_lash.wav","space","454.916907591","239","292866.968705","285150.111672","285916.357909","286682.611567","287450.498567","288216.373801","288966.684825","289733.345968","293632.937926","294400.368592","295167.121867","295916.616375","296683.056462","297449.595483","298215.893351","284382.933598","297459.140472"
"Blocked","Female","tile","18","F_tile.wav","None","732.063842355","239","292866.968705","285150.111672","285916.357909","286682.611567","287450.498567","288216.373801","288966.684825","289733.345968","293632.937926","294400.368592","295167.121867","295916.616375","296683.056462","297449.595483","298215.893351","298983.032779","298224.8503"
"Blocked","Female","tile","18","F_cling.wav","space","513.82420375","239","292866.968705","299749.648165","285916.357909","286682.611567","287450.498567","288216.373801","288966.684825","289733.345968","293632.937926","294400.368592","295167.121867","295916.616375","296683.056462","297449.595483","298215.893351","298983.032779","298992.186978"
"Blocked","Female","tile","18","F_romp.wav","None","727.22348501","239","292866.968705","299749.648165","300516.349191","286682.611567","287450.498567","288216.373801","288966.684825","289733.345968","293632.937926","294400.368592","295167.121867","295916.616375","296683.056462","297449.595483","298215.893351","298983.032779","299759.134412"
"Blocked","Female","tile","18","F_tile.wav","None","726.372959791","239","292866.968705","299749.648165","300516.349191","301283.028884","287450.498567","288216.373801","288966.684825","289733.345968","293632.937926","294400.368592","295167.121867","295916.616375","296683.056462","297449.595483","298215.893351","298983.032779","300525.725373"
"Blocked","Female","tile","18","F_jolt.wav","space","701.505531673","239","292866.968705","299749.648165","300516.349191","301283.028884","302049.93829","288216.373801","288966.684825","289733.345968","293632.937926","294400.368592","295167.121867","295916.616375","296683.056462","297449.595483","298215.893351","298983.032779","301292.428563"
"Blocked","Female","tile","18","F_jaw.wav","None","721.987699973","239","292866.968705","299749.648165","300516.349191","301283.028884","302049.93829","302816.739486","288966.684825","289733.345968","293632.937926","294400.368592","295167.121867","295916.616375","296683.056462","297449.595483","298215.893351","298983.032779","302059.870359"
"Blocked","Female","tile","18","F_tile.wav","None","720.423302497","239","292866.968705","299749.648165","300516.349191","301283.028884","302049.93829","302816.739486","303583.258411","289733.345968","293632.937926","294400.368592","295167.121867","295916.616375","296683.056462","297449.595483","298215.893351","298983.032779","302826.695362"
"Blocked","Female","tile","18","F_romp.wav","space","584.82342714","239","292866.968705","299749.648165","300516.349191","301283.028884","302049.93829","302816.739486","303583.258411","304332.612865","293632.937926","294400.368592","295167.121867","295916.616375","296683.056462","297449.595483","298215.893351","298983.032779","303593.054137"
"Blocked","Female","done","23","F_gnash.wav","None","734.795663739","239","307466.653908","299749.648165","300516.349191","301283.028884","302049.93829","302816.739486","303583.258411","304332.612865","293632.937926","294400.368592","295167.121867","295916.616375","296683.056462","297449.595483","298215.893351","298983.032779","304342.065413"
"Blocked","Female","done","23","F_done.wav","None","720.029729768","239","307466.653908","299749.648165","300516.349191","301283.028884","302049.93829","302816.739486","303583.258411","304332.612865","308233.019485","294400.368592","295167.121867","295916.616375","296683.056462","297449.595483","298215.893351","298983.032779","307476.373887"
"Blocked","Female","done","23","F_bluff.wav","space","447.064621374","239","307466.653908","299749.648165","300516.349191","301283.028884","302049.93829","302816.739486","303583.258411","304332.612865","308233.019485","308982.715881","295167.121867","295916.616375","296683.056462","297449.595483","298215.893351","298983.032779","308242.660626"
"Blocked","Female","done","23","F_done.wav","None","733.317524544","239","307466.653908","299749.648165","300516.349191","301283.028884","302049.93829","302816.739486","303583.258411","304332.612865","308233.019485","308982.715881","309749.232332","295916.616375","296683.056462","297449.595483","298215.893351","298983.032779","308992.249431"
"Blocked","Female","done","23","F_cave.wav","space","371.134144953","239","307466.653908","299749.648165","300516.349191","301283.028884","302049.93829","302816.739486","303583.258411","304332.612865","308233.019485","308982.715881","309749.232332","310515.577813","296683.056462","297449.595483","298215.893351","298983.032779","309758.54328"
"Blocked","Female","done","23","F_done.wav","None","730.621875846","239","307466.653908","299749.648165","300516.349191","301283.028884","302049.93829","302816.739486","303583.258411","304332.612865","308233.019485","308982.715881","309749.232332","310515.577813","311282.547816","297449.595483","298215.893351","298983.032779","310524.750253"
"Blocked","Female","done","23","F_reek.wav","space","413.785001147","239","307466.653908","299749.648165","300516.349191","301283.028884","302049.93829","302816.739486","303583.258411","304332.612865","308233.019485","308982.715881","309749.232332","310515.577813","311282.547816","312048.708414","298215.893351","298983.032779","311291.858146"
"Blocked","Female","done","23","F_ball.wav","None","727.349935332","239","307466.653908","299749.648165","300516.349191","301283.028884","302049.93829","302816.739486","303583.258411","304332.612865","308233.019485","308982.715881","309749.232332","310515.577813","311282.547816","312048.708414","312815.921424","298983.032779","312057.87096"
"Blocked","Female","done","23","F_ball.wav","None","726.156541146","239","307466.653908","299749.648165","300516.349191","301283.028884","302049.93829","302816.739486","303583.258411","304332.612865","308233.019485","308982.715881","309749.232332","310515.577813","311282.547816","312048.708414","312815.921424","313582.133034","312825.025537"
"Blocked","Female","done","23","F_priest.wav","None","725.81954638","239","307466.653908","314348.709774","300516.349191","301283.028884","302049.93829","302816.739486","303583.258411","304332.612865","308233.019485","308982.715881","309749.232332","310515.577813","311282.547816","312048.708414","312815.921424","313582.133034","313591.092147"
"Blocked","Female","done","23","F_greet.wav","None","725.39196501","239","307466.653908","314348.709774","315115.669265","301283.028884","302049.93829","302816.739486","303583.258411","304332.612865","308233.019485","308982.715881","309749.232332","310515.577813","311282.547816","312048.708414","312815.921424","313582.133034","314357.666104"
"Blocked","Female","done","23","F_cling.wav","None","724.162707222","239","307466.653908","314348.709774","315115.669265","315882.190045","302049.93829","302816.739486","303583.258411","304332.612865","308233.019485","308982.715881","309749.232332","310515.577813","311282.547816","312048.708414","312815.921424","313582.133034","315124.646001"
"Blocked","Female","done","23","F_depth.wav","None","723.331659683","239","307466.653908","314348.709774","315115.669265","315882.190045","316649.609272","302816.739486","303583.258411","304332.612865","308233.019485","308982.715881","309749.232332","310515.577813","311282.547816","312048.708414","312815.921424","313582.133034","315891.270043"
"Blocked","Female","done","23","F_done.wav","space","350.065791281","239","307466.653908","314348.709774","315115.669265","315882.190045","316649.609272","317398.576646","303583.258411","304332.612865","308233.019485","308982.715881","309749.232332","310515.577813","311282.547816","312048.708414","312815.921424","313582.133034","316659.421692"
"Blocked","Female","done","23","F_tile.wav","space","481.924716034","239","307466.653908","314348.709774","315115.669265","315882.190045","316649.609272","317398.576646","318165.329303","304332.612865","308233.019485","308982.715881","309749.232332","310515.577813","311282.547816","312048.708414","312815.921424","313582.133034","317407.535759"
"Blocked","Female","done","23","F_gnash.wav","None","734.314596048","239","307466.653908","314348.709774","315115.669265","315882.190045","316649.609272","317398.576646","318165.329303","318932.629499","308233.019485","308982.715881","309749.232332","310515.577813","311282.547816","312048.708414","312815.921424","313582.133034","318174.131357"
"Blocked","Female","done","21","F_dime.wav","None","732.271604124","239","322066.000262","314348.709774","315115.669265","315882.190045","316649.609272","317398.576646","318165.329303","318932.629499","308233.019485","308982.715881","309749.232332","310515.577813","311282.547816","312048.708414","312815.921424","313582.133034","318941.959615"
"Blocked","Female","done","21","F_bluff.wav","None","721.144285635","239","322066.000262","314348.709774","315115.669265","315882.190045","316649.609272","317398.576646","318165.329303","318932.629499","322832.76745","308982.715881","309749.232332","310515.577813","311282.547816","312048.708414","312815.921424","313582.133034","322076.009933"
"Blocked","Female","done","21","F_lash.wav","None","720.711448463","239","322066.000262","314348.709774","315115.669265","315882.190045","316649.609272","317398.576646","318165.329303","318932.629499","322832.76745","323599.311727","309749.232332","310515.577813","311282.547816","312048.708414","312815.921424","313582.133034","322842.246277"
"Blocked","Female","done","21","F_cling.wav","None","720.294688013","239","322066.000262","314348.709774","315115.669265","315882.190045","316649.609272","317398.576646","318165.329303","318932.629499","322832.76745","323599.311727","324365.301972","310515.577813","311282.547816","312048.708414","312815.921424","313582.133034","323608.479838"
"Blocked","Female","done","21","F_done.wav","None","720.351575175","239","322066.000262","314348.709774","315115.669265","315882.190045","316649.609272","317398.576646","318165.329303","318932.629499","322832.76745","323599.311727","324365.301972","325114.968378","311282.547816","312048.708414","312815.921424","313582.133034","324374.168643"
"Blocked","Female","done","21","F_bluff.wav","space","389.521690086","239","322066.000262","314348.709774","315115.669265","315882.190045","316649.609272","317398.576646","318165.329303","318932.629499","322832.76745","323599.311727","324365.301972","325114.968378","325882.163148","312048.708414","312815.921424","313582.133034","325123.706744"
"Blocked","Female","done","21","F_done.wav","None","732.866446138","239","322066.000262","314348.709774","315115.669265","315882.190045","316649.609272","317398.576646","318165.329303","318932.629499","322832.76745","323599.311727","324365.301972","325114.968378","325882.163148","326648.379086","312815.921424","313582.133034","325891.54304"
"Blocked","Female","done","21","F_bluff.wav","space","359.923041542","239","322066.000262","314348.709774","315115.669265","315882.190045","316649.609272","317398.576646","318165.329303","318932.629499","322832.76745","323599.311727","324365.301972","325114.968378","325882.163148","326648.379086","327415.536137","313582.133034","326657.264617"
"Blocked","Female","done","21","F_done.wav","None","729.201551294","239","322066.000262","314348.709774","315115.669265","315882.190045","316649.609272","317398.576646","318165.329303","318932.629499","322832.76745","323599.311727","324365.301972","325114.968378","325882.163148","326648.379086","327415.536137","328182.156779","327425.315167"
"Blocked","Female","done","21","F_reek.wav","space","377.889807103","239","322066.000262","328948.317994","315115.669265","315882.190045","316649.609272","317398.576646","318165.329303","318932.629499","322832.76745","323599.311727","324365.301972","325114.968378","325882.163148","326648.379086","327415.536137","328182.156779","328191.242033"
"Blocked","Female","done","21","F_done.wav","None","727.474839776","239","322066.000262","328948.317994","329714.984084","315882.190045","316649.609272","317398.576646","318165.329303","318932.629499","322832.76745","323599.311727","324365.301972","325114.968378","325882.163148","326648.379086","327415.536137","328182.156779","328957.090987"
"Blocked","Female","done","21","F_cave.wav","None","726.644719718","239","322066.000262","328948.317994","329714.984084","330481.978821","316649.609272","317398.576646","318165.329303","318932.629499","322832.76745","323599.311727","324365.301972","325114.968378","325882.163148","326648.379086","327415.536137","328182.156779","329723.7039"
"Blocked","Female","done","21","F_reek.wav","space","29.720770428","239","322066.000262","328948.317994","329714.984084","330481.978821","331248.326775","317398.576646","318165.329303","318932.629499","322832.76745","323599.311727","324365.301972","325114.968378","325882.163148","326648.379086","327415.536137","328182.156779","330491.355931"
"Blocked","Female","done","21","F_park.wav","None","723.060208955","239","322066.000262","328948.317994","329714.984084","330481.978821","331248.326775","332015.916354","318165.329303","318932.629499","322832.76745","323599.311727","324365.301972","325114.968378","325882.163148","326648.379086","327415.536137","328182.156779","331257.161292"
"Blocked","Female","done","21","F_dime.wav","None","720.439688419","239","322066.000262","328948.317994","329714.984084","330481.978821","331248.326775","332015.916354","332782.386121","318932.629499","322832.76745","323599.311727","324365.301972","325114.968378","325882.163148","326648.379086","327415.536137","328182.156779","332025.681781"
"Blocked","Female","done","21","F_ball.wav","None","719.57463224","239","322066.000262","328948.317994","329714.984084","330481.978821","331248.326775","332015.916354","332782.386121","333549.359834","322832.76745","323599.311727","324365.301972","325114.968378","325882.163148","326648.379086","327415.536137","328182.156779","332792.222347"
"Blocked","Female","ball","5","F_gnash.wav","None","718.379074009","239","336665.815317","328948.317994","329714.984084","330481.978821","331248.326775","332015.916354","332782.386121","333549.359834","322832.76745","323599.311727","324365.301972","325114.968378","325882.163148","326648.379086","327415.536137","328182.156779","333558.994482"
"Blocked","Female","ball","5","F_lash.wav","None","720.632301061","239","336665.815317","328948.317994","329714.984084","330481.978821","331248.326775","332015.916354","332782.386121","333549.359834","337432.125862","323599.311727","324365.301972","325114.968378","325882.163148","326648.379086","327415.536137","328182.156779","336675.611352"
"Blocked","Female","ball","5","F_tile.wav","None","719.717468484","239","336665.815317","328948.317994","329714.984084","330481.978821","331248.326775","332015.916354","332782.386121","333549.359834","337432.125862","338199.238392","324365.301972","325114.968378","325882.163148","326648.379086","327415.536137","328182.156779","337442.314542"
"Blocked","Female","ball","5","F_park.wav","None","719.123244751","239","336665.815317","328948.317994","329714.984084","330481.978821","331248.326775","332015.916354","332782.386121","333549.359834","337432.125862","338199.238392","338948.403634","325114.968378","325882.163148","326648.379086","327415.536137","328182.156779","338208.838722"
"Blocked","Female","ball","5","F_bluff.wav","None","736.553910538","239","336665.815317","328948.317994","329714.984084","330481.978821","331248.326775","332015.916354","332782.386121","333549.359834","337432.125862","338199.238392","338948.403634","339715.181643","325882.163148","326648.379086","327415.536137","328182.156779","338957.368003"
