"Condition","Talker","Target","Trial","current_stimulus","response_response","response_time_response","subject_nr","time_Audio1","time_Audio10","time_Audio11","time_Audio12","time_Audio13","time_Audio14","time_Audio15","time_Audio16","time_Audio2","time_Audio3","time_Audio4","time_Audio5","time_Audio6","time_Audio7","time_Audio8","time_Audio9","time_response"
"Blocked","Male","ball","3","M_bluff.wav","NA","NA","229","2378927.35538","NA","NA","NA","NA","NA","NA","NA","NA","NA","NA","NA","NA","NA","NA","NA","NA"
"Blocked","Male","ball","3","M_reek.wav","None","719.255878532","229","2378927.35538","NA","NA","NA","NA","NA","NA","NA","2379694.13369","NA","NA","NA","NA","NA","NA","NA","2378941.32953"
"Blocked","Male","ball","3","M_cad.wav","None","723.860339494","229","2378927.35538","NA","NA","NA","NA","NA","NA","NA","2379694.13369","2380460.73486","NA","NA","NA","NA","NA","NA","2379703.54543"
"Blocked","Male","ball","3","M_ball.wav","None","723.66061603","229","2378927.35538","NA","NA","NA","NA","NA","NA","NA","2379694.13369","2380460.73486","2381227.61953","NA","NA","NA","NA","NA","2380470.45824"
"Blocked","Male","ball","3","M_gnash.wav","space","522.696130909","229","2378927.35538","NA","NA","NA","NA","NA","NA","NA","2379694.13369","2380460.73486","2381227.61953","2381993.6005","NA","NA","NA","NA","2381237.54913"
"Blocked","Male","ball","3","M_dime.wav","None","724.730033253","229","2378927.35538","NA","NA","NA","NA","NA","NA","NA","2379694.13369","2380460.73486","2381227.61953","2381993.6005","2382760.19301","NA","NA","NA","2382003.34521"
"Blocked","Male","ball","3","M_reek.wav","None","725.41484359","229","2378927.35538","NA","NA","NA","NA","NA","NA","NA","2379694.13369","2380460.73486","2381227.61953","2381993.6005","2382760.19301","2383527.33553","NA","NA","2382769.59269"
"Blocked","Male","ball","3","M_reek.wav","None","721.4144998","229","2378927.35538","NA","NA","NA","NA","NA","NA","NA","2379694.13369","2380460.73486","2381227.61953","2381993.6005","2382760.19301","2383527.33553","2384277.0885","NA","2383537.29851"
"Blocked","Male","ball","3","M_ball.wav","None","735.618672858","229","2378927.35538","NA","NA","NA","NA","NA","NA","NA","2379694.13369","2380460.73486","2381227.61953","2381993.6005","2382760.19301","2383527.33553","2384277.0885","2385043.82261","2384286.72841"
"Blocked","Male","ball","3","M_park.wav","space","450.949954102","229","2378927.35538","2385810.4145","NA","NA","NA","NA","NA","NA","2379694.13369","2380460.73486","2381227.61953","2381993.6005","2382760.19301","2383527.33553","2384277.0885","2385043.82261","2385052.96939"
"Blocked","Male","ball","3","M_ball.wav","None","733.592994453","229","2378927.35538","2385810.4145","2386577.23579","NA","NA","NA","NA","NA","2379694.13369","2380460.73486","2381227.61953","2381993.6005","2382760.19301","2383527.33553","2384277.0885","2385043.82261","2385819.44781"
"Blocked","Male","ball","3","M_jaw.wav","space","460.953750764","229","2378927.35538","2385810.4145","2386577.23579","2387344.25959","NA","NA","NA","NA","2379694.13369","2380460.73486","2381227.61953","2381993.6005","2382760.19301","2383527.33553","2384277.0885","2385043.82261","2386586.92609"
"Blocked","Male","ball","3","M_ball.wav","None","730.279625219","229","2378927.35538","2385810.4145","2386577.23579","2387344.25959","2388110.65577","NA","NA","NA","2379694.13369","2380460.73486","2381227.61953","2381993.6005","2382760.19301","2383527.33553","2384277.0885","2385043.82261","2387353.30063"
"Blocked","Male","ball","3","M_tile.wav","space","367.470795871","229","2378927.35538","2385810.4145","2386577.23579","2387344.25959","2388110.65577","2388877.1107","NA","NA","2379694.13369","2380460.73486","2381227.61953","2381993.6005","2382760.19301","2383527.33553","2384277.0885","2385043.82261","2388120.38039"
"Blocked","Male","ball","3","M_reek.wav","None","728.093797108","229","2378927.35538","2385810.4145","2386577.23579","2387344.25959","2388110.65577","2388877.1107","2389643.89149","NA","2379694.13369","2380460.73486","2381227.61953","2381993.6005","2382760.19301","2383527.33553","2384277.0885","2385043.82261","2388886.11402"
"Blocked","Male","ball","3","M_bluff.wav","space","162.551724061","229","2378927.35538","2385810.4145","2386577.23579","2387344.25959","2388110.65577","2388877.1107","2389643.89149","2390410.76534","2379694.13369","2380460.73486","2381227.61953","2381993.6005","2382760.19301","2383527.33553","2384277.0885","2385043.82261","2389653.26644"
"Blocked","Male","ball","2","M_cling.wav","None","721.325768216","229","2393560.83126","2385810.4145","2386577.23579","2387344.25959","2388110.65577","2388877.1107","2389643.89149","2390410.76534","2379694.13369","2380460.73486","2381227.61953","2381993.6005","2382760.19301","2383527.33553","2384277.0885","2385043.82261","2390420.32548"
"Blocked","Male","ball","2","M_cling.wav","None","723.915062496","229","2393560.83126","2385810.4145","2386577.23579","2387344.25959","2388110.65577","2388877.1107","2389643.89149","2390410.76534","2394327.41263","2380460.73486","2381227.61953","2381993.6005","2382760.19301","2383527.33553","2384277.0885","2385043.82261","2393570.27144"
"Blocked","Male","ball","2","M_ball.wav","None","720.849337988","229","2393560.83126","2385810.4145","2386577.23579","2387344.25959","2388110.65577","2388877.1107","2389643.89149","2390410.76534","2394327.41263","2395076.73092","2381227.61953","2381993.6005","2382760.19301","2383527.33553","2384277.0885","2385043.82261","2394337.2266"
"Blocked","Male","ball","2","M_greet.wav","space","465.61448049","229","2393560.83126","2385810.4145","2386577.23579","2387344.25959","2388110.65577","2388877.1107","2389643.89149","2390410.76534","2394327.41263","2395076.73092","2395843.45853","2381993.6005","2382760.19301","2383527.33553","2384277.0885","2385043.82261","2395086.02424"
"Blocked","Male","ball","2","M_cave.wav","None","735.73832144","229","2393560.83126","2385810.4145","2386577.23579","2387344.25959","2388110.65577","2388877.1107","2389643.89149","2390410.76534","2394327.41263","2395076.73092","2395843.45853","2396610.76831","2382760.19301","2383527.33553","2384277.0885","2385043.82261","2395852.79174"
"Blocked","Male","ball","2","M_ball.wav","None","735.321251792","229","2393560.83126","2385810.4145","2386577.23579","2387344.25959","2388110.65577","2388877.1107","2389643.89149","2390410.76534","2394327.41263","2395076.73092","2395843.45853","2396610.76831","2397376.92953","2383527.33553","2384277.0885","2385043.82261","2396620.14418"
"Blocked","Male","ball","2","M_priest.wav","space","405.466796423","229","2393560.83126","2385810.4145","2386577.23579","2387344.25959","2388110.65577","2388877.1107","2389643.89149","2390410.76534","2394327.41263","2395076.73092","2395843.45853","2396610.76831","2397376.92953","2398143.39466","2384277.0885","2385043.82261","2397386.10042"
"Blocked","Male","ball","2","M_greet.wav","None","734.921495721","229","2393560.83126","2385810.4145","2386577.23579","2387344.25959","2388110.65577","2388877.1107","2389643.89149","2390410.76534","2394327.41263","2395076.73092","2395843.45853","2396610.76831","2397376.92953","2398143.39466","2398910.23759","2385043.82261","2398152.98138"
"Blocked","Male","ball","2","M_done.wav","None","732.051784638","229","2393560.83126","2385810.4145","2386577.23579","2387344.25959","2388110.65577","2388877.1107","2389643.89149","2390410.76534","2394327.41263","2395076.73092","2395843.45853","2396610.76831","2397376.92953","2398143.39466","2398910.23759","2399676.44673","2398919.66046"
"Blocked","Male","ball","2","M_ball.wav","None","734.019030002","229","2393560.83126","2400443.55648","2386577.23579","2387344.25959","2388110.65577","2388877.1107","2389643.89149","2390410.76534","2394327.41263","2395076.73092","2395843.45853","2396610.76831","2397376.92953","2398143.39466","2398910.23759","2399676.44673","2399685.66121"
"Blocked","Male","ball","2","M_dime.wav","space","362.456994539","229","2393560.83126","2400443.55648","2401209.78107","2387344.25959","2388110.65577","2388877.1107","2389643.89149","2390410.76534","2394327.41263","2395076.73092","2395843.45853","2396610.76831","2397376.92953","2398143.39466","2398910.23759","2399676.44673","2400452.96914"
"Blocked","Male","ball","2","M_greet.wav","None","728.398638195","229","2393560.83126","2400443.55648","2401209.78107","2401977.74196","2388110.65577","2388877.1107","2389643.89149","2390410.76534","2394327.41263","2395076.73092","2395843.45853","2396610.76831","2397376.92953","2398143.39466","2398910.23759","2399676.44673","2401218.59797"
"Blocked","Male","ball","2","M_jaw.wav","None","723.65968849","229","2393560.83126","2400443.55648","2401209.78107","2401977.74196","2402743.52475","2388877.1107","2389643.89149","2390410.76534","2394327.41263","2395076.73092","2395843.45853","2396610.76831","2397376.92953","2398143.39466","2398910.23759","2399676.44673","2401987.11042"
"Blocked","Male","ball","2","M_park.wav","None","722.115696175","229","2393560.83126","2400443.55648","2401209.78107","2401977.74196","2402743.52475","2403493.25299","2389643.89149","2390410.76534","2394327.41263","2395076.73092","2395843.45853","2396610.76831","2397376.92953","2398143.39466","2398910.23759","2399676.44673","2402752.91176"
"Blocked","Male","ball","2","M_ball.wav","None","736.337491893","229","2393560.83126","2400443.55648","2401209.78107","2401977.74196","2402743.52475","2403493.25299","2404260.1018","2390410.76534","2394327.41263","2395076.73092","2395843.45853","2396610.76831","2397376.92953","2398143.39466","2398910.23759","2399676.44673","2403502.24024"
"Blocked","Male","ball","2","M_gnash.wav","space","505.781778251","229","2393560.83126","2400443.55648","2401209.78107","2401977.74196","2402743.52475","2403493.25299","2404260.1018","2405026.775","2394327.41263","2395076.73092","2395843.45853","2396610.76831","2397376.92953","2398143.39466","2398910.23759","2399676.44673","2404269.57445"
"Blocked","Male","done","24","M_jolt.wav","None","730.450286821","229","2408160.41042","2400443.55648","2401209.78107","2401977.74196","2402743.52475","2403493.25299","2404260.1018","2405026.775","2394327.41263","2395076.73092","2395843.45853","2396610.76831","2397376.92953","2398143.39466","2398910.23759","2399676.44673","2405035.62251"
"Blocked","Male","done","24","M_knife.wav","None","723.59692707","229","2408160.41042","2400443.55648","2401209.78107","2401977.74196","2402743.52475","2403493.25299","2404260.1018","2405026.775","2408927.04744","2395076.73092","2395843.45853","2396610.76831","2397376.92953","2398143.39466","2398910.23759","2399676.44673","2408169.70374"
"Blocked","Male","done","24","M_dime.wav","None","723.075049056","229","2408160.41042","2400443.55648","2401209.78107","2401977.74196","2402743.52475","2403493.25299","2404260.1018","2405026.775","2408927.04744","2409693.6721","2395843.45853","2396610.76831","2397376.92953","2398143.39466","2398910.23759","2399676.44673","2408936.73867"
"Blocked","Male","done","24","M_done.wav","None","720.13546573","229","2408160.41042","2400443.55648","2401209.78107","2401977.74196","2402743.52475","2403493.25299","2404260.1018","2405026.775","2408927.04744","2409693.6721","2410443.0785","2396610.76831","2397376.92953","2398143.39466","2398910.23759","2399676.44673","2409703.71455"
"Blocked","Male","done","24","M_reek.wav","space","434.766787279","229","2408160.41042","2400443.55648","2401209.78107","2401977.74196","2402743.52475","2403493.25299","2404260.1018","2405026.775","2408927.04744","2409693.6721","2410443.0785","2411209.97337","2397376.92953","2398143.39466","2398910.23759","2399676.44673","2410452.3641"
"Blocked","Male","done","24","M_park.wav","None","731.315343","229","2408160.41042","2400443.55648","2401209.78107","2401977.74196","2402743.52475","2403493.25299","2404260.1018","2405026.775","2408927.04744","2409693.6721","2410443.0785","2411209.97337","2411976.08296","2398143.39466","2398910.23759","2399676.44673","2411219.65069"
"Blocked","Male","done","24","M_priest.wav","None","729.92748121","229","2408160.41042","2400443.55648","2401209.78107","2401977.74196","2402743.52475","2403493.25299","2404260.1018","2405026.775","2408927.04744","2409693.6721","2410443.0785","2411209.97337","2411976.08296","2412743.1182","2398910.23759","2399676.44673","2411984.84606"
"Blocked","Male","done","24","M_done.wav","None","726.35224543","229","2408160.41042","2400443.55648","2401209.78107","2401977.74196","2402743.52475","2403493.25299","2404260.1018","2405026.775","2408927.04744","2409693.6721","2410443.0785","2411209.97337","2411976.08296","2412743.1182","2413510.10737","2399676.44673","2412752.20438"
"Blocked","Male","done","24","M_ball.wav","space","582.959444379","229","2408160.41042","2400443.55648","2401209.78107","2401977.74196","2402743.52475","2403493.25299","2404260.1018","2405026.775","2408927.04744","2409693.6721","2410443.0785","2411209.97337","2411976.08296","2412743.1182","2413510.10737","2414276.84117","2413520.11518"
"Blocked","Male","done","24","M_ball.wav","None","719.239183411","229","2408160.41042","2415025.8444","2401209.78107","2401977.74196","2402743.52475","2403493.25299","2404260.1018","2405026.775","2408927.04744","2409693.6721","2410443.0785","2411209.97337","2411976.08296","2412743.1182","2413510.10737","2414276.84117","2414286.83723"
"Blocked","Male","done","24","M_bluff.wav","None","735.478000774","229","2408160.41042","2415025.8444","2415792.70836","2401977.74196","2402743.52475","2403493.25299","2404260.1018","2405026.775","2408927.04744","2409693.6721","2410443.0785","2411209.97337","2411976.08296","2412743.1182","2413510.10737","2414276.84117","2415034.49002"
"Blocked","Male","done","24","M_done.wav","None","732.357862405","229","2408160.41042","2415025.8444","2415792.70836","2416559.63075","2402743.52475","2403493.25299","2404260.1018","2405026.775","2408927.04744","2409693.6721","2410443.0785","2411209.97337","2411976.08296","2412743.1182","2413510.10737","2414276.84117","2415801.66562"
"Blocked","Male","done","24","M_romp.wav","space","525.89541662","229","2408160.41042","2415025.8444","2415792.70836","2416559.63075","2417326.17194","2403493.25299","2404260.1018","2405026.775","2408927.04744","2409693.6721","2410443.0785","2411209.97337","2411976.08296","2412743.1182","2413510.10737","2414276.84117","2416569.10185"
"Blocked","Male","done","24","M_done.wav","None","729.211135535","229","2408160.41042","2415025.8444","2415792.70836","2416559.63075","2417326.17194","2418093.00776","2404260.1018","2405026.775","2408927.04744","2409693.6721","2410443.0785","2411209.97337","2411976.08296","2412743.1182","2413510.10737","2414276.84117","2417335.22906"
"Blocked","Male","done","24","M_knife.wav","space","528.310957714","229","2408160.41042","2415025.8444","2415792.70836","2416559.63075","2417326.17194","2418093.00776","2418859.41446","2405026.775","2408927.04744","2409693.6721","2410443.0785","2411209.97337","2411976.08296","2412743.1182","2413510.10737","2414276.84117","2418102.63468"
"Blocked","Male","done","24","M_tile.wav","None","723.461510905","229","2408160.41042","2415025.8444","2415792.70836","2416559.63075","2417326.17194","2418093.00776","2418859.41446","2419626.67848","2408927.04744","2409693.6721","2410443.0785","2411209.97337","2411976.08296","2412743.1182","2413510.10737","2414276.84117","2418868.30617"
"Blocked","Male","tile","16","M_ball.wav","None","719.373981294","229","2422743.10768","2415025.8444","2415792.70836","2416559.63075","2417326.17194","2418093.00776","2418859.41446","2419626.67848","2408927.04744","2409693.6721","2410443.0785","2411209.97337","2411976.08296","2412743.1182","2413510.10737","2414276.84117","2419636.28901"
"Blocked","Male","tile","16","M_tile.wav","None","719.673257321","229","2422743.10768","2415025.8444","2415792.70836","2416559.63075","2417326.17194","2418093.00776","2418859.41446","2419626.67848","2423492.83005","2409693.6721","2410443.0785","2411209.97337","2411976.08296","2412743.1182","2413510.10737","2414276.84117","2422753.21907"
"Blocked","Male","tile","16","M_cave.wav","space","512.848774088","229","2422743.10768","2415025.8444","2415792.70836","2416559.63075","2417326.17194","2418093.00776","2418859.41446","2419626.67848","2423492.83005","2424259.47697","2410443.0785","2411209.97337","2411976.08296","2412743.1182","2413510.10737","2414276.84117","2423501.9153"
"Blocked","Male","tile","16","M_depth.wav","None","731.27824266","229","2422743.10768","2415025.8444","2415792.70836","2416559.63075","2417326.17194","2418093.00776","2418859.41446","2419626.67848","2423492.83005","2424259.47697","2425025.72908","2411209.97337","2411976.08296","2412743.1182","2413510.10737","2414276.84117","2424268.97806"
"Blocked","Male","tile","16","M_tile.wav","None","738.274438598","229","2422743.10768","2415025.8444","2415792.70836","2416559.63075","2417326.17194","2418093.00776","2418859.41446","2419626.67848","2423492.83005","2424259.47697","2425025.72908","2425792.39517","2411976.08296","2412743.1182","2413510.10737","2414276.84117","2425029.31143"
"Blocked","Male","tile","16","M_reek.wav","space","445.54412592","229","2422743.10768","2415025.8444","2415792.70836","2416559.63075","2417326.17194","2418093.00776","2418859.41446","2419626.67848","2423492.83005","2424259.47697","2425025.72908","2425792.39517","2426558.9648","2412743.1182","2413510.10737","2414276.84117","2425801.15116"
"Blocked","Male","tile","16","M_jolt.wav","None","727.873050026","229","2422743.10768","2415025.8444","2415792.70836","2416559.63075","2417326.17194","2418093.00776","2418859.41446","2419626.67848","2423492.83005","2424259.47697","2425025.72908","2425792.39517","2426558.9648","2427326.55283","2413510.10737","2414276.84117","2426567.78232"
"Blocked","Male","tile","16","M_tile.wav","None","722.950762894","229","2422743.10768","2415025.8444","2415792.70836","2416559.63075","2417326.17194","2418093.00776","2418859.41446","2419626.67848","2423492.83005","2424259.47697","2425025.72908","2425792.39517","2426558.9648","2427326.55283","2428092.95118","2414276.84117","2427336.59311"
"Blocked","Male","tile","16","M_cave.wav","space","567.268166167","229","2422743.10768","2415025.8444","2415792.70836","2416559.63075","2417326.17194","2418093.00776","2418859.41446","2419626.67848","2423492.83005","2424259.47697","2425025.72908","2425792.39517","2426558.9648","2427326.55283","2428092.95118","2428843.12246","2428103.38071"
"Blocked","Male","tile","16","M_park.wav","None","735.251688689","229","2422743.10768","2429609.25153","2415792.70836","2416559.63075","2417326.17194","2418093.00776","2418859.41446","2419626.67848","2423492.83005","2424259.47697","2425025.72908","2425792.39517","2426558.9648","2427326.55283","2428092.95118","2428843.12246","2428852.06643"
"Blocked","Male","tile","16","M_cling.wav","None","732.598396251","229","2422743.10768","2429609.25153","2430375.48942","2416559.63075","2417326.17194","2418093.00776","2418859.41446","2419626.67848","2423492.83005","2424259.47697","2425025.72908","2425792.39517","2426558.9648","2427326.55283","2428092.95118","2428843.12246","2429618.68923"
"Blocked","Male","tile","16","M_cad.wav","None","731.058732315","229","2422743.10768","2429609.25153","2430375.48942","2431142.62668","2417326.17194","2418093.00776","2418859.41446","2419626.67848","2423492.83005","2424259.47697","2425025.72908","2425792.39517","2426558.9648","2427326.55283","2428092.95118","2428843.12246","2430384.54901"
"Blocked","Male","tile","16","M_jolt.wav","None","727.759894042","229","2422743.10768","2429609.25153","2430375.48942","2431142.62668","2431908.80243","2418093.00776","2418859.41446","2419626.67848","2423492.83005","2424259.47697","2425025.72908","2425792.39517","2426558.9648","2427326.55283","2428092.95118","2428843.12246","2431152.00348"
"Blocked","Male","tile","16","M_tile.wav","None","726.071828685","229","2422743.10768","2429609.25153","2430375.48942","2431142.62668","2431908.80243","2432675.36062","2418859.41446","2419626.67848","2423492.83005","2424259.47697","2425025.72908","2425792.39517","2426558.9648","2427326.55283","2428092.95118","2428843.12246","2431917.61035"
"Blocked","Male","tile","16","M_priest.wav","space","570.263090893","229","2422743.10768","2429609.25153","2430375.48942","2431142.62668","2431908.80243","2432675.36062","2433442.77459","2419626.67848","2423492.83005","2424259.47697","2425025.72908","2425792.39517","2426558.9648","2427326.55283","2428092.95118","2428843.12246","2432684.25326"
"Blocked","Male","tile","16","M_jolt.wav","None","720.962184831","229","2422743.10768","2429609.25153","2430375.48942","2431142.62668","2431908.80243","2432675.36062","2433442.77459","2434192.12873","2423492.83005","2424259.47697","2425025.72908","2425792.39517","2426558.9648","2427326.55283","2428092.95118","2428843.12246","2433452.51157"
"Blocked","Male","tile","13","M_park.wav","None","735.66257488","229","2437326.0696","2429609.25153","2430375.48942","2431142.62668","2431908.80243","2432675.36062","2433442.77459","2434192.12873","2423492.83005","2424259.47697","2425025.72908","2425792.39517","2426558.9648","2427326.55283","2428092.95118","2428843.12246","2434201.61962"
"Blocked","Male","tile","13","M_tile.wav","None","720.456383599","229","2437326.0696","2429609.25153","2430375.48942","2431142.62668","2431908.80243","2432675.36062","2433442.77459","2434192.12873","2438075.41664","2424259.47697","2425025.72908","2425792.39517","2426558.9648","2427326.55283","2428092.95118","2428843.12246","2437335.82885"
"Blocked","Male","tile","13","M_reek.wav","space","481.74416105","229","2437326.0696","2429609.25153","2430375.48942","2431142.62668","2431908.80243","2432675.36062","2433442.77459","2434192.12873","2438075.41664","2438842.37891","2425025.72908","2425792.39517","2426558.9648","2427326.55283","2428092.95118","2428843.12246","2438084.56001"
"Blocked","Male","tile","13","M_tile.wav","None","731.990569097","229","2437326.0696","2429609.25153","2430375.48942","2431142.62668","2431908.80243","2432675.36062","2433442.77459","2434192.12873","2438075.41664","2438842.37891","2439609.10281","2425792.39517","2426558.9648","2427326.55283","2428092.95118","2428843.12246","2438851.8633"
"Blocked","Male","tile","13","M_lash.wav","None","729.375922878","229","2437326.0696","2429609.25153","2430375.48942","2431142.62668","2431908.80243","2432675.36062","2433442.77459","2434192.12873","2438075.41664","2438842.37891","2439609.10281","2440375.55527","2426558.9648","2427326.55283","2428092.95118","2428843.12246","2439618.40727"
"Blocked","Male","tile","13","M_tile.wav","space","309.468129592","229","2437326.0696","2429609.25153","2430375.48942","2431142.62668","2431908.80243","2432675.36062","2433442.77459","2434192.12873","2438075.41664","2438842.37891","2439609.10281","2440375.55527","2441142.33204","2427326.55283","2428092.95118","2428843.12246","2440384.81953"
"Blocked","Male","tile","13","M_reek.wav","space","422.419795243","229","2437326.0696","2429609.25153","2430375.48942","2431142.62668","2431908.80243","2432675.36062","2433442.77459","2434192.12873","2438075.41664","2438842.37891","2439609.10281","2440375.55527","2441142.33204","2441909.33791","2428092.95118","2428843.12246","2441151.8186"
"Blocked","Male","tile","13","M_tile.wav","None","723.596617929","229","2437326.0696","2429609.25153","2430375.48942","2431142.62668","2431908.80243","2432675.36062","2433442.77459","2434192.12873","2438075.41664","2438842.37891","2439609.10281","2440375.55527","2441142.33204","2441909.33791","2442675.37947","2428843.12246","2441919.25916"
"Blocked","Male","tile","13","M_bluff.wav","space","305.516325345","229","2437326.0696","2429609.25153","2430375.48942","2431142.62668","2431908.80243","2432675.36062","2433442.77459","2434192.12873","2438075.41664","2438842.37891","2439609.10281","2440375.55527","2441142.33204","2441909.33791","2442675.37947","2443425.76254","2442684.70495"
"Blocked","Male","tile","13","M_reek.wav","None","735.286624811","229","2437326.0696","2444191.92653","2430375.48942","2431142.62668","2431908.80243","2432675.36062","2433442.77459","2434192.12873","2438075.41664","2438842.37891","2439609.10281","2440375.55527","2441142.33204","2441909.33791","2442675.37947","2443425.76254","2443435.34834"
"Blocked","Male","tile","13","M_bluff.wav","None","733.804466377","229","2437326.0696","2444191.92653","2444958.41361","2431142.62668","2431908.80243","2432675.36062","2433442.77459","2434192.12873","2438075.41664","2438842.37891","2439609.10281","2440375.55527","2441142.33204","2441909.33791","2442675.37947","2443425.76254","2444201.09959"
"Blocked","Male","tile","13","M_cling.wav","None","731.806304073","229","2437326.0696","2444191.92653","2444958.41361","2445725.54408","2431908.80243","2432675.36062","2433442.77459","2434192.12873","2438075.41664","2438842.37891","2439609.10281","2440375.55527","2441142.33204","2441909.33791","2442675.37947","2443425.76254","2444967.19341"
"Blocked","Male","tile","13","M_dime.wav","None","728.774588264","229","2437326.0696","2444191.92653","2444958.41361","2445725.54408","2446492.1743","2432675.36062","2433442.77459","2434192.12873","2438075.41664","2438842.37891","2439609.10281","2440375.55527","2441142.33204","2441909.33791","2442675.37947","2443425.76254","2445734.55204"
"Blocked","Male","tile","13","M_depth.wav","None","725.790484517","229","2437326.0696","2444191.92653","2444958.41361","2445725.54408","2446492.1743","2447258.63665","2433442.77459","2434192.12873","2438075.41664","2438842.37891","2439609.10281","2440375.55527","2441142.33204","2441909.33791","2442675.37947","2443425.76254","2446501.7366"
"Blocked","Male","tile","13","M_priest.wav","None","724.001939117","229","2437326.0696","2444191.92653","2444958.41361","2445725.54408","2446492.1743","2447258.63665","2448025.25327","2434192.12873","2438075.41664","2438842.37891","2439609.10281","2440375.55527","2441142.33204","2441909.33791","2442675.37947","2443425.76254","2447267.75375"
"Blocked","Male","tile","13","M_cave.wav","None","721.86774225","229","2437326.0696","2444191.92653","2444958.41361","2445725.54408","2446492.1743","2447258.63665","2448025.25327","2448775.31232","2438075.41664","2438842.37891","2439609.10281","2440375.55527","2441142.33204","2441909.33791","2442675.37947","2443425.76254","2448034.17559"
"Blocked","Male","done","21","M_jaw.wav","None","735.900017084","229","2451908.99782","2444191.92653","2444958.41361","2445725.54408","2446492.1743","2447258.63665","2448025.25327","2448775.31232","2438075.41664","2438842.37891","2439609.10281","2440375.55527","2441142.33204","2441909.33791","2442675.37947","2443425.76254","2448784.30606"
"Blocked","Male","done","21","M_done.wav","None","720.51234328","229","2451908.99782","2444191.92653","2444958.41361","2445725.54408","2446492.1743","2447258.63665","2448025.25327","2448775.31232","2452658.44781","2438842.37891","2439609.10281","2440375.55527","2441142.33204","2441909.33791","2442675.37947","2443425.76254","2451918.46428"
"Blocked","Male","done","21","M_depth.wav","space","578.365804336","229","2451908.99782","2444191.92653","2444958.41361","2445725.54408","2446492.1743","2447258.63665","2448025.25327","2448775.31232","2452658.44781","2453425.29353","2439609.10281","2440375.55527","2441142.33204","2441909.33791","2442675.37947","2443425.76254","2452667.48947"
"Blocked","Male","done","21","M_depth.wav","None","731.997989118","229","2451908.99782","2444191.92653","2444958.41361","2445725.54408","2446492.1743","2447258.63665","2448025.25327","2448775.31232","2452658.44781","2453425.29353","2454191.87212","2440375.55527","2441142.33204","2441909.33791","2442675.37947","2443425.76254","2453434.75411"
"Blocked","Male","done","21","M_ball.wav","None","729.94912311","229","2451908.99782","2444191.92653","2444958.41361","2445725.54408","2446492.1743","2447258.63665","2448025.25327","2448775.31232","2452658.44781","2453425.29353","2454191.87212","2454958.17153","2441142.33204","2441909.33791","2442675.37947","2443425.76254","2454201.16668"
"Blocked","Male","done","21","M_done.wav","None","728.425535955","229","2451908.99782","2444191.92653","2444958.41361","2445725.54408","2446492.1743","2447258.63665","2448025.25327","2448775.31232","2452658.44781","2453425.29353","2454191.87212","2454958.17153","2455724.72292","2441909.33791","2442675.37947","2443425.76254","2454966.88517"
"Blocked","Male","done","21","M_park.wav","space","456.363511563","229","2451908.99782","2444191.92653","2444958.41361","2445725.54408","2446492.1743","2447258.63665","2448025.25327","2448775.31232","2452658.44781","2453425.29353","2454191.87212","2454958.17153","2455724.72292","2456492.35486","2442675.37947","2443425.76254","2455733.46314"
"Blocked","Male","done","21","M_bluff.wav","None","721.03514889","229","2451908.99782","2444191.92653","2444958.41361","2445725.54408","2446492.1743","2447258.63665","2448025.25327","2448775.31232","2452658.44781","2453425.29353","2454191.87212","2454958.17153","2455724.72292","2456492.35486","2457241.53432","2443425.76254","2456501.63983"
"Blocked","Male","done","21","M_done.wav","None","736.251233611","229","2451908.99782","2444191.92653","2444958.41361","2445725.54408","2446492.1743","2447258.63665","2448025.25327","2448775.31232","2452658.44781","2453425.29353","2454191.87212","2454958.17153","2455724.72292","2456492.35486","2457241.53432","2458008.51607","2457250.68326"
"Blocked","Male","done","21","M_romp.wav","space","555.753458349","229","2451908.99782","2458775.18618","2444958.41361","2445725.54408","2446492.1743","2447258.63665","2448025.25327","2448775.31232","2452658.44781","2453425.29353","2454191.87212","2454958.17153","2455724.72292","2456492.35486","2457241.53432","2458008.51607","2458017.96677"
"Blocked","Male","done","21","M_lash.wav","None","730.556641065","229","2451908.99782","2458775.18618","2459541.9308","2445725.54408","2446492.1743","2447258.63665","2448025.25327","2448775.31232","2452658.44781","2453425.29353","2454191.87212","2454958.17153","2455724.72292","2456492.35486","2457241.53432","2458008.51607","2458784.17559"
"Blocked","Male","done","21","M_tile.wav","None","727.518123516","229","2451908.99782","2458775.18618","2459541.9308","2460308.4454","2446492.1743","2447258.63665","2448025.25327","2448775.31232","2452658.44781","2453425.29353","2454191.87212","2454958.17153","2455724.72292","2456492.35486","2457241.53432","2458008.51607","2459551.28163"
"Blocked","Male","done","21","M_dime.wav","None","725.640846475","229","2451908.99782","2458775.18618","2459541.9308","2460308.4454","2461075.62038","2447258.63665","2448025.25327","2448775.31232","2452658.44781","2453425.29353","2454191.87212","2454958.17153","2455724.72292","2456492.35486","2457241.53432","2458008.51607","2460317.82065"
"Blocked","Male","done","21","M_knife.wav","None","722.34169906","229","2451908.99782","2458775.18618","2459541.9308","2460308.4454","2461075.62038","2461842.27967","2448025.25327","2448775.31232","2452658.44781","2453425.29353","2454191.87212","2454958.17153","2455724.72292","2456492.35486","2457241.53432","2458008.51607","2461085.31717"
"Blocked","Male","done","21","M_done.wav","None","719.880091667","229","2451908.99782","2458775.18618","2459541.9308","2460308.4454","2461075.62038","2461842.27967","2462591.29465","2448775.31232","2452658.44781","2453425.29353","2454191.87212","2454958.17153","2455724.72292","2456492.35486","2457241.53432","2458008.51607","2461852.68229"
"Blocked","Male","done","21","M_ball.wav","space","485.602596018","229","2451908.99782","2458775.18618","2459541.9308","2460308.4454","2461075.62038","2461842.27967","2462591.29465","2463357.85655","2452658.44781","2453425.29353","2454191.87212","2454958.17153","2455724.72292","2456492.35486","2457241.53432","2458008.51607","2462599.98788"
"Blocked","Male","cave","8","M_tile.wav","None","733.573825972","229","2466492.03178","2458775.18618","2459541.9308","2460308.4454","2461075.62038","2461842.27967","2462591.29465","2463357.85655","2452658.44781","2453425.29353","2454191.87212","2454958.17153","2455724.72292","2456492.35486","2457241.53432","2458008.51607","2463366.67345"
"Blocked","Male","cave","8","M_cave.wav","None","719.903279445","229","2466492.03178","2458775.18618","2459541.9308","2460308.4454","2461075.62038","2461842.27967","2462591.29465","2463357.85655","2467241.27678","2453425.29353","2454191.87212","2454958.17153","2455724.72292","2456492.35486","2457241.53432","2458008.51607","2466501.60521"
"Blocked","Male","cave","8","M_knife.wav","space","418.646072678","229","2466492.03178","2458775.18618","2459541.9308","2460308.4454","2461075.62038","2461842.27967","2462591.29465","2463357.85655","2467241.27678","2468008.29811","2454191.87212","2454958.17153","2455724.72292","2456492.35486","2457241.53432","2458008.51607","2467250.83661"
"Blocked","Male","cave","8","M_cave.wav","None","731.002772634","229","2466492.03178","2458775.18618","2459541.9308","2460308.4454","2461075.62038","2461842.27967","2462591.29465","2463357.85655","2467241.27678","2468008.29811","2468774.70821","2454958.17153","2455724.72292","2456492.35486","2457241.53432","2458008.51607","2468017.98748"
"Blocked","Male","cave","8","M_ball.wav","space","525.140733924","229","2466492.03178","2458775.18618","2459541.9308","2460308.4454","2461075.62038","2461842.27967","2462591.29465","2463357.85655","2467241.27678","2468008.29811","2468774.70821","2469541.08275","2455724.72292","2456492.35486","2457241.53432","2458008.51607","2468784.26433"
"Blocked","Male","cave","8","M_priest.wav","None","726.432320313","229","2466492.03178","2458775.18618","2459541.9308","2460308.4454","2461075.62038","2461842.27967","2462591.29465","2463357.85655","2467241.27678","2468008.29811","2468774.70821","2469541.08275","2470308.50445","2456492.35486","2457241.53432","2458008.51607","2469550.2286"
"Blocked","Male","cave","8","M_cave.wav","None","722.929121053","229","2466492.03178","2458775.18618","2459541.9308","2460308.4454","2461075.62038","2461842.27967","2462591.29465","2463357.85655","2467241.27678","2468008.29811","2468774.70821","2469541.08275","2470308.50445","2471074.46316","2457241.53432","2458008.51607","2470317.96411"
"Blocked","Male","cave","8","M_knife.wav","space","513.593872485","229","2466492.03178","2458775.18618","2459541.9308","2460308.4454","2461075.62038","2461842.27967","2462591.29465","2463357.85655","2467241.27678","2468008.29811","2468774.70821","2469541.08275","2470308.50445","2471074.46316","2471824.20717","2458008.51607","2471083.75154"
"Blocked","Male","cave","8","M_gnash.wav","None","735.345985391","229","2466492.03178","2458775.18618","2459541.9308","2460308.4454","2461075.62038","2461842.27967","2462591.29465","2463357.85655","2467241.27678","2468008.29811","2468774.70821","2469541.08275","2470308.50445","2471074.46316","2471824.20717","2472591.34165","2471833.27325"
"Blocked","Male","cave","8","M_cave.wav","None","732.411039586","229","2466492.03178","2473357.95549","2459541.9308","2460308.4454","2461075.62038","2461842.27967","2462591.29465","2463357.85655","2467241.27678","2468008.29811","2468774.70821","2469541.08275","2470308.50445","2471074.46316","2471824.20717","2472591.34165","2472600.46091"
"Blocked","Male","cave","8","M_tile.wav","space","445.809084165","229","2466492.03178","2473357.95549","2474124.73288","2460308.4454","2461075.62038","2461842.27967","2462591.29465","2463357.85655","2467241.27678","2468008.29811","2468774.70821","2469541.08275","2470308.50445","2471074.46316","2471824.20717","2472591.34165","2473367.48718"
"Blocked","Male","cave","8","M_gnash.wav","None","726.39027331","229","2466492.03178","2473357.95549","2474124.73288","2474891.28519","2461075.62038","2461842.27967","2462591.29465","2463357.85655","2467241.27678","2468008.29811","2468774.70821","2469541.08275","2470308.50445","2471074.46316","2471824.20717","2472591.34165","2474133.9891"
"Blocked","Male","cave","8","M_knife.wav","None","723.588888708","229","2466492.03178","2473357.95549","2474124.73288","2474891.28519","2475657.78031","2461842.27967","2462591.29465","2463357.85655","2467241.27678","2468008.29811","2468774.70821","2469541.08275","2470308.50445","2471074.46316","2471824.20717","2472591.34165","2474901.06237"
"Blocked","Male","cave","8","M_gnash.wav","None","722.176602518","229","2466492.03178","2473357.95549","2474124.73288","2474891.28519","2475657.78031","2476408.21624","2462591.29465","2463357.85655","2467241.27678","2468008.29811","2468774.70821","2469541.08275","2470308.50445","2471074.46316","2471824.20717","2472591.34165","2475666.67357"
"Blocked","Male","cave","8","M_park.wav","None","735.216443369","229","2466492.03178","2473357.95549","2474124.73288","2474891.28519","2475657.78031","2476408.21624","2477174.45537","2463357.85655","2467241.27678","2468008.29811","2468774.70821","2469541.08275","2470308.50445","2471074.46316","2471824.20717","2472591.34165","2476417.81132"
"Blocked","Male","cave","8","M_cling.wav","None","733.51137375","229","2466492.03178","2473357.95549","2474124.73288","2474891.28519","2475657.78031","2476408.21624","2477174.45537","2477941.18329","2467241.27678","2468008.29811","2468774.70821","2469541.08275","2470308.50445","2471074.46316","2471824.20717","2472591.34165","2477183.81238"
"Blocked","Male","done","22","M_dime.wav","None","731.723137491","229","2481074.84622","2473357.95549","2474124.73288","2474891.28519","2475657.78031","2476408.21624","2477174.45537","2477941.18329","2467241.27678","2468008.29811","2468774.70821","2469541.08275","2470308.50445","2471074.46316","2471824.20717","2472591.34165","2477950.59843"
"Blocked","Male","done","22","M_cling.wav","None","721.073485911","229","2481074.84622","2473357.95549","2474124.73288","2474891.28519","2475657.78031","2476408.21624","2477174.45537","2477941.18329","2481824.22201","2468008.29811","2468774.70821","2469541.08275","2470308.50445","2471074.46316","2471824.20717","2472591.34165","2481084.36493"
"Blocked","Male","done","22","M_done.wav","None","735.974217707","229","2481074.84622","2473357.95549","2474124.73288","2474891.28519","2475657.78031","2476408.21624","2477174.45537","2477941.18329","2481824.22201","2482591.08998","2468774.70821","2469541.08275","2470308.50445","2471074.46316","2471824.20717","2472591.34165","2481833.55985"
"Blocked","Male","done","22","M_knife.wav","space","556.73136143","229","2481074.84622","2473357.95549","2474124.73288","2474891.28519","2475657.78031","2476408.21624","2477174.45537","2477941.18329","2481824.22201","2482591.08998","2483357.26264","2469541.08275","2470308.50445","2471074.46316","2471824.20717","2472591.34165","2482600.27077"
"Blocked","Male","done","22","M_done.wav","None","731.375940202","229","2481074.84622","2473357.95549","2474124.73288","2474891.28519","2475657.78031","2476408.21624","2477174.45537","2477941.18329","2481824.22201","2482591.08998","2483357.26264","2484124.49791","2470308.50445","2471074.46316","2471824.20717","2472591.34165","2483366.39087"
"Blocked","Male","done","22","M_jolt.wav","space","479.072936752","229","2481074.84622","2473357.95549","2474124.73288","2474891.28519","2475657.78031","2476408.21624","2477174.45537","2477941.18329","2481824.22201","2482591.08998","2483357.26264","2484124.49791","2484891.1303","2471074.46316","2471824.20717","2472591.34165","2484133.8945"
"Blocked","Male","done","22","M_done.wav","None","725.42504617","229","2481074.84622","2473357.95549","2474124.73288","2474891.28519","2475657.78031","2476408.21624","2477174.45537","2477941.18329","2481824.22201","2482591.08998","2483357.26264","2484124.49791","2484891.1303","2485657.40003","2471824.20717","2472591.34165","2484900.64406"
"Blocked","Male","done","22","M_jolt.wav","space","426.399115531","229","2481074.84622","2473357.95549","2474124.73288","2474891.28519","2475657.78031","2476408.21624","2477174.45537","2477941.18329","2481824.22201","2482591.08998","2483357.26264","2484124.49791","2484891.1303","2485657.40003","2486424.81771","2472591.34165","2485666.5026"
"Blocked","Male","done","22","M_jolt.wav","None","719.415409956","229","2481074.84622","2473357.95549","2474124.73288","2474891.28519","2475657.78031","2476408.21624","2477174.45537","2477941.18329","2481824.22201","2482591.08998","2483357.26264","2484124.49791","2484891.1303","2485657.40003","2486424.81771","2487174.06674","2486434.87747"
"Blocked","Male","done","22","M_depth.wav","None","735.173777968","229","2481074.84622","2487940.83053","2474124.73288","2474891.28519","2475657.78031","2476408.21624","2477174.45537","2477941.18329","2481824.22201","2482591.08998","2483357.26264","2484124.49791","2484891.1303","2485657.40003","2486424.81771","2487174.06674","2487183.46889"
"Blocked","Male","done","22","M_romp.wav","None","733.099869161","229","2481074.84622","2487940.83053","2488707.62585","2474891.28519","2475657.78031","2476408.21624","2477174.45537","2477941.18329","2481824.22201","2482591.08998","2483357.26264","2484124.49791","2484891.1303","2485657.40003","2486424.81771","2487174.06674","2487950.39685"
"Blocked","Male","done","22","M_tile.wav","None","730.759456288","229","2481074.84622","2487940.83053","2488707.62585","2489473.78088","2475657.78031","2476408.21624","2477174.45537","2477941.18329","2481824.22201","2482591.08998","2483357.26264","2484124.49791","2484891.1303","2485657.40003","2486424.81771","2487174.06674","2488716.86538"
"Blocked","Male","done","22","M_ball.wav","None","729.617384204","229","2481074.84622","2487940.83053","2488707.62585","2489473.78088","2490240.60279","2476408.21624","2477174.45537","2477941.18329","2481824.22201","2482591.08998","2483357.26264","2484124.49791","2484891.1303","2485657.40003","2486424.81771","2487174.06674","2489482.46484"
"Blocked","Male","done","22","M_greet.wav","None","726.540838834","229","2481074.84622","2487940.83053","2488707.62585","2489473.78088","2490240.60279","2491007.83374","2477174.45537","2477941.18329","2481824.22201","2482591.08998","2483357.26264","2484124.49791","2484891.1303","2485657.40003","2486424.81771","2487174.06674","2490249.91158"
"Blocked","Male","done","22","M_done.wav","None","722.930666874","229","2481074.84622","2487940.83053","2488707.62585","2489473.78088","2490240.60279","2491007.83374","2491774.39378","2477941.18329","2481824.22201","2482591.08998","2483357.26264","2484124.49791","2484891.1303","2485657.40003","2486424.81771","2487174.06674","2491017.89256"
"Blocked","Male","done","22","M_lash.wav","space","428.53547656","229","2481074.84622","2487940.83053","2488707.62585","2489473.78088","2490240.60279","2491007.83374","2491774.39378","2492523.69939","2481824.22201","2482591.08998","2483357.26264","2484124.49791","2484891.1303","2485657.40003","2486424.81771","2487174.06674","2491784.19816"
"Blocked","Male","done","23","M_greet.wav","None","736.521447718","229","2495657.77753","2487940.83053","2488707.62585","2489473.78088","2490240.60279","2491007.83374","2491774.39378","2492523.69939","2481824.22201","2482591.08998","2483357.26264","2484124.49791","2484891.1303","2485657.40003","2486424.81771","2487174.06674","2492532.75032"
"Blocked","Male","done","23","M_dime.wav","None","720.009633747","229","2495657.77753","2487940.83053","2488707.62585","2489473.78088","2490240.60279","2491007.83374","2491774.39378","2492523.69939","2496406.80179","2482591.08998","2483357.26264","2484124.49791","2484891.1303","2485657.40003","2486424.81771","2487174.06674","2495667.58408"
"Blocked","Male","done","23","M_done.wav","None","735.755634902","229","2495657.77753","2487940.83053","2488707.62585","2489473.78088","2490240.60279","2491007.83374","2491774.39378","2492523.69939","2496406.80179","2497174.12456","2483357.26264","2484124.49791","2484891.1303","2485657.40003","2486424.81771","2487174.06674","2496416.1384"
"Blocked","Male","done","23","M_gnash.wav","space","500.91204996","229","2495657.77753","2487940.83053","2488707.62585","2489473.78088","2490240.60279","2491007.83374","2491774.39378","2492523.69939","2496406.80179","2497174.12456","2497940.39089","2484124.49791","2484891.1303","2485657.40003","2486424.81771","2487174.06674","2497183.59225"
"Blocked","Male","done","23","M_done.wav","None","729.893781769","229","2495657.77753","2487940.83053","2488707.62585","2489473.78088","2490240.60279","2491007.83374","2491774.39378","2492523.69939","2496406.80179","2497174.12456","2497940.39089","2498707.17137","2484891.1303","2485657.40003","2486424.81771","2487174.06674","2497949.71049"
"Blocked","Male","done","23","M_greet.wav","None","727.472675615","229","2495657.77753","2487940.83053","2488707.62585","2489473.78088","2490240.60279","2491007.83374","2491774.39378","2492523.69939","2496406.80179","2497174.12456","2497940.39089","2498707.17137","2499474.03038","2485657.40003","2486424.81771","2487174.06674","2498716.62701"
"Blocked","Male","done","23","M_jaw.wav","space","25.5006072111","229","2495657.77753","2487940.83053","2488707.62585","2489473.78088","2490240.60279","2491007.83374","2491774.39378","2492523.69939","2496406.80179","2497174.12456","2497940.39089","2498707.17137","2499474.03038","2500240.67359","2486424.81771","2487174.06674","2499483.01454"
"Blocked","Male","done","23","M_lash.wav","None","722.468767664","229","2495657.77753","2487940.83053","2488707.62585","2489473.78088","2490240.60279","2491007.83374","2491774.39378","2492523.69939","2496406.80179","2497174.12456","2497940.39089","2498707.17137","2499474.03038","2500240.67359","2501007.2763","2487174.06674","2500249.6089"
"Blocked","Male","done","23","M_romp.wav","None","719.469823816","229","2495657.77753","2487940.83053","2488707.62585","2489473.78088","2490240.60279","2491007.83374","2491774.39378","2492523.69939","2496406.80179","2497174.12456","2497940.39089","2498707.17137","2499474.03038","2500240.67359","2501007.2763","2501756.92694","2501017.00154"
"Blocked","Male","done","23","M_cad.wav","None","734.726409777","229","2495657.77753","2502523.90035","2488707.62585","2489473.78088","2490240.60279","2491007.83374","2491774.39378","2492523.69939","2496406.80179","2497174.12456","2497940.39089","2498707.17137","2499474.03038","2500240.67359","2501007.2763","2501756.92694","2501766.43143"
"Blocked","Male","done","23","M_done.wav","None","732.391871046","229","2495657.77753","2502523.90035","2503290.06156","2489473.78088","2490240.60279","2491007.83374","2491774.39378","2492523.69939","2496406.80179","2497174.12456","2497940.39089","2498707.17137","2499474.03038","2500240.67359","2501007.2763","2501756.92694","2502533.08392"
"Blocked","Male","done","23","M_knife.wav","space","393.722684879","229","2495657.77753","2502523.90035","2503290.06156","2504057.03558","2490240.60279","2491007.83374","2491774.39378","2492523.69939","2496406.80179","2497174.12456","2497940.39089","2498707.17137","2499474.03038","2500240.67359","2501007.2763","2501756.92694","2503298.66297"
"Blocked","Male","done","23","M_done.wav","None","726.984497043","229","2495657.77753","2502523.90035","2503290.06156","2504057.03558","2504824.15677","2491007.83374","2491774.39378","2492523.69939","2496406.80179","2497174.12456","2497940.39089","2498707.17137","2499474.03038","2500240.67359","2501007.2763","2501756.92694","2504066.47638"
"Blocked","Male","done","23","M_romp.wav","space","498.067381675","229","2495657.77753","2502523.90035","2503290.06156","2504057.03558","2504824.15677","2505589.97945","2491774.39378","2492523.69939","2496406.80179","2497174.12456","2497940.39089","2498707.17137","2499474.03038","2500240.67359","2501007.2763","2501756.92694","2504834.25981"
"Blocked","Male","done","23","M_jaw.wav","None","722.491646186","229","2495657.77753","2502523.90035","2503290.06156","2504057.03558","2504824.15677","2505589.97945","2506340.32201","2492523.69939","2496406.80179","2497174.12456","2497940.39089","2498707.17137","2499474.03038","2500240.67359","2501007.2763","2501756.92694","2505598.85076"
"Blocked","Male","done","23","M_greet.wav","None","736.736011342","229","2495657.77753","2502523.90035","2503290.06156","2504057.03558","2504824.15677","2505589.97945","2506340.32201","2507106.91853","2496406.80179","2497174.12456","2497940.39089","2498707.17137","2499474.03038","2500240.67359","2501007.2763","2501756.92694","2506349.12994"
"Blocked","Male","cave","9","M_priest.wav","None","733.816214779","229","2510240.58888","2502523.90035","2503290.06156","2504057.03558","2504824.15677","2505589.97945","2506340.32201","2507106.91853","2496406.80179","2497174.12456","2497940.39089","2498707.17137","2499474.03038","2500240.67359","2501007.2763","2501756.92694","2507116.3213"
"Blocked","Male","cave","9","M_cave.wav","None","723.993591499","229","2510240.58888","2502523.90035","2503290.06156","2504057.03558","2504824.15677","2505589.97945","2506340.32201","2507106.91853","2510990.6232","2497174.12456","2497940.39089","2498707.17137","2499474.03038","2500240.67359","2501007.2763","2501756.92694","2510246.20433"
"Blocked","Male","cave","9","M_jaw.wav","space","444.461105275","229","2510240.58888","2502523.90035","2503290.06156","2504057.03558","2504824.15677","2505589.97945","2506340.32201","2507106.91853","2510990.6232","2511757.23271","2497940.39089","2498707.17137","2499474.03038","2500240.67359","2501007.2763","2501756.92694","2510999.65404"
"Blocked","Male","cave","9","M_park.wav","None","732.355698245","229","2510240.58888","2502523.90035","2503290.06156","2504057.03558","2504824.15677","2505589.97945","2506340.32201","2507106.91853","2510990.6232","2511757.23271","2512523.59056","2498707.17137","2499474.03038","2500240.67359","2501007.2763","2501756.92694","2511766.37423"
"Blocked","Male","cave","9","M_cave.wav","None","730.735650228","229","2510240.58888","2502523.90035","2503290.06156","2504057.03558","2504824.15677","2505589.97945","2506340.32201","2507106.91853","2510990.6232","2511757.23271","2512523.59056","2513290.11381","2499474.03038","2500240.67359","2501007.2763","2501756.92694","2512532.49959"
"Blocked","Male","cave","9","M_lash.wav","space","448.463613226","229","2510240.58888","2502523.90035","2503290.06156","2504057.03558","2504824.15677","2505589.97945","2506340.32201","2507106.91853","2510990.6232","2511757.23271","2512523.59056","2513290.11381","2514056.79567","2500240.67359","2501007.2763","2501756.92694","2513299.61892"
"Blocked","Male","cave","9","M_cave.wav","None","725.168435543","229","2510240.58888","2502523.90035","2503290.06156","2504057.03558","2504824.15677","2505589.97945","2506340.32201","2507106.91853","2510990.6232","2511757.23271","2512523.59056","2513290.11381","2514056.79567","2514823.56811","2501007.2763","2501756.92694","2514066.0958"
"Blocked","Male","cave","9","M_park.wav","space","323.770000192","229","2510240.58888","2502523.90035","2503290.06156","2504057.03558","2504824.15677","2505589.97945","2506340.32201","2507106.91853","2510990.6232","2511757.23271","2512523.59056","2513290.11381","2514056.79567","2514823.56811","2515589.9677","2501756.92694","2514832.27896"
"Blocked","Male","cave","9","M_reek.wav","None","720.418355777","229","2510240.58888","2502523.90035","2503290.06156","2504057.03558","2504824.15677","2505589.97945","2506340.32201","2507106.91853","2510990.6232","2511757.23271","2512523.59056","2513290.11381","2514056.79567","2514823.56811","2515589.9677","2516339.94482","2515598.81149"
"Blocked","Male","cave","9","M_knife.wav","None","734.617272916","229","2510240.58888","2517106.80847","2503290.06156","2504057.03558","2504824.15677","2505589.97945","2506340.32201","2507106.91853","2510990.6232","2511757.23271","2512523.59056","2513290.11381","2514056.79567","2514823.56811","2515589.9677","2516339.94482","2516349.031"
"Blocked","Male","cave","9","M_lash.wav","None","731.552475947","229","2510240.58888","2517106.80847","2517873.39325","2504057.03558","2504824.15677","2505589.97945","2506340.32201","2507106.91853","2510990.6232","2511757.23271","2512523.59056","2513290.11381","2514056.79567","2514823.56811","2515589.9677","2516339.94482","2517116.54638"
"Blocked","Male","cave","9","M_jolt.wav","None","730.216245516","229","2510240.58888","2517106.80847","2517873.39325","2518640.0615","2504824.15677","2505589.97945","2506340.32201","2507106.91853","2510990.6232","2511757.23271","2512523.59056","2513290.11381","2514056.79567","2514823.56811","2515589.9677","2516339.94482","2517882.41605"
"Blocked","Male","cave","9","M_depth.wav","None","727.939830686","229","2510240.58888","2517106.80847","2517873.39325","2518640.0615","2519406.62402","2505589.97945","2506340.32201","2507106.91853","2510990.6232","2511757.23271","2512523.59056","2513290.11381","2514056.79567","2514823.56811","2515589.9677","2516339.94482","2518649.38451"
"Blocked","Male","cave","9","M_cave.wav","None","725.504811911","229","2510240.58888","2517106.80847","2517873.39325","2518640.0615","2519406.62402","2520173.04957","2506340.32201","2507106.91853","2510990.6232","2511757.23271","2512523.59056","2513290.11381","2514056.79567","2514823.56811","2515589.9677","2516339.94482","2519416.3137"
"Blocked","Male","cave","9","M_done.wav","space","397.469818883","229","2510240.58888","2517106.80847","2517873.39325","2518640.0615","2519406.62402","2520173.04957","2520939.96207","2507106.91853","2510990.6232","2511757.23271","2512523.59056","2513290.11381","2514056.79567","2514823.56811","2515589.9677","2516339.94482","2520182.42328"
"Blocked","Male","cave","9","M_romp.wav","None","721.030511311","229","2510240.58888","2517106.80847","2517873.39325","2518640.0615","2519406.62402","2520173.04957","2520939.96207","2521689.74071","2510990.6232","2511757.23271","2512523.59056","2513290.11381","2514056.79567","2514823.56811","2515589.9677","2516339.94482","2520948.85595"
"Blocked","Male","cave","7","M_park.wav","None","735.345676192","229","2524823.61047","2517106.80847","2517873.39325","2518640.0615","2519406.62402","2520173.04957","2520939.96207","2521689.74071","2510990.6232","2511757.23271","2512523.59056","2513290.11381","2514056.79567","2514823.56811","2515589.9677","2516339.94482","2521699.01857"
"Blocked","Male","cave","7","M_bluff.wav","None","718.851175741","229","2524823.61047","2517106.80847","2517873.39325","2518640.0615","2519406.62402","2520173.04957","2520939.96207","2521689.74071","2525572.83662","2511757.23271","2512523.59056","2513290.11381","2514056.79567","2514823.56811","2515589.9677","2516339.94482","2524833.75865"
"Blocked","Male","cave","7","M_cave.wav","None","735.174087167","229","2524823.61047","2517106.80847","2517873.39325","2518640.0615","2519406.62402","2520173.04957","2520939.96207","2521689.74071","2525572.83662","2526339.74293","2512523.59056","2513290.11381","2514056.79567","2514823.56811","2515589.9677","2516339.94482","2525582.00844"
"Blocked","Male","cave","7","M_romp.wav","space","430.530547164","229","2524823.61047","2517106.80847","2517873.39325","2518640.0615","2519406.62402","2520173.04957","2520939.96207","2521689.74071","2525572.83662","2526339.74293","2527106.42324","2513290.11381","2514056.79567","2514823.56811","2515589.9677","2516339.94482","2526349.16394"
"Blocked","Male","cave","7","M_romp.wav","None","729.216700594","229","2524823.61047","2517106.80847","2517873.39325","2518640.0615","2519406.62402","2520173.04957","2520939.96207","2521689.74071","2525572.83662","2526339.74293","2527106.42324","2527872.61074","2514056.79567","2514823.56811","2515589.9677","2516339.94482","2527115.93979"
"Blocked","Male","cave","7","M_jolt.wav","None","728.214991512","229","2524823.61047","2517106.80847","2517873.39325","2518640.0615","2519406.62402","2520173.04957","2520939.96207","2521689.74071","2525572.83662","2526339.74293","2527106.42324","2527872.61074","2528639.32691","2514823.56811","2515589.9677","2516339.94482","2527881.41217"
"Blocked","Male","cave","7","M_jolt.wav","None","725.96640198","229","2524823.61047","2517106.80847","2517873.39325","2518640.0615","2519406.62402","2520173.04957","2520939.96207","2521689.74071","2525572.83662","2526339.74293","2527106.42324","2527872.61074","2528639.32691","2529406.86764","2515589.9677","2516339.94482","2528648.27551"
"Blocked","Male","cave","7","M_dime.wav","None","722.413735522","229","2524823.61047","2517106.80847","2517873.39325","2518640.0615","2519406.62402","2520173.04957","2520939.96207","2521689.74071","2525572.83662","2526339.74293","2527106.42324","2527872.61074","2528639.32691","2529406.86764","2530172.67177","2516339.94482","2529416.69985"
"Blocked","Male","cave","7","M_cave.wav","None","722.015525214","229","2524823.61047","2517106.80847","2517873.39325","2518640.0615","2519406.62402","2520173.04957","2520939.96207","2521689.74071","2525572.83662","2526339.74293","2527106.42324","2527872.61074","2528639.32691","2529406.86764","2530172.67177","2530922.62292","2530181.75548"
"Blocked","Male","cave","7","M_jolt.wav","space","448.112705897","229","2524823.61047","2531689.56386","2517873.39325","2518640.0615","2519406.62402","2520173.04957","2520939.96207","2521689.74071","2525572.83662","2526339.74293","2527106.42324","2527872.61074","2528639.32691","2529406.86764","2530172.67177","2530922.62292","2530931.43085"
"Blocked","Male","cave","7","M_cave.wav","None","733.237140405","229","2524823.61047","2531689.56386","2532455.78598","2518640.0615","2519406.62402","2520173.04957","2520939.96207","2521689.74071","2525572.83662","2526339.74293","2527106.42324","2527872.61074","2528639.32691","2529406.86764","2530172.67177","2530922.62292","2531698.68065"
"Blocked","Male","cave","7","M_ball.wav","space","506.851504673","229","2524823.61047","2531689.56386","2532455.78598","2533222.99528","2519406.62402","2520173.04957","2520939.96207","2521689.74071","2525572.83662","2526339.74293","2527106.42324","2527872.61074","2528639.32691","2529406.86764","2530172.67177","2530922.62292","2532464.60721"
"Blocked","Male","cave","7","M_park.wav","None","728.065662668","229","2524823.61047","2531689.56386","2532455.78598","2533222.99528","2533989.49968","2520173.04957","2520939.96207","2521689.74071","2525572.83662","2526339.74293","2527106.42324","2527872.61074","2528639.32691","2529406.86764","2530172.67177","2530922.62292","2533232.63426"
"Blocked","Male","cave","7","M_cling.wav","None","726.563099015","229","2524823.61047","2531689.56386","2532455.78598","2533222.99528","2533989.49968","2534756.57263","2520939.96207","2521689.74071","2525572.83662","2526339.74293","2527106.42324","2527872.61074","2528639.32691","2529406.86764","2530172.67177","2530922.62292","2533998.60503"
"Blocked","Male","cave","7","M_cave.wav","None","723.111840198","229","2524823.61047","2531689.56386","2532455.78598","2533222.99528","2533989.49968","2534756.57263","2535523.40104","2521689.74071","2525572.83662","2526339.74293","2527106.42324","2527872.61074","2528639.32691","2529406.86764","2530172.67177","2530922.62292","2534766.56128"
"Blocked","Male","cave","7","M_lash.wav","space","429.974969651","229","2524823.61047","2531689.56386","2532455.78598","2533222.99528","2533989.49968","2534756.57263","2535523.40104","2536272.71221","2525572.83662","2526339.74293","2527106.42324","2527872.61074","2528639.32691","2529406.86764","2530172.67177","2530922.62292","2535533.43575"
"Blocked","Male","tile","14","M_lash.wav","None","735.70338526","229","2539406.48211","2531689.56386","2532455.78598","2533222.99528","2533989.49968","2534756.57263","2535523.40104","2536272.71221","2525572.83662","2526339.74293","2527106.42324","2527872.61074","2528639.32691","2529406.86764","2530172.67177","2530922.62292","2536281.95174"
"Blocked","Male","tile","14","M_tile.wav","None","720.613441721","229","2539406.48211","2531689.56386","2532455.78598","2533222.99528","2533989.49968","2534756.57263","2535523.40104","2536272.71221","2540156.30588","2526339.74293","2527106.42324","2527872.61074","2528639.32691","2529406.86764","2530172.67177","2530922.62292","2539415.85211"
"Blocked","Male","tile","14","M_gnash.wav","space","389.433267643","229","2539406.48211","2531689.56386","2532455.78598","2533222.99528","2533989.49968","2534756.57263","2535523.40104","2536272.71221","2540156.30588","2540922.82852","2527106.42324","2527872.61074","2528639.32691","2529406.86764","2530172.67177","2530922.62292","2540165.8382"
"Blocked","Male","tile","14","M_jaw.wav","None","732.60859889","229","2539406.48211","2531689.56386","2532455.78598","2533222.99528","2533989.49968","2534756.57263","2535523.40104","2536272.71221","2540156.30588","2540922.82852","2541689.30138","2527872.61074","2528639.32691","2529406.86764","2530172.67177","2530922.62292","2540931.78485"
"Blocked","Male","tile","14","M_gnash.wav","None","730.910021754","229","2539406.48211","2531689.56386","2532455.78598","2533222.99528","2533989.49968","2534756.57263","2535523.40104","2536272.71221","2540156.30588","2540922.82852","2541689.30138","2542455.94984","2528639.32691","2529406.86764","2530172.67177","2530922.62292","2541698.34396"
"Blocked","Male","tile","14","M_dime.wav","None","728.597434179","229","2539406.48211","2531689.56386","2532455.78598","2533222.99528","2533989.49968","2534756.57263","2535523.40104","2536272.71221","2540156.30588","2540922.82852","2541689.30138","2542455.94984","2543222.49288","2529406.86764","2530172.67177","2530922.62292","2542465.39744"
"Blocked","Male","tile","14","M_cave.wav","None","727.029635746","229","2539406.48211","2531689.56386","2532455.78598","2533222.99528","2533989.49968","2534756.57263","2535523.40104","2536272.71221","2540156.30588","2540922.82852","2541689.30138","2542455.94984","2543222.49288","2543989.29686","2530172.67177","2530922.62292","2543231.85608"
"Blocked","Male","tile","14","M_tile.wav","None","725.006430759","229","2539406.48211","2531689.56386","2532455.78598","2533222.99528","2533989.49968","2534756.57263","2535523.40104","2536272.71221","2540156.30588","2540922.82852","2541689.30138","2542455.94984","2543222.49288","2543989.29686","2544756.51142","2530922.62292","2543998.67892"
"Blocked","Male","tile","14","M_priest.wav","space","428.725306585","229","2539406.48211","2531689.56386","2532455.78598","2533222.99528","2533989.49968","2534756.57263","2535523.40104","2536272.71221","2540156.30588","2540922.82852","2541689.30138","2542455.94984","2543222.49288","2543989.29686","2544756.51142","2545523.20688","2544766.36929"
"Blocked","Male","tile","14","M_cave.wav","None","718.630119518","229","2539406.48211","2546272.19744","2532455.78598","2533222.99528","2533989.49968","2534756.57263","2535523.40104","2536272.71221","2540156.30588","2540922.82852","2541689.30138","2542455.94984","2543222.49288","2543989.29686","2544756.51142","2545523.20688","2545533.33496"
"Blocked","Male","tile","14","M_tile.wav","None","735.137296026","229","2539406.48211","2546272.19744","2547039.10654","2533222.99528","2533989.49968","2534756.57263","2535523.40104","2536272.71221","2540156.30588","2540922.82852","2541689.30138","2542455.94984","2543222.49288","2543989.29686","2544756.51142","2545523.20688","2546281.61536"
"Blocked","Male","tile","14","M_romp.wav","space","562.435538159","229","2539406.48211","2546272.19744","2547039.10654","2547805.69533","2533989.49968","2534756.57263","2535523.40104","2536272.71221","2540156.30588","2540922.82852","2541689.30138","2542455.94984","2543222.49288","2543989.29686","2544756.51142","2545523.20688","2547048.62277"
"Blocked","Male","tile","14","M_knife.wav","None","730.155648256","229","2539406.48211","2546272.19744","2547039.10654","2547805.69533","2548572.49746","2534756.57263","2535523.40104","2536272.71221","2540156.30588","2540922.82852","2541689.30138","2542455.94984","2543222.49288","2543989.29686","2544756.51142","2545523.20688","2547815.11047"
"Blocked","Male","tile","14","M_tile.wav","None","728.524160979","229","2539406.48211","2546272.19744","2547039.10654","2547805.69533","2548572.49746","2549339.0977","2535523.40104","2536272.71221","2540156.30588","2540922.82852","2541689.30138","2542455.94984","2543222.49288","2543989.29686","2544756.51142","2545523.20688","2548581.66866"
"Blocked","Male","tile","14","M_cad.wav","space","414.563798986","229","2539406.48211","2546272.19744","2547039.10654","2547805.69533","2548572.49746","2549339.0977","2550106.12273","2536272.71221","2540156.30588","2540922.82852","2541689.30138","2542455.94984","2543222.49288","2543989.29686","2544756.51142","2545523.20688","2549348.45007"
"Blocked","Male","tile","14","M_ball.wav","None","723.003630934","229","2539406.48211","2546272.19744","2547039.10654","2547805.69533","2548572.49746","2549339.0977","2550106.12273","2550871.95592","2540156.30588","2540922.82852","2541689.30138","2542455.94984","2543222.49288","2543989.29686","2544756.51142","2545523.20688","2550115.88105"
"Blocked","Male","cave","12","M_cling.wav","None","722.73001587","229","2553989.2981","2546272.19744","2547039.10654","2547805.69533","2548572.49746","2549339.0977","2550106.12273","2550871.95592","2540156.30588","2540922.82852","2541689.30138","2542455.94984","2543222.49288","2543989.29686","2544756.51142","2545523.20688","2550880.94131"
"Blocked","Male","cave","12","M_priest.wav","None","719.670165621","229","2553989.2981","2546272.19744","2547039.10654","2547805.69533","2548572.49746","2549339.0977","2550106.12273","2550871.95592","2554738.67481","2540922.82852","2541689.30138","2542455.94984","2543222.49288","2543989.29686","2544756.51142","2545523.20688","2553999.36218"
"Blocked","Male","cave","12","M_cave.wav","None","735.760890762","229","2553989.2981","2546272.19744","2547039.10654","2547805.69533","2548572.49746","2549339.0977","2550106.12273","2550871.95592","2554738.67481","2555505.53692","2541689.30138","2542455.94984","2543222.49288","2543989.29686","2544756.51142","2545523.20688","2554747.99782"
"Blocked","Male","cave","12","M_knife.wav","space","383.713323215","229","2553989.2981","2546272.19744","2547039.10654","2547805.69533","2548572.49746","2549339.0977","2550106.12273","2550871.95592","2554738.67481","2555505.53692","2556272.26268","2542455.94984","2543222.49288","2543989.29686","2544756.51142","2545523.20688","2555515.11159"
"Blocked","Male","cave","12","M_done.wav","None","730.694221507","229","2553989.2981","2546272.19744","2547039.10654","2547805.69533","2548572.49746","2549339.0977","2550106.12273","2550871.95592","2554738.67481","2555505.53692","2556272.26268","2557038.8422","2543222.49288","2543989.29686","2544756.51142","2545523.20688","2556281.49046"
"Blocked","Male","cave","12","M_tile.wav","None","728.994716948","229","2553989.2981","2546272.19744","2547039.10654","2547805.69533","2548572.49746","2549339.0977","2550106.12273","2550871.95592","2554738.67481","2555505.53692","2556272.26268","2557038.8422","2557805.48448","2543989.29686","2544756.51142","2545523.20688","2557047.85572"
"Blocked","Male","cave","12","M_cave.wav","None","726.842588221","229","2553989.2981","2546272.19744","2547039.10654","2547805.69533","2548572.49746","2549339.0977","2550106.12273","2550871.95592","2554738.67481","2555505.53692","2556272.26268","2557038.8422","2557805.48448","2558572.18798","2544756.51142","2545523.20688","2557814.91755"
"Blocked","Male","cave","12","M_park.wav","space","469.077178568","229","2553989.2981","2546272.19744","2547039.10654","2547805.69533","2548572.49746","2549339.0977","2550106.12273","2550871.95592","2554738.67481","2555505.53692","2556272.26268","2557038.8422","2557805.48448","2558572.18798","2559338.54521","2545523.20688","2558581.64362"
"Blocked","Male","cave","12","M_lash.wav","None","723.935776856","229","2553989.2981","2546272.19744","2547039.10654","2547805.69533","2548572.49746","2549339.0977","2550106.12273","2550871.95592","2554738.67481","2555505.53692","2556272.26268","2557038.8422","2557805.48448","2558572.18798","2559338.54521","2560105.86303","2559347.24988"
"Blocked","Male","cave","12","M_jaw.wav","None","720.315093175","229","2553989.2981","2560855.28488","2547039.10654","2547805.69533","2548572.49746","2549339.0977","2550106.12273","2550871.95592","2554738.67481","2555505.53692","2556272.26268","2557038.8422","2557805.48448","2558572.18798","2559338.54521","2560105.86303","2560115.59847"
"Blocked","Male","cave","12","M_cave.wav","None","736.505680019","229","2553989.2981","2560855.28488","2561622.07897","2547805.69533","2548572.49746","2549339.0977","2550106.12273","2550871.95592","2554738.67481","2555505.53692","2556272.26268","2557038.8422","2557805.48448","2558572.18798","2559338.54521","2560105.86303","2560864.17134"
"Blocked","Male","cave","12","M_cling.wav","space","459.436656151","229","2553989.2981","2560855.28488","2561622.07897","2562388.68168","2548572.49746","2549339.0977","2550106.12273","2550871.95592","2554738.67481","2555505.53692","2556272.26268","2557038.8422","2557805.48448","2558572.18798","2559338.54521","2560105.86303","2561631.18401"
"Blocked","Male","cave","12","M_cave.wav","None","730.671652127","229","2553989.2981","2560855.28488","2561622.07897","2562388.68168","2563155.65106","2549339.0977","2550106.12273","2550871.95592","2554738.67481","2555505.53692","2556272.26268","2557038.8422","2557805.48448","2558572.18798","2559338.54521","2560105.86303","2562398.01519"
"Blocked","Male","cave","12","M_jolt.wav","space","533.468213631","229","2553989.2981","2560855.28488","2561622.07897","2562388.68168","2563155.65106","2563922.03704","2550106.12273","2550871.95592","2554738.67481","2555505.53692","2556272.26268","2557038.8422","2557805.48448","2558572.18798","2559338.54521","2560105.86303","2563165.13051"
"Blocked","Male","cave","12","M_knife.wav","None","725.88818206","229","2553989.2981","2560855.28488","2561622.07897","2562388.68168","2563155.65106","2563922.03704","2564688.6413","2550871.95592","2554738.67481","2555505.53692","2556272.26268","2557038.8422","2557805.48448","2558572.18798","2559338.54521","2560105.86303","2563931.19743"
"Blocked","Male","cave","12","M_romp.wav","None","724.062536319","229","2553989.2981","2560855.28488","2561622.07897","2562388.68168","2563155.65106","2563922.03704","2564688.6413","2565455.65057","2554738.67481","2555505.53692","2556272.26268","2557038.8422","2557805.48448","2558572.18798","2559338.54521","2560105.86303","2564697.74016"
"Blocked","Male","tile","18","M_lash.wav","None","721.184168535","229","2568572.23528","2560855.28488","2561622.07897","2562388.68168","2563155.65106","2563922.03704","2564688.6413","2565455.65057","2554738.67481","2555505.53692","2556272.26268","2557038.8422","2557805.48448","2558572.18798","2559338.54521","2560105.86303","2565465.39064"
"Blocked","Male","tile","18","M_tile.wav","None","720.371361997","229","2568572.23528","2560855.28488","2561622.07897","2562388.68168","2563155.65106","2563922.03704","2564688.6413","2565455.65057","2569321.61911","2555505.53692","2556272.26268","2557038.8422","2557805.48448","2558572.18798","2559338.54521","2560105.86303","2568582.05358"
"Blocked","Male","tile","18","M_park.wav","space","503.907902166","229","2568572.23528","2560855.28488","2561622.07897","2562388.68168","2563155.65106","2563922.03704","2564688.6413","2565455.65057","2569321.61911","2570088.14453","2556272.26268","2557038.8422","2557805.48448","2558572.18798","2559338.54521","2560105.86303","2569330.50186"
"Blocked","Male","tile","18","M_cad.wav","None","733.617727994","229","2568572.23528","2560855.28488","2561622.07897","2562388.68168","2563155.65106","2563922.03704","2564688.6413","2565455.65057","2569321.61911","2570088.14453","2570854.63192","2557038.8422","2557805.48448","2558572.18798","2559338.54521","2560105.86303","2570097.25049"
"Blocked","Male","tile","18","M_cave.wav","None","732.224301202","229","2568572.23528","2560855.28488","2561622.07897","2562388.68168","2563155.65106","2563922.03704","2564688.6413","2565455.65057","2569321.61911","2570088.14453","2570854.63192","2571621.34902","2557805.48448","2558572.18798","2559338.54521","2560105.86303","2570863.45716"
"Blocked","Male","tile","18","M_cave.wav","None","730.219955498","229","2568572.23528","2560855.28488","2561622.07897","2562388.68168","2563155.65106","2563922.03704","2564688.6413","2565455.65057","2569321.61911","2570088.14453","2570854.63192","2571621.34902","2572388.44516","2558572.18798","2559338.54521","2560105.86303","2571630.43242"
"Blocked","Male","tile","18","M_cling.wav","None","727.161032788","229","2568572.23528","2560855.28488","2561622.07897","2562388.68168","2563155.65106","2563922.03704","2564688.6413","2565455.65057","2569321.61911","2570088.14453","2570854.63192","2571621.34902","2572388.44516","2573154.7588","2559338.54521","2560105.86303","2572398.08816"
"Blocked","Male","tile","18","M_reek.wav","None","726.235688548","229","2568572.23528","2560855.28488","2561622.07897","2562388.68168","2563155.65106","2563922.03704","2564688.6413","2565455.65057","2569321.61911","2570088.14453","2570854.63192","2571621.34902","2572388.44516","2573154.7588","2573922.01664","2560105.86303","2573163.81375"
"Blocked","Male","tile","18","M_cling.wav","None","722.78257471","229","2568572.23528","2560855.28488","2561622.07897","2562388.68168","2563155.65106","2563922.03704","2564688.6413","2565455.65057","2569321.61911","2570088.14453","2570854.63192","2571621.34902","2572388.44516","2573154.7588","2573922.01664","2574688.55226","2573932.18831"
"Blocked","Male","tile","18","M_tile.wav","None","721.329478198","229","2568572.23528","2575455.48918","2561622.07897","2562388.68168","2563155.65106","2563922.03704","2564688.6413","2565455.65057","2569321.61911","2570088.14453","2570854.63192","2571621.34902","2572388.44516","2573154.7588","2573922.01664","2574688.55226","2574698.60119"
"Blocked","Male","tile","18","M_dime.wav","space","360.891360324","229","2568572.23528","2575455.48918","2576204.70976","2562388.68168","2563155.65106","2563922.03704","2564688.6413","2565455.65057","2569321.61911","2570088.14453","2570854.63192","2571621.34902","2572388.44516","2573154.7588","2573922.01664","2574688.55226","2575465.32355"
"Blocked","Male","tile","18","M_tile.wav","None","734.519266174","229","2568572.23528","2575455.48918","2576204.70976","2576971.08523","2563155.65106","2563922.03704","2564688.6413","2565455.65057","2569321.61911","2570088.14453","2570854.63192","2571621.34902","2572388.44516","2573154.7588","2573922.01664","2574688.55226","2576214.0272"
"Blocked","Male","tile","18","M_park.wav","space","486.087064608","229","2568572.23528","2575455.48918","2576204.70976","2576971.08523","2577738.16808","2563922.03704","2564688.6413","2565455.65057","2569321.61911","2570088.14453","2570854.63192","2571621.34902","2572388.44516","2573154.7588","2573922.01664","2574688.55226","2576980.09969"
"Blocked","Male","tile","18","M_done.wav","None","729.221956455","229","2568572.23528","2575455.48918","2576204.70976","2576971.08523","2577738.16808","2578504.67248","2564688.6413","2565455.65057","2569321.61911","2570088.14453","2570854.63192","2571621.34902","2572388.44516","2573154.7588","2573922.01664","2574688.55226","2577747.73935"
"Blocked","Male","tile","18","M_tile.wav","None","728.056078427","229","2568572.23528","2575455.48918","2576204.70976","2576971.08523","2577738.16808","2578504.67248","2579271.65547","2565455.65057","2569321.61911","2570088.14453","2570854.63192","2571621.34902","2572388.44516","2573154.7588","2573922.01664","2574688.55226","2578513.96147"
"Blocked","Male","tile","18","M_knife.wav","space","457.1033541","229","2568572.23528","2575455.48918","2576204.70976","2576971.08523","2577738.16808","2578504.67248","2579271.65547","2580038.83509","2569321.61911","2570088.14453","2570854.63192","2571621.34902","2572388.44516","2573154.7588","2573922.01664","2574688.55226","2579281.00259"
"Blocked","Male","done","19","M_romp.wav","None","722.29594196","229","2583155.08714","2575455.48918","2576204.70976","2576971.08523","2577738.16808","2578504.67248","2579271.65547","2580038.83509","2569321.61911","2570088.14453","2570854.63192","2571621.34902","2572388.44516","2573154.7588","2573922.01664","2574688.55226","2580048.71398"
"Blocked","Male","done","19","M_done.wav","None","720.07981519","229","2583155.08714","2575455.48918","2576204.70976","2576971.08523","2577738.16808","2578504.67248","2579271.65547","2580038.83509","2583904.97707","2570088.14453","2570854.63192","2571621.34902","2572388.44516","2573154.7588","2573922.01664","2574688.55226","2583164.91316"
"Blocked","Male","done","19","M_cling.wav","space","447.429441323","229","2583155.08714","2575455.48918","2576204.70976","2576971.08523","2577738.16808","2578504.67248","2579271.65547","2580038.83509","2583904.97707","2584671.40572","2570854.63192","2571621.34902","2572388.44516","2573154.7588","2573922.01664","2574688.55226","2583914.55267"
"Blocked","Male","done","19","M_cling.wav","None","732.929516758","229","2583155.08714","2575455.48918","2576204.70976","2576971.08523","2577738.16808","2578504.67248","2579271.65547","2580038.83509","2583904.97707","2584671.40572","2585438.00348","2571621.34902","2572388.44516","2573154.7588","2573922.01664","2574688.55226","2584680.50087"
"Blocked","Male","done","19","M_cling.wav","None","730.957015534","229","2583155.08714","2575455.48918","2576204.70976","2576971.08523","2577738.16808","2578504.67248","2579271.65547","2580038.83509","2583904.97707","2584671.40572","2585438.00348","2586204.60928","2572388.44516","2573154.7588","2573922.01664","2574688.55226","2585447.33731"
"Blocked","Male","done","19","M_tile.wav","None","728.479022277","229","2583155.08714","2575455.48918","2576204.70976","2576971.08523","2577738.16808","2578504.67248","2579271.65547","2580038.83509","2583904.97707","2584671.40572","2585438.00348","2586204.60928","2586971.35267","2573154.7588","2573922.01664","2574688.55226","2586214.06585"
"Blocked","Male","done","19","M_park.wav","None","726.607928635","229","2583155.08714","2575455.48918","2576204.70976","2576971.08523","2577738.16808","2578504.67248","2579271.65547","2580038.83509","2583904.97707","2584671.40572","2585438.00348","2586204.60928","2586971.35267","2587737.80976","2573922.01664","2574688.55226","2586980.40577"
"Blocked","Male","done","19","M_done.wav","None","724.92048156","229","2583155.08714","2575455.48918","2576204.70976","2576971.08523","2577738.16808","2578504.67248","2579271.65547","2580038.83509","2583904.97707","2584671.40572","2585438.00348","2586204.60928","2586971.35267","2587737.80976","2588504.24768","2574688.55226","2587747.0094"
"Blocked","Male","done","19","M_cling.wav","space","408.773054776","229","2583155.08714","2575455.48918","2576204.70976","2576971.08523","2577738.16808","2578504.67248","2579271.65547","2580038.83509","2583904.97707","2584671.40572","2585438.00348","2586204.60928","2586971.35267","2587737.80976","2588504.24768","2589271.62548","2588513.05715"
"Blocked","Male","done","19","M_depth.wav","None","719.105313008","229","2583155.08714","2590020.91841","2576204.70976","2576971.08523","2577738.16808","2578504.67248","2579271.65547","2580038.83509","2583904.97707","2584671.40572","2585438.00348","2586204.60928","2586971.35267","2587737.80976","2588504.24768","2589271.62548","2589281.37668"
"Blocked","Male","done","19","M_done.wav","None","735.224172589","229","2583155.08714","2590020.91841","2590787.41847","2576971.08523","2577738.16808","2578504.67248","2579271.65547","2580038.83509","2583904.97707","2584671.40572","2585438.00348","2586204.60928","2586971.35267","2587737.80976","2588504.24768","2589271.62548","2590030.22874"
"Blocked","Male","done","19","M_jolt.wav","space","469.304727332","229","2583155.08714","2590020.91841","2590787.41847","2591554.0051","2577738.16808","2578504.67248","2579271.65547","2580038.83509","2583904.97707","2584671.40572","2585438.00348","2586204.60928","2586971.35267","2587737.80976","2588504.24768","2589271.62548","2590796.45766"
"Blocked","Male","done","19","M_knife.wav","None","731.557422667","229","2583155.08714","2590020.91841","2590787.41847","2591554.0051","2592321.35044","2578504.67248","2579271.65547","2580038.83509","2583904.97707","2584671.40572","2585438.00348","2586204.60928","2586971.35267","2587737.80976","2588504.24768","2589271.62548","2591562.83282"
"Blocked","Male","done","19","M_cling.wav","None","728.353190236","229","2583155.08714","2590020.91841","2590787.41847","2591554.0051","2592321.35044","2593087.73333","2579271.65547","2580038.83509","2583904.97707","2584671.40572","2585438.00348","2586204.60928","2586971.35267","2587737.80976","2588504.24768","2589271.62548","2592330.7597"
"Blocked","Male","done","19","M_done.wav","None","726.863302581","229","2583155.08714","2590020.91841","2590787.41847","2591554.0051","2592321.35044","2593087.73333","2593853.94185","2580038.83509","2583904.97707","2584671.40572","2585438.00348","2586204.60928","2586971.35267","2587737.80976","2588504.24768","2589271.62548","2593097.23504"
"Blocked","Male","done","19","M_park.wav","space","434.911787801","229","2583155.08714","2590020.91841","2590787.41847","2591554.0051","2592321.35044","2593087.73333","2593853.94185","2594620.88557","2583904.97707","2584671.40572","2585438.00348","2586204.60928","2586971.35267","2587737.80976","2588504.24768","2589271.62548","2593862.7269"
"Blocked","Male","tile","17","M_priest.wav","None","722.670655348","229","2597737.96589","2590020.91841","2590787.41847","2591554.0051","2592321.35044","2593087.73333","2593853.94185","2594620.88557","2583904.97707","2584671.40572","2585438.00348","2586204.60928","2586971.35267","2587737.80976","2588504.24768","2589271.62548","2594630.03235"
"Blocked","Male","tile","17","M_gnash.wav","None","719.65779888","229","2597737.96589","2590020.91841","2590787.41847","2591554.0051","2592321.35044","2593087.73333","2593853.94185","2594620.88557","2598487.68578","2584671.40572","2585438.00348","2586204.60928","2586971.35267","2587737.80976","2588504.24768","2589271.62548","2597748.08995"
"Blocked","Male","tile","17","M_cad.wav","None","735.69689272","229","2597737.96589","2590020.91841","2590787.41847","2591554.0051","2592321.35044","2593087.73333","2593853.94185","2594620.88557","2598487.68578","2599254.05723","2585438.00348","2586204.60928","2586971.35267","2587737.80976","2588504.24768","2589271.62548","2598497.24159"
"Blocked","Male","tile","17","M_tile.wav","None","740.165937459","229","2597737.96589","2590020.91841","2590787.41847","2591554.0051","2592321.35044","2593087.73333","2593853.94185","2594620.88557","2598487.68578","2599254.05723","2600020.96138","2586204.60928","2586971.35267","2587737.80976","2588504.24768","2589271.62548","2599257.98801"
"Blocked","Male","tile","17","M_ball.wav","space","363.3653344","229","2597737.96589","2590020.91841","2590787.41847","2591554.0051","2592321.35044","2593087.73333","2593853.94185","2594620.88557","2598487.68578","2599254.05723","2600020.96138","2600787.15722","2586971.35267","2587737.80976","2588504.24768","2589271.62548","2600030.13042"
"Blocked","Male","tile","17","M_done.wav","None","730.706588249","229","2597737.96589","2590020.91841","2590787.41847","2591554.0051","2592321.35044","2593087.73333","2593853.94185","2594620.88557","2598487.68578","2599254.05723","2600020.96138","2600787.15722","2601553.69841","2587737.80976","2588504.24768","2589271.62548","2600796.16302"
"Blocked","Male","tile","17","M_tile.wav","None","729.495571461","229","2597737.96589","2590020.91841","2590787.41847","2591554.0051","2592321.35044","2593087.73333","2593853.94185","2594620.88557","2598487.68578","2599254.05723","2600020.96138","2600787.15722","2601553.69841","2602320.41242","2588504.24768","2589271.62548","2601562.72399"
"Blocked","Male","tile","17","M_romp.wav","space","583.899319579","229","2597737.96589","2590020.91841","2590787.41847","2591554.0051","2592321.35044","2593087.73333","2593853.94185","2594620.88557","2598487.68578","2599254.05723","2600020.96138","2600787.15722","2601553.69841","2602320.41242","2603087.79702","2589271.62548","2602329.5459"
"Blocked","Male","tile","17","M_lash.wav","None","723.063300597","229","2597737.96589","2590020.91841","2590787.41847","2591554.0051","2592321.35044","2593087.73333","2593853.94185","2594620.88557","2598487.68578","2599254.05723","2600020.96138","2600787.15722","2601553.69841","2602320.41242","2603087.79702","2603854.77197","2603097.93438"
"Blocked","Male","tile","17","M_reek.wav","None","721.150159894","229","2597737.96589","2604620.94926","2590787.41847","2591554.0051","2592321.35044","2593087.73333","2593853.94185","2594620.88557","2598487.68578","2599254.05723","2600020.96138","2600787.15722","2601553.69841","2602320.41242","2603087.79702","2603854.77197","2603864.96529"
"Blocked","Male","tile","17","M_tile.wav","None","711.696375802","229","2597737.96589","2604620.94926","2605370.63205","2591554.0051","2592321.35044","2593087.73333","2593853.94185","2594620.88557","2598487.68578","2599254.05723","2600020.96138","2600787.15722","2601553.69841","2602320.41242","2603087.79702","2603854.77197","2604638.91974"
"Blocked","Male","tile","17","M_ball.wav","space","380.563813786","229","2597737.96589","2604620.94926","2605370.63205","2606137.35843","2592321.35044","2593087.73333","2593853.94185","2594620.88557","2598487.68578","2599254.05723","2600020.96138","2600787.15722","2601553.69841","2602320.41242","2603087.79702","2603854.77197","2605380.77807"
"Blocked","Male","tile","17","M_gnash.wav","None","732.590976171","229","2597737.96589","2604620.94926","2605370.63205","2606137.35843","2606903.96763","2593087.73333","2593853.94185","2594620.88557","2598487.68578","2599254.05723","2600020.96138","2600787.15722","2601553.69841","2602320.41242","2603087.79702","2603854.77197","2606146.85921"
"Blocked","Male","tile","17","M_tile.wav","None","730.943412054","229","2597737.96589","2604620.94926","2605370.63205","2606137.35843","2606903.96763","2607670.19254","2593853.94185","2594620.88557","2598487.68578","2599254.05723","2600020.96138","2600787.15722","2601553.69841","2602320.41242","2603087.79702","2603854.77197","2606913.70771"
"Blocked","Male","tile","17","M_cad.wav","space","473.966075457","229","2597737.96589","2604620.94926","2605370.63205","2606137.35843","2606903.96763","2607670.19254","2608437.0667","2594620.88557","2598487.68578","2599254.05723","2600020.96138","2600787.15722","2601553.69841","2602320.41242","2603087.79702","2603854.77197","2607679.27625"
"Blocked","Male","tile","17","M_greet.wav","None","727.174017869","229","2597737.96589","2604620.94926","2605370.63205","2606137.35843","2606903.96763","2607670.19254","2608437.0667","2609203.50338","2598487.68578","2599254.05723","2600020.96138","2600787.15722","2601553.69841","2602320.41242","2603087.79702","2603854.77197","2608446.30499"
"Blocked","Male","cave","10","M_done.wav","None","725.131026062","229","2612337.78527","2604620.94926","2605370.63205","2606137.35843","2606903.96763","2607670.19254","2608437.0667","2609203.50338","2598487.68578","2599254.05723","2600020.96138","2600787.15722","2601553.69841","2602320.41242","2603087.79702","2603854.77197","2609213.63085"
"Blocked","Male","cave","10","M_dime.wav","None","719.753023062","229","2612337.78527","2604620.94926","2605370.63205","2606137.35843","2606903.96763","2607670.19254","2608437.0667","2609203.50338","2613104.12457","2599254.05723","2600020.96138","2600787.15722","2601553.69841","2602320.41242","2603087.79702","2603854.77197","2612347.37478"
"Blocked","Male","cave","10","M_jolt.wav","None","718.192644767","229","2612337.78527","2604620.94926","2605370.63205","2606137.35843","2606903.96763","2607670.19254","2608437.0667","2609203.50338","2613104.12457","2613853.6234","2600020.96138","2600787.15722","2601553.69841","2602320.41242","2603087.79702","2603854.77197","2613114.37446"
"Blocked","Male","cave","10","M_gnash.wav","None","734.37983077","229","2612337.78527","2604620.94926","2605370.63205","2606137.35843","2606903.96763","2607670.19254","2608437.0667","2609203.50338","2613104.12457","2613853.6234","2614620.556","2600787.15722","2601553.69841","2602320.41242","2603087.79702","2603854.77197","2613863.29206"
"Blocked","Male","cave","10","M_lash.wav","None","737.91085527","229","2612337.78527","2604620.94926","2605370.63205","2606137.35843","2606903.96763","2607670.19254","2608437.0667","2609203.50338","2613104.12457","2613853.6234","2614620.556","2615386.80131","2601553.69841","2602320.41242","2603087.79702","2603854.77197","2614624.73999"
"Blocked","Male","cave","10","M_cave.wav","None","731.811250793","229","2612337.78527","2604620.94926","2605370.63205","2606137.35843","2606903.96763","2607670.19254","2608437.0667","2609203.50338","2613104.12457","2613853.6234","2614620.556","2615386.80131","2616153.74379","2602320.41242","2603087.79702","2603854.77197","2615396.12308"
"Blocked","Male","cave","10","M_dime.wav","space","332.922344038","229","2612337.78527","2604620.94926","2605370.63205","2606137.35843","2606903.96763","2607670.19254","2608437.0667","2609203.50338","2613104.12457","2613853.6234","2614620.556","2615386.80131","2616153.74379","2616920.43987","2603087.79702","2603854.77197","2616164.09633"
"Blocked","Male","cave","10","M_cave.wav","None","726.718302059","229","2612337.78527","2604620.94926","2605370.63205","2606137.35843","2606903.96763","2607670.19254","2608437.0667","2609203.50338","2613104.12457","2613853.6234","2614620.556","2615386.80131","2616153.74379","2616920.43987","2617687.53602","2603854.77197","2616930.03928"
"Blocked","Male","cave","10","M_reek.wav","space","615.533849108","229","2612337.78527","2604620.94926","2605370.63205","2606137.35843","2606903.96763","2607670.19254","2608437.0667","2609203.50338","2613104.12457","2613853.6234","2614620.556","2615386.80131","2616153.74379","2616920.43987","2617687.53602","2618453.91427","2617697.4112"
"Blocked","Male","cave","10","M_jolt.wav","None","721.533839242","229","2612337.78527","2619220.68362","2605370.63205","2606137.35843","2606903.96763","2607670.19254","2608437.0667","2609203.50338","2613104.12457","2613853.6234","2614620.556","2615386.80131","2616153.74379","2616920.43987","2617687.53602","2618453.91427","2618463.74586"
"Blocked","Male","cave","10","M_cave.wav","None","719.092946267","229","2612337.78527","2619220.68362","2619970.52966","2606137.35843","2606903.96763","2607670.19254","2608437.0667","2609203.50338","2613104.12457","2613853.6234","2614620.556","2615386.80131","2616153.74379","2616920.43987","2617687.53602","2618453.91427","2619231.35244"
"Blocked","Male","cave","10","M_knife.wav","space","692.783242499","229","2612337.78527","2619220.68362","2619970.52966","2620736.67356","2606903.96763","2607670.19254","2608437.0667","2609203.50338","2613104.12457","2613853.6234","2614620.556","2615386.80131","2616153.74379","2616920.43987","2617687.53602","2618453.91427","2619980.11329"
"Blocked","Male","cave","10","M_lash.wav","None","733.065242181","229","2612337.78527","2619220.68362","2619970.52966","2620736.67356","2621503.6009","2607670.19254","2608437.0667","2609203.50338","2613104.12457","2613853.6234","2614620.556","2615386.80131","2616153.74379","2616920.43987","2617687.53602","2618453.91427","2620745.99409"
"Blocked","Male","cave","10","M_priest.wav","None","730.969691474","229","2612337.78527","2619220.68362","2619970.52966","2620736.67356","2621503.6009","2622270.29388","2608437.0667","2609203.50338","2613104.12457","2613853.6234","2614620.556","2615386.80131","2616153.74379","2616920.43987","2617687.53602","2618453.91427","2621513.35117"
"Blocked","Male","cave","10","M_cave.wav","None","729.250709235","229","2612337.78527","2619220.68362","2619970.52966","2620736.67356","2621503.6009","2622270.29388","2623036.4248","2609203.50338","2613104.12457","2613853.6234","2614620.556","2615386.80131","2616153.74379","2616920.43987","2617687.53602","2618453.91427","2622280.2881"
"Blocked","Male","cave","10","M_cad.wav","space","523.420515005","229","2612337.78527","2619220.68362","2619970.52966","2620736.67356","2621503.6009","2622270.29388","2623036.4248","2623803.57505","2613104.12457","2613853.6234","2614620.556","2615386.80131","2616153.74379","2616920.43987","2617687.53602","2618453.91427","2623045.34249"
"Blocked","Male","ball","1","M_cling.wav","None","725.264278066","229","2626936.92541","2619220.68362","2619970.52966","2620736.67356","2621503.6009","2622270.29388","2623036.4248","2623803.57505","2613104.12457","2613853.6234","2614620.556","2615386.80131","2616153.74379","2616920.43987","2617687.53602","2618453.91427","2623813.36583"
"Blocked","Male","ball","1","M_done.wav","None","719.333480112","229","2626936.92541","2619220.68362","2619970.52966","2620736.67356","2621503.6009","2622270.29388","2623036.4248","2623803.57505","2627687.10875","2613853.6234","2614620.556","2615386.80131","2616153.74379","2616920.43987","2617687.53602","2618453.91427","2626947.5259"
"Blocked","Male","ball","1","M_cave.wav","None","735.416166834","229","2626936.92541","2619220.68362","2619970.52966","2620736.67356","2621503.6009","2622270.29388","2623036.4248","2623803.57505","2627687.10875","2628452.98985","2614620.556","2615386.80131","2616153.74379","2616920.43987","2617687.53602","2618453.91427","2627696.68372"
"Blocked","Male","ball","1","M_knife.wav","None","735.407510074","229","2626936.92541","2619220.68362","2619970.52966","2620736.67356","2621503.6009","2622270.29388","2623036.4248","2623803.57505","2627687.10875","2628452.98985","2629220.12341","2615386.80131","2616153.74379","2616920.43987","2617687.53602","2618453.91427","2628462.04481"
"Blocked","Male","ball","1","M_depth.wav","None","732.774932054","229","2626936.92541","2619220.68362","2619970.52966","2620736.67356","2621503.6009","2622270.29388","2623036.4248","2623803.57505","2627687.10875","2628452.98985","2629220.12341","2629986.68469","2616153.74379","2616920.43987","2617687.53602","2618453.91427","2629229.82669"
"Blocked","Male","ball","1","M_ball.wav","None","730.863955512","229","2626936.92541","2619220.68362","2619970.52966","2620736.67356","2621503.6009","2622270.29388","2623036.4248","2623803.57505","2627687.10875","2628452.98985","2629220.12341","2629986.68469","2630753.28338","2616920.43987","2617687.53602","2618453.91427","2629997.01466"
"Blocked","Male","ball","1","M_greet.wav","space","381.473699585","229","2626936.92541","2619220.68362","2619970.52966","2620736.67356","2621503.6009","2622270.29388","2623036.4248","2623803.57505","2627687.10875","2628452.98985","2629220.12341","2629986.68469","2630753.28338","2631520.12879","2617687.53602","2618453.91427","2630763.10477"
"Blocked","Male","ball","1","M_jaw.wav","None","727.163196949","229","2626936.92541","2619220.68362","2619970.52966","2620736.67356","2621503.6009","2622270.29388","2623036.4248","2623803.57505","2627687.10875","2628452.98985","2629220.12341","2629986.68469","2630753.28338","2631520.12879","2632286.56455","2618453.91427","2631529.6308"
"Blocked","Male","ball","1","M_ball.wav","None","725.656614115","229","2626936.92541","2619220.68362","2619970.52966","2620736.67356","2621503.6009","2622270.29388","2623036.4248","2623803.57505","2627687.10875","2628452.98985","2629220.12341","2629986.68469","2630753.28338","2631520.12879","2632286.56455","2633052.71927","2632296.39212"
"Blocked","Male","ball","1","M_park.wav","space","522.543710365","229","2626936.92541","2633820.08965","2619970.52966","2620736.67356","2621503.6009","2622270.29388","2623036.4248","2623803.57505","2627687.10875","2628452.98985","2629220.12341","2629986.68469","2630753.28338","2631520.12879","2632286.56455","2633052.71927","2633061.97426"
"Blocked","Male","ball","1","M_depth.wav","None","720.668783062","229","2626936.92541","2633820.08965","2634586.19676","2620736.67356","2621503.6009","2622270.29388","2623036.4248","2623803.57505","2627687.10875","2628452.98985","2629220.12341","2629986.68469","2630753.28338","2631520.12879","2632286.56455","2633052.71927","2633830.09901"
"Blocked","Male","ball","1","M_ball.wav","None","720.51883582","229","2626936.92541","2633820.08965","2634586.19676","2635336.16182","2621503.6009","2622270.29388","2623036.4248","2623803.57505","2627687.10875","2628452.98985","2629220.12341","2629986.68469","2630753.28338","2631520.12879","2632286.56455","2633052.71927","2634595.58407"
"Blocked","Male","ball","1","M_cad.wav","space","350.554588193","229","2626936.92541","2633820.08965","2634586.19676","2635336.16182","2636103.06041","2622270.29388","2623036.4248","2623803.57505","2627687.10875","2628452.98985","2629220.12341","2629986.68469","2630753.28338","2631520.12879","2632286.56455","2633052.71927","2635345.8784"
"Blocked","Male","ball","1","M_cave.wav","None","732.003554236","229","2626936.92541","2633820.08965","2634586.19676","2635336.16182","2636103.06041","2636869.77164","2623036.4248","2623803.57505","2627687.10875","2628452.98985","2629220.12341","2629986.68469","2630753.28338","2631520.12879","2632286.56455","2633052.71927","2636112.69475"
"Blocked","Male","ball","1","M_ball.wav","None","731.446739985","229","2626936.92541","2633820.08965","2634586.19676","2635336.16182","2636103.06041","2636869.77164","2637635.93347","2623803.57505","2627687.10875","2628452.98985","2629220.12341","2629986.68469","2630753.28338","2631520.12879","2632286.56455","2633052.71927","2636878.84792"
"Blocked","Male","ball","1","M_park.wav","space","427.414118894","229","2626936.92541","2633820.08965","2634586.19676","2635336.16182","2636103.06041","2636869.77164","2637635.93347","2638403.23057","2627687.10875","2628452.98985","2629220.12341","2629986.68469","2630753.28338","2631520.12879","2632286.56455","2633052.71927","2637644.95905"
"Blocked","Male","cave","11","M_lash.wav","None","726.257330389","229","2641536.61803","2633820.08965","2634586.19676","2635336.16182","2636103.06041","2636869.77164","2637635.93347","2638403.23057","2627687.10875","2628452.98985","2629220.12341","2629986.68469","2630753.28338","2631520.12879","2632286.56455","2633052.71927","2638412.89676"
"Blocked","Male","cave","11","M_greet.wav","None","719.19466299","229","2641536.61803","2633820.08965","2634586.19676","2635336.16182","2636103.06041","2636869.77164","2637635.93347","2638403.23057","2642286.30732","2628452.98985","2629220.12341","2629986.68469","2630753.28338","2631520.12879","2632286.56455","2633052.71927","2641546.96439"
"Blocked","Male","cave","11","M_depth.wav","None","735.68699928","229","2641536.61803","2633820.08965","2634586.19676","2635336.16182","2636103.06041","2636869.77164","2637635.93347","2638403.23057","2642286.30732","2643052.77925","2629220.12341","2629986.68469","2630753.28338","2631520.12879","2632286.56455","2633052.71927","2642295.59693"
"Blocked","Male","cave","11","M_jolt.wav","None","733.993987262","229","2641536.61803","2633820.08965","2634586.19676","2635336.16182","2636103.06041","2636869.77164","2637635.93347","2638403.23057","2642286.30732","2643052.77925","2643819.67536","2629986.68469","2630753.28338","2631520.12879","2632286.56455","2633052.71927","2643062.64856"
"Blocked","Male","cave","11","M_jolt.wav","None","732.965380477","229","2641536.61803","2633820.08965","2634586.19676","2635336.16182","2636103.06041","2636869.77164","2637635.93347","2638403.23057","2642286.30732","2643052.77925","2643819.67536","2644586.21191","2630753.28338","2631520.12879","2632286.56455","2633052.71927","2643828.89139"
"Blocked","Male","cave","11","M_dime.wav","None","731.832583493","229","2641536.61803","2633820.08965","2634586.19676","2635336.16182","2636103.06041","2636869.77164","2637635.93347","2638403.23057","2642286.30732","2643052.77925","2643819.67536","2644586.21191","2645352.86996","2631520.12879","2632286.56455","2633052.71927","2644595.33983"
"Blocked","Male","cave","11","M_cave.wav","None","729.112819652","229","2641536.61803","2633820.08965","2634586.19676","2635336.16182","2636103.06041","2636869.77164","2637635.93347","2638403.23057","2642286.30732","2643052.77925","2643819.67536","2644586.21191","2645352.86996","2646119.07971","2632286.56455","2633052.71927","2645362.97887"
