"Condition","Talker","Target","Trial","current_stimulus","response_response","response_time_response","subject_nr","time_Audio1","time_Audio10","time_Audio11","time_Audio12","time_Audio13","time_Audio14","time_Audio15","time_Audio16","time_Audio2","time_Audio3","time_Audio4","time_Audio5","time_Audio6","time_Audio7","time_Audio8","time_Audio9","time_response"
"Blocked","Female","done","19","F_gnash.wav","NA","NA","238","17611.68438","NA","NA","NA","NA","NA","NA","NA","NA","NA","NA","NA","NA","NA","NA","NA","NA"
"Blocked","Female","done","19","F_bluff.wav","None","717.79196104","238","17611.68438","NA","NA","NA","NA","NA","NA","NA","18378.40612","NA","NA","NA","NA","NA","NA","NA","17626.0731273"
"Blocked","Female","done","19","F_done.wav","None","722.033147933","238","17611.68438","NA","NA","NA","NA","NA","NA","NA","18378.40612","19145.2564746","NA","NA","NA","NA","NA","NA","18388.1372291"
"Blocked","Female","done","19","F_romp.wav","None","721.062046709","238","17611.68438","NA","NA","NA","NA","NA","NA","NA","18378.40612","19145.2564746","19911.4782877","NA","NA","NA","NA","NA","19154.9770719"
"Blocked","Female","done","19","F_romp.wav","None","720.668783062","238","17611.68438","NA","NA","NA","NA","NA","NA","NA","18378.40612","19145.2564746","19911.4782877","20678.1564348","NA","NA","NA","NA","19921.6267755"
"Blocked","Female","done","19","F_done.wav","None","720.273355255","238","17611.68438","NA","NA","NA","NA","NA","NA","NA","18378.40612","19145.2564746","19911.4782877","20678.1564348","21444.2335565","NA","NA","NA","20688.1914575"
"Blocked","Female","done","19","F_reek.wav","None","721.508178161","238","17611.68438","NA","NA","NA","NA","NA","NA","NA","18378.40612","19145.2564746","19911.4782877","20678.1564348","21444.2335565","22211.4045197","NA","NA","21453.1793752"
"Blocked","Female","done","19","F_priest.wav","None","719.832170405","238","17611.68438","NA","NA","NA","NA","NA","NA","NA","18378.40612","19145.2564746","19911.4782877","20678.1564348","21444.2335565","22211.4045197","22978.6221677","NA","22221.2147763"
"Blocked","Female","done","19","F_reek.wav","None","719.252477633","238","17611.68438","NA","NA","NA","NA","NA","NA","NA","18378.40612","19145.2564746","19911.4782877","20678.1564348","21444.2335565","22211.4045197","22978.6221677","23744.5833508","22988.3579144"
"Blocked","Female","done","19","F_reek.wav","None","718.875600141","238","17611.68438","24494.7045452","NA","NA","NA","NA","NA","NA","18378.40612","19145.2564746","19911.4782877","20678.1564348","21444.2335565","22211.4045197","22978.6221677","23744.5833508","23755.0063812"
"Blocked","Female","done","19","F_gnash.wav","None","736.996331951","238","17611.68438","24494.7045452","25261.5193453","NA","NA","NA","NA","NA","18378.40612","19145.2564746","19911.4782877","20678.1564348","21444.2335565","22211.4045197","22978.6221677","23744.5833508","24503.4191052"
"Blocked","Female","done","19","F_done.wav","None","735.634749755","238","17611.68438","24494.7045452","25261.5193453","26027.8676087","NA","NA","NA","NA","18378.40612","19145.2564746","19911.4782877","20678.1564348","21444.2335565","22211.4045197","22978.6221677","23744.5833508","25271.0284707"
"Blocked","Female","done","19","F_cave.wav","space","326.553452993","238","17611.68438","24494.7045452","25261.5193453","26027.8676087","26794.3525249","NA","NA","NA","18378.40612","19145.2564746","19911.4782877","20678.1564348","21444.2335565","22211.4045197","22978.6221677","23744.5833508","26037.2601772"
"Blocked","Female","done","19","F_gnash.wav","None","735.368863912","238","17611.68438","24494.7045452","25261.5193453","26027.8676087","26794.3525249","27560.6630696","NA","NA","18378.40612","19145.2564746","19911.4782877","20678.1564348","21444.2335565","22211.4045197","22978.6221677","23744.5833508","26803.9293585"
"Blocked","Female","done","19","F_done.wav","None","736.144879251","238","17611.68438","24494.7045452","25261.5193453","26027.8676087","26794.3525249","27560.6630696","28327.7354077","NA","18378.40612","19145.2564746","19911.4782877","20678.1564348","21444.2335565","22211.4045197","22978.6221677","23744.5833508","27569.8472579"
"Blocked","Female","done","19","F_depth.wav","space","330.494127003","238","17611.68438","24494.7045452","25261.5193453","26027.8676087","26794.3525249","27560.6630696","28327.7354077","29094.2929789","18378.40612","19145.2564746","19911.4782877","20678.1564348","21444.2335565","22211.4045197","22978.6221677","23744.5833508","28337.2448424"
"Blocked","Female","ball","4","F_park.wav","None","734.815759701","238","32294.8564711","24494.7045452","25261.5193453","26027.8676087","26794.3525249","27560.6630696","28327.7354077","29094.2929789","18378.40612","19145.2564746","19911.4782877","20678.1564348","21444.2335565","22211.4045197","22978.6221677","23744.5833508","29103.7702599"
"Blocked","Female","ball","4","F_tile.wav","None","722.851828672","238","32294.8564711","24494.7045452","25261.5193453","26027.8676087","26794.3525249","27560.6630696","28327.7354077","29094.2929789","33060.8733048","19145.2564746","19911.4782877","20678.1564348","21444.2335565","22211.4045197","22978.6221677","23744.5833508","32304.4908103"
"Blocked","Female","ball","4","F_greet.wav","None","724.320074543","238","32294.8564711","24494.7045452","25261.5193453","26027.8676087","26794.3525249","27560.6630696","28327.7354077","29094.2929789","33060.8733048","33827.6986167","19911.4782877","20678.1564348","21444.2335565","22211.4045197","22978.6221677","23744.5833508","33069.7977907"
"Blocked","Female","ball","4","F_ball.wav","None","724.335532985","238","32294.8564711","24494.7045452","25261.5193453","26027.8676087","26794.3525249","27560.6630696","28327.7354077","29094.2929789","33060.8733048","33827.6986167","34594.5226918","20678.1564348","21444.2335565","22211.4045197","22978.6221677","23744.5833508","33836.8985726"
"Blocked","Female","ball","4","F_priest.wav","None","724.277099944","238","32294.8564711","24494.7045452","25261.5193453","26027.8676087","26794.3525249","27560.6630696","28327.7354077","29094.2929789","33060.8733048","33827.6986167","34594.5226918","35360.9238231","21444.2335565","22211.4045197","22978.6221677","23744.5833508","34603.3915272"
"Blocked","Female","ball","4","F_park.wav","space","441.770094214","238","32294.8564711","24494.7045452","25261.5193453","26027.8676087","26794.3525249","27560.6630696","28327.7354077","29094.2929789","33060.8733048","33827.6986167","34594.5226918","35360.9238231","36127.4152319","22211.4045197","22978.6221677","23744.5833508","35369.764215"
"Blocked","Female","ball","4","F_dime.wav","None","724.124679342","238","32294.8564711","24494.7045452","25261.5193453","26027.8676087","26794.3525249","27560.6630696","28327.7354077","29094.2929789","33060.8733048","33827.6986167","34594.5226918","35360.9238231","36127.4152319","36894.0602979","22978.6221677","23744.5833508","36136.4649315"
"Blocked","Female","ball","4","F_jaw.wav","None","723.915371695","238","32294.8564711","24494.7045452","25261.5193453","26027.8676087","26794.3525249","27560.6630696","28327.7354077","29094.2929789","33060.8733048","33827.6986167","34594.5226918","35360.9238231","36127.4152319","36894.0602979","37661.3305046","23744.5833508","36903.2444862"
"Blocked","Female","ball","4","F_tile.wav","None","722.26471582","238","32294.8564711","24494.7045452","25261.5193453","26027.8676087","26794.3525249","27560.6630696","28327.7354077","29094.2929789","33060.8733048","33827.6986167","34594.5226918","35360.9238231","36127.4152319","36894.0602979","37661.3305046","38427.5306758","37671.6777885"
"Blocked","Female","ball","4","F_ball.wav","None","723.65257761","238","32294.8564711","39193.9512847","25261.5193453","26027.8676087","26794.3525249","27560.6630696","28327.7354077","29094.2929789","33060.8733048","33827.6986167","34594.5226918","35360.9238231","36127.4152319","36894.0602979","37661.3305046","38427.5306758","38436.9495237"
"Blocked","Female","ball","4","F_knife.wav","space","320.639968384","238","32294.8564711","39193.9512847","39960.5462654","26027.8676087","26794.3525249","27560.6630696","28327.7354077","29094.2929789","33060.8733048","33827.6986167","34594.5226918","35360.9238231","36127.4152319","36894.0602979","37661.3305046","38427.5306758","39202.7820924"
"Blocked","Female","ball","4","F_ball.wav","None","725.080940523","238","32294.8564711","39193.9512847","39960.5462654","40727.9627091","26794.3525249","27560.6630696","28327.7354077","29094.2929789","33060.8733048","33827.6986167","34594.5226918","35360.9238231","36127.4152319","36894.0602979","37661.3305046","38427.5306758","39969.4435444"
"Blocked","Female","ball","4","F_cave.wav","space","625.570417615","238","32294.8564711","39193.9512847","39960.5462654","40727.9627091","41493.9510992","27560.6630696","28327.7354077","29094.2929789","33060.8733048","33827.6986167","34594.5226918","35360.9238231","36127.4152319","36894.0602979","37661.3305046","38427.5306758","40737.8060468"
"Blocked","Female","ball","4","F_park.wav","None","724.624915514","238","32294.8564711","39193.9512847","39960.5462654","40727.9627091","41493.9510992","42260.6963362","28327.7354077","29094.2929789","33060.8733048","33827.6986167","34594.5226918","35360.9238231","36127.4152319","36894.0602979","37661.3305046","38427.5306758","41502.9052655"
"Blocked","Female","ball","4","F_ball.wav","None","724.631408229","238","32294.8564711","39193.9512847","39960.5462654","40727.9627091","41493.9510992","42260.6963362","43027.3834493","29094.2929789","33060.8733048","33827.6986167","34594.5226918","35360.9238231","36127.4152319","36894.0602979","37661.3305046","38427.5306758","42269.409041"
"Blocked","Female","ball","4","F_depth.wav","space","454.90361331","238","32294.8564711","39193.9512847","39960.5462654","40727.9627091","41493.9510992","42260.6963362","43027.3834493","43794.3738576","33060.8733048","33827.6986167","34594.5226918","35360.9238231","36127.4152319","36894.0602979","37661.3305046","38427.5306758","43036.385846"
"Blocked","Female","cave","9","F_depth.wav","None","723.111840198","238","46927.5903455","39193.9512847","39960.5462654","40727.9627091","41493.9510992","42260.6963362","43027.3834493","43794.3738576","33060.8733048","33827.6986167","34594.5226918","35360.9238231","36127.4152319","36894.0602979","37661.3305046","38427.5306758","43803.769827"
"Blocked","Female","cave","9","F_lash.wav","None","722.315728897","238","46927.5903455","39193.9512847","39960.5462654","40727.9627091","41493.9510992","42260.6963362","43027.3834493","43794.3738576","47694.174196","33827.6986167","34594.5226918","35360.9238231","36127.4152319","36894.0602979","37661.3305046","38427.5306758","46937.5975429"
"Blocked","Female","cave","9","F_cave.wav","None","722.133009695","238","46927.5903455","39193.9512847","39960.5462654","40727.9627091","41493.9510992","42260.6963362","43027.3834493","43794.3738576","47694.174196","48460.6968309","34594.5226918","35360.9238231","36127.4152319","36894.0602979","37661.3305046","38427.5306758","47704.0951351"
"Blocked","Female","cave","9","F_tile.wav","space","396.86044585","238","46927.5903455","39193.9512847","39960.5462654","40727.9627091","41493.9510992","42260.6963362","43027.3834493","43794.3738576","47694.174196","48460.6968309","49227.6090193","35360.9238231","36127.4152319","36894.0602979","37661.3305046","38427.5306758","48470.2755194"
"Blocked","Female","cave","9","F_park.wav","None","721.414190601","238","46927.5903455","39193.9512847","39960.5462654","40727.9627091","41493.9510992","42260.6963362","43027.3834493","43794.3738576","47694.174196","48460.6968309","49227.6090193","49994.439587","36127.4152319","36894.0602979","37661.3305046","38427.5306758","49237.2714928"
"Blocked","Female","cave","9","F_cave.wav","None","721.225288115","238","46927.5903455","39193.9512847","39960.5462654","40727.9627091","41493.9510992","42260.6963362","43027.3834493","43794.3738576","47694.174196","48460.6968309","49227.6090193","49994.439587","50761.1906981","36894.0602979","37661.3305046","38427.5306758","50004.4025732"
"Blocked","Female","cave","9","F_jolt.wav","space","495.782928425","238","46927.5903455","39193.9512847","39960.5462654","40727.9627091","41493.9510992","42260.6963362","43027.3834493","43794.3738576","47694.174196","48460.6968309","49227.6090193","49994.439587","50761.1906981","51527.0241944","37661.3305046","38427.5306758","50771.2779705"
"Blocked","Female","cave","9","F_tile.wav","None","722.209065338","238","46927.5903455","39193.9512847","39960.5462654","40727.9627091","41493.9510992","42260.6963362","43027.3834493","43794.3738576","47694.174196","48460.6968309","49227.6090193","49994.439587","50761.1906981","51527.0241944","52294.1441446","38427.5306758","51536.0936808"
"Blocked","Female","cave","9","F_cave.wav","None","720.647141105","238","46927.5903455","39193.9512847","39960.5462654","40727.9627091","41493.9510992","42260.6963362","43027.3834493","43794.3738576","47694.174196","48460.6968309","49227.6090193","49994.439587","50761.1906981","51527.0241944","52294.1441446","53060.8850532","52304.1906067"
"Blocked","Female","cave","9","F_depth.wav","space","412.479996681","238","46927.5903455","53827.4537544","39960.5462654","40727.9627091","41493.9510992","42260.6963362","43027.3834493","43794.3738576","47694.174196","48460.6968309","49227.6090193","49994.439587","50761.1906981","51527.0241944","52294.1441446","53060.8850532","53070.5580385"
"Blocked","Female","cave","9","F_cave.wav","None","720.457311138","238","46927.5903455","53827.4537544","54593.4588396","40727.9627091","41493.9510992","42260.6963362","43027.3834493","43794.3738576","47694.174196","48460.6968309","49227.6090193","49994.439587","50761.1906981","51527.0241944","52294.1441446","53060.8850532","53837.1511641"
"Blocked","Female","cave","9","F_cad.wav","space","568.197220447","238","46927.5903455","53827.4537544","54593.4588396","55360.1876906","41493.9510992","42260.6963362","43027.3834493","43794.3738576","47694.174196","48460.6968309","49227.6090193","49994.439587","50761.1906981","51527.0241944","52294.1441446","53060.8850532","54602.7750433"
"Blocked","Female","cave","9","F_cad.wav","None","721.369361039","238","46927.5903455","53827.4537544","54593.4588396","55360.1876906","56126.7783428","42260.6963362","43027.3834493","43794.3738576","47694.174196","48460.6968309","49227.6090193","49994.439587","50761.1906981","51527.0241944","52294.1441446","53060.8850532","55368.9835621"
"Blocked","Female","cave","9","F_cad.wav","None","721.482517081","238","46927.5903455","53827.4537544","54593.4588396","55360.1876906","56126.7783428","56893.4574175","43027.3834493","43794.3738576","47694.174196","48460.6968309","49227.6090193","49994.439587","50761.1906981","51527.0241944","52294.1441446","53060.8850532","56135.6731484"
"Blocked","Female","cave","9","F_lash.wav","None","721.284648636","238","46927.5903455","53827.4537544","54593.4588396","55360.1876906","56126.7783428","56893.4574175","57660.3999045","43794.3738576","47694.174196","48460.6968309","49227.6090193","49994.439587","50761.1906981","51527.0241944","52294.1441446","53060.8850532","56902.3073936"
"Blocked","Female","cave","9","F_jaw.wav","None","720.561192022","238","46927.5903455","53827.4537544","54593.4588396","55360.1876906","56126.7783428","56893.4574175","57660.3999045","58427.3025087","47694.174196","48460.6968309","49227.6090193","49994.439587","50761.1906981","51527.0241944","52294.1441446","53060.8850532","57669.6511826"
"Blocked","Female","tile","13","F_park.wav","None","719.6259544","238","61560.6098924","53827.4537544","54593.4588396","55360.1876906","56126.7783428","56893.4574175","57660.3999045","58427.3025087","47694.174196","48460.6968309","49227.6090193","49994.439587","50761.1906981","51527.0241944","52294.1441446","53060.8850532","58437.055878"
"Blocked","Female","tile","13","F_park.wav","None","722.711465671","238","61560.6098924","53827.4537544","54593.4588396","55360.1876906","56126.7783428","56893.4574175","57660.3999045","58427.3025087","62327.1328364","48460.6968309","49227.6090193","49994.439587","50761.1906981","51527.0241944","52294.1441446","53060.8850532","61570.6906723"
"Blocked","Female","tile","13","F_tile.wav","None","723.237981438","238","61560.6098924","53827.4537544","54593.4588396","55360.1876906","56126.7783428","56893.4574175","57660.3999045","58427.3025087","62327.1328364","63094.1445775","49227.6090193","49994.439587","50761.1906981","51527.0241944","52294.1441446","53060.8850532","62336.9282528"
"Blocked","Female","tile","13","F_dime.wav","space","362.813466927","238","61560.6098924","53827.4537544","54593.4588396","55360.1876906","56126.7783428","56893.4574175","57660.3999045","58427.3025087","62327.1328364","63094.1445775","63860.5741524","49994.439587","50761.1906981","51527.0241944","52294.1441446","53060.8850532","63103.901966"
"Blocked","Female","tile","13","F_reek.wav","None","722.939942032","238","61560.6098924","53827.4537544","54593.4588396","55360.1876906","56126.7783428","56893.4574175","57660.3999045","58427.3025087","62327.1328364","63094.1445775","63860.5741524","64626.4042477","50761.1906981","51527.0241944","52294.1441446","53060.8850532","63870.3469994"
"Blocked","Female","tile","13","F_tile.wav","None","724.922955036","238","61560.6098924","53827.4537544","54593.4588396","55360.1876906","56126.7783428","56893.4574175","57660.3999045","58427.3025087","62327.1328364","63094.1445775","63860.5741524","64626.4042477","65392.9318293","51527.0241944","52294.1441446","53060.8850532","64635.6827327"
"Blocked","Female","tile","13","F_gnash.wav","space","424.935507239","238","61560.6098924","53827.4537544","54593.4588396","55360.1876906","56126.7783428","56893.4574175","57660.3999045","58427.3025087","62327.1328364","63094.1445775","63860.5741524","64626.4042477","65392.9318293","66159.8641138","52294.1441446","53060.8850532","65401.6782338"
"Blocked","Female","tile","13","F_dime.wav","None","724.724158994","238","61560.6098924","53827.4537544","54593.4588396","55360.1876906","56126.7783428","56893.4574175","57660.3999045","58427.3025087","62327.1328364","63094.1445775","63860.5741524","64626.4042477","65392.9318293","66159.8641138","66926.5400968","53060.8850532","66168.7474803"
"Blocked","Female","tile","13","F_cad.wav","None","724.726941437","238","61560.6098924","53827.4537544","54593.4588396","55360.1876906","56126.7783428","56893.4574175","57660.3999045","58427.3025087","62327.1328364","63094.1445775","63860.5741524","64626.4042477","65392.9318293","66159.8641138","66926.5400968","67693.6937466","66935.4747854"
"Blocked","Female","tile","13","F_knife.wav","None","723.342171405","238","61560.6098924","68460.0778735","54593.4588396","55360.1876906","56126.7783428","56893.4574175","57660.3999045","58427.3025087","62327.1328364","63094.1445775","63860.5741524","64626.4042477","65392.9318293","66159.8641138","66926.5400968","67693.6937466","67703.6193233"
"Blocked","Female","tile","13","F_tile.wav","None","725.037038559","238","61560.6098924","68460.0778735","69226.2622771","55360.1876906","56126.7783428","56893.4574175","57660.3999045","58427.3025087","62327.1328364","63094.1445775","63860.5741524","64626.4042477","65392.9318293","66159.8641138","66926.5400968","67693.6937466","68469.0555367"
"Blocked","Female","tile","13","F_depth.wav","space","519.494062639","238","61560.6098924","68460.0778735","69226.2622771","69993.5380488","56126.7783428","56893.4574175","57660.3999045","58427.3025087","62327.1328364","63094.1445775","63860.5741524","64626.4042477","65392.9318293","66159.8641138","66926.5400968","67693.6937466","69235.0018797"
"Blocked","Female","tile","13","F_jaw.wav","None","724.337387946","238","61560.6098924","68460.0778735","69226.2622771","69993.5380488","70759.944436","56893.4574175","57660.3999045","58427.3025087","62327.1328364","63094.1445775","63860.5741524","64626.4042477","65392.9318293","66159.8641138","66926.5400968","67693.6937466","70003.0397542"
"Blocked","Female","tile","13","F_priest.wav","None","725.198424887","238","61560.6098924","68460.0778735","69226.2622771","69993.5380488","70759.944436","71526.0017709","57660.3999045","58427.3025087","62327.1328364","63094.1445775","63860.5741524","64626.4042477","65392.9318293","66159.8641138","66926.5400968","67693.6937466","70768.8472802"
"Blocked","Female","tile","13","F_tile.wav","None","727.803796064","238","61560.6098924","68460.0778735","69226.2622771","69993.5380488","70759.944436","71526.0017709","72292.9795033","58427.3025087","62327.1328364","63094.1445775","63860.5741524","64626.4042477","65392.9318293","66159.8641138","66926.5400968","67693.6937466","71534.8365977"
"Blocked","Female","tile","13","F_dime.wav","space","468.567049014","238","61560.6098924","68460.0778735","69226.2622771","69993.5380488","70759.944436","71526.0017709","72292.9795033","73059.9198261","62327.1328364","63094.1445775","63860.5741524","64626.4042477","65392.9318293","66159.8641138","66926.5400968","67693.6937466","72301.8341169"
"Blocked","Female","ball","1","F_knife.wav","None","726.817545481","238","76193.5493645","68460.0778735","69226.2622771","69993.5380488","70759.944436","71526.0017709","72292.9795033","73059.9198261","62327.1328364","63094.1445775","63860.5741524","64626.4042477","65392.9318293","66159.8641138","66926.5400968","67693.6937466","73068.9753999"
"Blocked","Female","ball","1","F_cling.wav","None","722.687041387","238","76193.5493645","68460.0778735","69226.2622771","69993.5380488","70759.944436","71526.0017709","72292.9795033","73059.9198261","76960.2355501","63094.1445775","63860.5741524","64626.4042477","65392.9318293","66159.8641138","66926.5400968","67693.6937466","76203.4270199"
"Blocked","Female","ball","1","F_ball.wav","None","722.688587266","238","76193.5493645","68460.0778735","69226.2622771","69993.5380488","70759.944436","71526.0017709","72292.9795033","73059.9198261","76960.2355501","77727.0104672","63860.5741524","64626.4042477","65392.9318293","66159.8641138","66926.5400968","67693.6937466","76969.8330979"
"Blocked","Female","ball","1","F_priest.wav","space","337.190428632","238","76193.5493645","68460.0778735","69226.2622771","69993.5380488","70759.944436","71526.0017709","72292.9795033","73059.9198261","76960.2355501","77727.0104672","78492.7589417","64626.4042477","65392.9318293","66159.8641138","66926.5400968","67693.6937466","77737.0649676"
"Blocked","Female","ball","1","F_depth.wav","None","724.512996268","238","76193.5493645","68460.0778735","69226.2622771","69993.5380488","70759.944436","71526.0017709","72292.9795033","73059.9198261","76960.2355501","77727.0104672","78492.7589417","79259.2886876","65392.9318293","66159.8641138","66926.5400968","67693.6937466","78501.6231397"
"Blocked","Female","ball","1","F_knife.wav","None","725.522125489","238","76193.5493645","68460.0778735","69226.2622771","69993.5380488","70759.944436","71526.0017709","72292.9795033","73059.9198261","76960.2355501","77727.0104672","78492.7589417","79259.2886876","80026.2753859","66159.8641138","66926.5400968","67693.6937466","79268.0762114"
"Blocked","Female","ball","1","F_ball.wav","None","725.137518602","238","76193.5493645","68460.0778735","69226.2622771","69993.5380488","70759.944436","71526.0017709","72292.9795033","73059.9198261","76960.2355501","77727.0104672","78492.7589417","79259.2886876","80026.2753859","80793.0274245","66926.5400968","67693.6937466","80035.3080812"
"Blocked","Female","ball","1","F_knife.wav","space","327.882572426","238","76193.5493645","68460.0778735","69226.2622771","69993.5380488","70759.944436","71526.0017709","72292.9795033","73059.9198261","76960.2355501","77727.0104672","78492.7589417","79259.2886876","80026.2753859","80793.0274245","81559.2446","67693.6937466","80802.3086921"
"Blocked","Female","ball","1","F_cad.wav","None","725.681038573","238","76193.5493645","68460.0778735","69226.2622771","69993.5380488","70759.944436","71526.0017709","72292.9795033","73059.9198261","76960.2355501","77727.0104672","78492.7589417","79259.2886876","80026.2753859","80793.0274245","81559.2446","82325.8460731","81568.2401949"
"Blocked","Female","ball","1","F_ball.wav","None","724.956345279","238","76193.5493645","83092.9715885","69226.2622771","69993.5380488","70759.944436","71526.0017709","72292.9795033","73059.9198261","76960.2355501","77727.0104672","78492.7589417","79259.2886876","80026.2753859","80793.0274245","81559.2446","82325.8460731","82335.5079283"
"Blocked","Female","ball","1","F_jolt.wav","space","355.799957528","238","76193.5493645","83092.9715885","83859.9409733","69993.5380488","70759.944436","71526.0017709","72292.9795033","73059.9198261","76960.2355501","77727.0104672","78492.7589417","79259.2886876","80026.2753859","80793.0274245","81559.2446","82325.8460731","83102.3066515"
"Blocked","Female","ball","1","F_ball.wav","None","723.948452738","238","76193.5493645","83092.9715885","83859.9409733","84626.2159635","70759.944436","71526.0017709","72292.9795033","73059.9198261","76960.2355501","77727.0104672","78492.7589417","79259.2886876","80026.2753859","80793.0274245","81559.2446","82325.8460731","83869.5264637"
"Blocked","Female","ball","1","F_romp.wav","space","390.473622829","238","76193.5493645","83092.9715885","83859.9409733","84626.2159635","85392.3379148","71526.0017709","72292.9795033","73059.9198261","76960.2355501","77727.0104672","78492.7589417","79259.2886876","80026.2753859","80793.0274245","81559.2446","82325.8460731","84635.5745235"
"Blocked","Female","ball","1","F_romp.wav","None","725.246346206","238","76193.5493645","83092.9715885","83859.9409733","84626.2159635","85392.3379148","86160.2326438","72292.9795033","73059.9198261","76960.2355501","77727.0104672","78492.7589417","79259.2886876","80026.2753859","80793.0274245","81559.2446","82325.8460731","85401.0803"
"Blocked","Female","ball","1","F_done.wav","None","723.159761517","238","76193.5493645","83092.9715885","83859.9409733","84626.2159635","85392.3379148","86160.2326438","86926.3360449","73059.9198261","76960.2355501","77727.0104672","78492.7589417","79259.2886876","80026.2753859","80793.0274245","81559.2446","82325.8460731","86170.1492546"
"Blocked","Female","ball","1","F_park.wav","None","724.836387555","238","76193.5493645","83092.9715885","83859.9409733","84626.2159635","85392.3379148","86160.2326438","86926.3360449","87692.340821","76960.2355501","77727.0104672","78492.7589417","79259.2886876","80026.2753859","80793.0274245","81559.2446","82325.8460731","86935.4135698"
"Blocked","Female","cave","7","F_tile.wav","None","725.8857087","238","90826.4325677","83092.9715885","83859.9409733","84626.2159635","85392.3379148","86160.2326438","86926.3360449","87692.340821","76960.2355501","77727.0104672","78492.7589417","79259.2886876","80026.2753859","80793.0274245","81559.2446","82325.8460731","87701.3132282"
"Blocked","Female","cave","7","F_cave.wav","None","722.677766345","238","90826.4325677","83092.9715885","83859.9409733","84626.2159635","85392.3379148","86160.2326438","86926.3360449","87692.340821","91593.2393293","77727.0104672","78492.7589417","79259.2886876","80026.2753859","80793.0274245","81559.2446","82325.8460731","90835.8736758"
"Blocked","Female","cave","7","F_cling.wav","space","444.135240628","238","90826.4325677","83092.9715885","83859.9409733","84626.2159635","85392.3379148","86160.2326438","86926.3360449","87692.340821","91593.2393293","92359.0944674","78492.7589417","79259.2886876","80026.2753859","80793.0274245","81559.2446","82325.8460731","91597.6941523"
"Blocked","Female","cave","7","F_ball.wav","None","724.207845982","238","90826.4325677","83092.9715885","83859.9409733","84626.2159635","85392.3379148","86160.2326438","86926.3360449","87692.340821","91593.2393293","92359.0944674","93125.7008872","79259.2886876","80026.2753859","80793.0274245","81559.2446","82325.8460731","92367.914454"
"Blocked","Female","cave","7","F_cad.wav","None","724.155287142","238","90826.4325677","83092.9715885","83859.9409733","84626.2159635","85392.3379148","86160.2326438","86926.3360449","87692.340821","91593.2393293","92359.0944674","93125.7008872","93892.4074779","80026.2753859","80793.0274245","81559.2446","82325.8460731","93134.7502776"
"Blocked","Female","cave","7","F_jolt.wav","None","724.450853188","238","90826.4325677","83092.9715885","83859.9409733","84626.2159635","85392.3379148","86160.2326438","86926.3360449","87692.340821","91593.2393293","92359.0944674","93125.7008872","93892.4074779","94659.0423414","80793.0274245","81559.2446","82325.8460731","93901.2116969"
"Blocked","Female","cave","7","F_dime.wav","None","724.331513746","238","90826.4325677","83092.9715885","83859.9409733","84626.2159635","85392.3379148","86160.2326438","86926.3360449","87692.340821","91593.2393293","92359.0944674","93125.7008872","93892.4074779","94659.0423414","95425.6212451","81559.2446","82325.8460731","94668.0583415"
"Blocked","Female","cave","7","F_greet.wav","None","724.625224713","238","90826.4325677","83092.9715885","83859.9409733","84626.2159635","85392.3379148","86160.2326438","86926.3360449","87692.340821","91593.2393293","92359.0944674","93125.7008872","93892.4074779","94659.0423414","95425.6212451","96192.0746261","82325.8460731","95434.6820748"
"Blocked","Female","cave","7","F_gnash.wav","None","725.257785525","238","90826.4325677","83092.9715885","83859.9409733","84626.2159635","85392.3379148","86160.2326438","86926.3360449","87692.340821","91593.2393293","92359.0944674","93125.7008872","93892.4074779","94659.0423414","95425.6212451","96192.0746261","96959.3977007","96200.8074269"
"Blocked","Female","cave","7","F_gnash.wav","None","723.469858407","238","90826.4325677","97725.8322224","83859.9409733","84626.2159635","85392.3379148","86160.2326438","86926.3360449","87692.340821","91593.2393293","92359.0944674","93125.7008872","93892.4074779","94659.0423414","95425.6212451","96192.0746261","96959.3977007","96969.3310068"
"Blocked","Female","cave","7","F_cave.wav","None","724.824948236","238","90826.4325677","97725.8322224","98491.9418069","84626.2159635","85392.3379148","86160.2326438","86926.3360449","87692.340821","91593.2393293","92359.0944674","93125.7008872","93892.4074779","94659.0423414","95425.6212451","96192.0746261","96959.3977007","97735.1029782"
"Blocked","Female","cave","7","F_knife.wav","space","420.923724188","238","90826.4325677","97725.8322224","98491.9418069","99258.7130141","85392.3379148","86160.2326438","86926.3360449","87692.340821","91593.2393293","92359.0944674","93125.7008872","93892.4074779","94659.0423414","95425.6212451","96192.0746261","96959.3977007","98500.7265483"
"Blocked","Female","cave","7","F_cave.wav","None","725.92744662","238","90826.4325677","97725.8322224","98491.9418069","99258.7130141","100025.288208","86160.2326438","86926.3360449","87692.340821","91593.2393293","92359.0944674","93125.7008872","93892.4074779","94659.0423414","95425.6212451","96192.0746261","96959.3977007","99267.5237256"
"Blocked","Female","cave","7","F_jolt.wav","space","663.456972339","238","90826.4325677","97725.8322224","98491.9418069","99258.7130141","100025.288208","100792.369203","86926.3360449","87692.340821","91593.2393293","92359.0944674","93125.7008872","93892.4074779","94659.0423414","95425.6212451","96192.0746261","96959.3977007","100034.132619"
"Blocked","Female","cave","7","F_cave.wav","None","725.096399081","238","90826.4325677","97725.8322224","98491.9418069","99258.7130141","100025.288208","100792.369203","101559.026326","87692.340821","91593.2393293","92359.0944674","93125.7008872","93892.4074779","94659.0423414","95425.6212451","96192.0746261","96959.3977007","100801.64676"
"Blocked","Female","cave","7","F_done.wav","space","609.424660332","238","90826.4325677","97725.8322224","98491.9418069","99258.7130141","100025.288208","100792.369203","101559.026326","102325.635838","91593.2393293","92359.0944674","93125.7008872","93892.4074779","94659.0423414","95425.6212451","96192.0746261","96959.3977007","101568.122711"
"Blocked","Female","tile","15","F_cave.wav","None","725.383308367","238","105459.310515","97725.8322224","98491.9418069","99258.7130141","100025.288208","100792.369203","101559.026326","102325.635838","91593.2393293","92359.0944674","93125.7008872","93892.4074779","94659.0423414","95425.6212451","96192.0746261","96959.3977007","102334.990379"
"Blocked","Female","tile","15","F_priest.wav","None","723.280337523","238","105459.310515","97725.8322224","98491.9418069","99258.7130141","100025.288208","100792.369203","101559.026326","102325.635838","106225.649812","92359.0944674","93125.7008872","93892.4074779","94659.0423414","95425.6212451","96192.0746261","96959.3977007","105468.923831"
"Blocked","Female","tile","15","F_jaw.wav","None","724.090361618","238","105459.310515","97725.8322224","98491.9418069","99258.7130141","100025.288208","100792.369203","101559.026326","102325.635838","106225.649812","106992.287458","93125.7008872","93892.4074779","94659.0423414","95425.6212451","96192.0746261","96959.3977007","106235.012082"
"Blocked","Female","tile","15","F_tile.wav","None","730.346714961","238","105459.310515","97725.8322224","98491.9418069","99258.7130141","100025.288208","100792.369203","101559.026326","102325.635838","106225.649812","106992.287458","107758.854923","93892.4074779","94659.0423414","95425.6212451","96192.0746261","96959.3977007","106995.986671"
"Blocked","Female","tile","15","F_priest.wav","space","521.629805444","238","105459.310515","97725.8322224","98491.9418069","99258.7130141","100025.288208","100792.369203","101559.026326","102325.635838","106225.649812","106992.287458","107758.854923","108525.488859","94659.0423414","95425.6212451","96192.0746261","96959.3977007","107767.706754"
"Blocked","Female","tile","15","F_cling.wav","None","724.540512427","238","105459.310515","97725.8322224","98491.9418069","99258.7130141","100025.288208","100792.369203","101559.026326","102325.635838","106225.649812","106992.287458","107758.854923","108525.488859","109292.114756","95425.6212451","96192.0746261","96959.3977007","108535.042505"
"Blocked","Female","tile","15","F_tile.wav","None","724.799905554","238","105459.310515","97725.8322224","98491.9418069","99258.7130141","100025.288208","100792.369203","101559.026326","102325.635838","106225.649812","106992.287458","107758.854923","108525.488859","109292.114756","110058.402732","96192.0746261","96959.3977007","109301.790524"
"Blocked","Female","tile","15","F_knife.wav","space","342.09849406","238","105459.310515","97725.8322224","98491.9418069","99258.7130141","100025.288208","100792.369203","101559.026326","102325.635838","106225.649812","106992.287458","107758.854923","108525.488859","109292.114756","110058.402732","110825.382628","96959.3977007","110067.188091"
"Blocked","Female","tile","15","F_tile.wav","space","0.0395737588406","238","105459.310515","97725.8322224","98491.9418069","99258.7130141","100025.288208","100792.369203","101559.026326","102325.635838","106225.649812","106992.287458","107758.854923","108525.488859","109292.114756","110058.402732","110825.382628","111591.691009","110834.83363"
"Blocked","Female","tile","15","F_park.wav","space","528.510372038","238","105459.310515","112358.327109","98491.9418069","99258.7130141","100025.288208","100792.369203","101559.026326","102325.635838","106225.649812","106992.287458","107758.854923","108525.488859","109292.114756","110058.402732","110825.382628","111591.691009","111600.715047"
"Blocked","Female","tile","15","F_cling.wav","None","725.999483024","238","105459.310515","112358.327109","113124.907868","99258.7130141","100025.288208","100792.369203","101559.026326","102325.635838","106225.649812","106992.287458","107758.854923","108525.488859","109292.114756","110058.402732","110825.382628","111591.691009","112367.045379"
"Blocked","Female","tile","15","F_gnash.wav","None","726.370177232","238","105459.310515","112358.327109","113124.907868","113891.985462","100025.288208","100792.369203","101559.026326","102325.635838","106225.649812","106992.287458","107758.854923","108525.488859","109292.114756","110058.402732","110825.382628","111591.691009","113133.654581"
"Blocked","Female","tile","15","F_greet.wav","None","725.601581973","238","105459.310515","112358.327109","113124.907868","113891.985462","114658.265089","100792.369203","101559.026326","102325.635838","106225.649812","106992.287458","107758.854923","108525.488859","109292.114756","110058.402732","110825.382628","111591.691009","113901.428425"
"Blocked","Female","tile","15","F_tile.wav","None","727.129806648","238","105459.310515","112358.327109","113124.907868","113891.985462","114658.265089","115425.622173","101559.026326","102325.635838","106225.649812","106992.287458","107758.854923","108525.488859","109292.114756","110058.402732","110825.382628","111591.691009","114667.085076"
"Blocked","Female","tile","15","F_ball.wav","space","486.446937895","238","105459.310515","112358.327109","113124.907868","113891.985462","114658.265089","115425.622173","116191.436191","102325.635838","106225.649812","106992.287458","107758.854923","108525.488859","109292.114756","110058.402732","110825.382628","111591.691009","115434.644047"
"Blocked","Female","tile","15","F_depth.wav","None","728.010012186","238","105459.310515","112358.327109","113124.907868","113891.985462","114658.265089","115425.622173","116191.436191","116958.568817","106225.649812","106992.287458","107758.854923","108525.488859","109292.114756","110058.402732","110825.382628","111591.691009","116200.197745"
"Blocked","Female","done","20","F_gnash.wav","None","727.71475534","238","120092.261735","112358.327109","113124.907868","113891.985462","114658.265089","115425.622173","116191.436191","116958.568817","106225.649812","106992.287458","107758.854923","108525.488859","109292.114756","110058.402732","110825.382628","111591.691009","116967.588837"
"Blocked","Female","done","20","F_greet.wav","None","721.166855074","238","120092.261735","112358.327109","113124.907868","113891.985462","114658.265089","115425.622173","116191.436191","116958.568817","120858.319689","106992.287458","107758.854923","108525.488859","109292.114756","110058.402732","110825.382628","111591.691009","120102.18793"
"Blocked","Female","done","20","F_jaw.wav","None","728.327529156","238","120092.261735","112358.327109","113124.907868","113891.985462","114658.265089","115425.622173","116191.436191","116958.568817","120858.319689","121624.837995","107758.854923","108525.488859","109292.114756","110058.402732","110825.382628","111591.691009","120862.012409"
"Blocked","Female","done","20","F_knife.wav","None","724.427974666","238","120092.261735","112358.327109","113124.907868","113891.985462","114658.265089","115425.622173","116191.436191","116958.568817","120858.319689","121624.837995","122391.525108","108525.488859","109292.114756","110058.402732","110825.382628","111591.691009","121633.676223"
"Blocked","Female","done","20","F_done.wav","None","724.647484953","238","120092.261735","112358.327109","113124.907868","113891.985462","114658.265089","115425.622173","116191.436191","116958.568817","120858.319689","121624.837995","122391.525108","123157.992402","109292.114756","110058.402732","110825.382628","111591.691009","122400.442174"
"Blocked","Female","done","20","F_knife.wav","space","306.200208259","238","120092.261735","112358.327109","113124.907868","113891.985462","114658.265089","115425.622173","116191.436191","116958.568817","120858.319689","121624.837995","122391.525108","123157.992402","123924.766082","110058.402732","110825.382628","111591.691009","123166.693667"
"Blocked","Female","done","20","F_done.wav","None","724.471567548","238","120092.261735","112358.327109","113124.907868","113891.985462","114658.265089","115425.622173","116191.436191","116958.568817","120858.319689","121624.837995","122391.525108","123157.992402","123924.766082","124691.950649","110825.382628","111591.691009","123933.908224"
"Blocked","Female","done","20","F_depth.wav","space","378.871110966","238","120092.261735","112358.327109","113124.907868","113891.985462","114658.265089","115425.622173","116191.436191","116958.568817","120858.319689","121624.837995","122391.525108","123157.992402","123924.766082","124691.950649","125458.643636","111591.691009","124701.988454"
"Blocked","Female","done","20","F_done.wav","None","722.427957342","238","120092.261735","112358.327109","113124.907868","113891.985462","114658.265089","115425.622173","116191.436191","116958.568817","120858.319689","121624.837995","122391.525108","123157.992402","123924.766082","124691.950649","125458.643636","126225.416699","125468.926922"
"Blocked","Female","done","20","F_cling.wav","space","309.900348424","238","120092.261735","126992.091754","113124.907868","113891.985462","114658.265089","115425.622173","116191.436191","116958.568817","120858.319689","121624.837995","122391.525108","123157.992402","123924.766082","124691.950649","125458.643636","126225.416699","126234.911911"
"Blocked","Female","done","20","F_cling.wav","None","723.26178744","238","120092.261735","126992.091754","127758.242767","113891.985462","114658.265089","115425.622173","116191.436191","116958.568817","120858.319689","121624.837995","122391.525108","123157.992402","123924.766082","124691.950649","125458.643636","126225.416699","127001.635816"
"Blocked","Female","done","20","F_done.wav","None","725.118350121","238","120092.261735","126992.091754","127758.242767","128524.423152","114658.265089","115425.622173","116191.436191","116958.568817","120858.319689","121624.837995","122391.525108","123157.992402","123924.766082","124691.950649","125458.643636","126225.416699","127767.166017"
"Blocked","Female","done","20","F_park.wav","space","395.026452607","238","120092.261735","126992.091754","127758.242767","128524.423152","129291.940694","115425.622173","116191.436191","116958.568817","120858.319689","121624.837995","122391.525108","123157.992402","123924.766082","124691.950649","125458.643636","126225.416699","128533.692671"
"Blocked","Female","done","20","F_priest.wav","None","723.713793093","238","120092.261735","126992.091754","127758.242767","128524.423152","129291.940694","130058.379235","116191.436191","116958.568817","120858.319689","121624.837995","122391.525108","123157.992402","123924.766082","124691.950649","125458.643636","126225.416699","129301.601622"
"Blocked","Female","done","20","F_lash.wav","None","724.578849389","238","120092.261735","126992.091754","127758.242767","128524.423152","129291.940694","130058.379235","130824.40287","116958.568817","120858.319689","121624.837995","122391.525108","123157.992402","123924.766082","124691.950649","125458.643636","126225.416699","130067.819106"
"Blocked","Female","done","20","F_gnash.wav","None","726.526307873","238","120092.261735","126992.091754","127758.242767","128524.423152","129291.940694","130058.379235","130824.40287","131591.538897","120858.319689","121624.837995","122391.525108","123157.992402","123924.766082","124691.950649","125458.643636","126225.416699","130833.144019"
"Blocked","Female","tile","16","F_done.wav","None","726.009685663","238","134725.09609","126992.091754","127758.242767","128524.423152","129291.940694","130058.379235","130824.40287","131591.538897","120858.319689","121624.837995","122391.525108","123157.992402","123924.766082","124691.950649","125458.643636","126225.416699","131600.933939"
"Blocked","Female","tile","16","F_jolt.wav","None","722.726615029","238","134725.09609","126992.091754","127758.242767","128524.423152","129291.940694","130058.379235","130824.40287","131591.538897","135491.645932","121624.837995","122391.525108","123157.992402","123924.766082","124691.950649","125458.643636","126225.416699","134734.731047"
"Blocked","Female","tile","16","F_dime.wav","None","722.899131593","238","134725.09609","126992.091754","127758.242767","128524.423152","129291.940694","130058.379235","130824.40287","131591.538897","135491.645932","136258.370454","122391.525108","123157.992402","123924.766082","124691.950649","125458.643636","126225.416699","135501.486487"
"Blocked","Female","tile","16","F_tile.wav","None","723.392256885","238","134725.09609","126992.091754","127758.242767","128524.423152","129291.940694","130058.379235","130824.40287","131591.538897","135491.645932","136258.370454","137024.254963","123157.992402","123924.766082","124691.950649","125458.643636","126225.416699","136268.157832"
"Blocked","Female","tile","16","F_park.wav","space","471.446035081","238","134725.09609","126992.091754","127758.242767","128524.423152","129291.940694","130058.379235","130824.40287","131591.538897","135491.645932","136258.370454","137024.254963","137790.786255","123924.766082","124691.950649","125458.643636","126225.416699","137033.02641"
"Blocked","Female","tile","16","F_greet.wav","None","725.568500813","238","134725.09609","126992.091754","127758.242767","128524.423152","129291.940694","130058.379235","130824.40287","131591.538897","135491.645932","136258.370454","137024.254963","137790.786255","138557.521289","124691.950649","125458.643636","126225.416699","137799.546572"
"Blocked","Female","tile","16","F_tile.wav","None","725.636827294","238","134725.09609","126992.091754","127758.242767","128524.423152","129291.940694","130058.379235","130824.40287","131591.538897","135491.645932","136258.370454","137024.254963","137790.786255","138557.521289","139324.627945","125458.643636","126225.416699","138566.525232"
"Blocked","Female","tile","16","F_knife.wav","space","402.879666304","238","134725.09609","126992.091754","127758.242767","128524.423152","129291.940694","130058.379235","130824.40287","131591.538897","135491.645932","136258.370454","137024.254963","137790.786255","138557.521289","139324.627945","140091.31073","126225.416699","139333.538519"
"Blocked","Female","tile","16","F_reek.wav","None","725.423191208","238","134725.09609","126992.091754","127758.242767","128524.423152","129291.940694","130058.379235","130824.40287","131591.538897","135491.645932","136258.370454","137024.254963","137790.786255","138557.521289","139324.627945","140091.31073","140857.509974","140100.60591"
"Blocked","Female","tile","16","F_tile.wav","None","726.367394789","238","134725.09609","141624.052705","127758.242767","128524.423152","129291.940694","130058.379235","130824.40287","131591.538897","135491.645932","136258.370454","137024.254963","137790.786255","138557.521289","139324.627945","140091.31073","140857.509974","140866.879664"
"Blocked","Female","tile","16","F_cave.wav","space","463.167094975","238","134725.09609","141624.052705","142390.698389","128524.423152","129291.940694","130058.379235","130824.40287","131591.538897","135491.645932","136258.370454","137024.254963","137790.786255","138557.521289","139324.627945","140091.31073","140857.509974","141633.178151"
"Blocked","Female","tile","16","F_gnash.wav","None","727.370340494","238","134725.09609","141624.052705","142390.698389","143157.386121","129291.940694","130058.379235","130824.40287","131591.538897","135491.645932","136258.370454","137024.254963","137790.786255","138557.521289","139324.627945","140091.31073","140857.509974","142399.368738"
"Blocked","Female","tile","16","F_gnash.wav","None","727.638081182","238","134725.09609","141624.052705","142390.698389","143157.386121","143924.425687","130058.379235","130824.40287","131591.538897","135491.645932","136258.370454","137024.254963","137790.786255","138557.521289","139324.627945","140091.31073","140857.509974","143166.331012"
"Blocked","Female","tile","16","F_reek.wav","None","727.367867134","238","134725.09609","141624.052705","142390.698389","143157.386121","143924.425687","144690.598033","130824.40287","131591.538897","135491.645932","136258.370454","137024.254963","137790.786255","138557.521289","139324.627945","140091.31073","140857.509974","143933.835569"
"Blocked","Female","tile","16","F_tile.wav","None","728.272187756","238","134725.09609","141624.052705","142390.698389","143157.386121","143924.425687","144690.598033","145457.723857","131591.538897","135491.645932","136258.370454","137024.254963","137790.786255","138557.521289","139324.627945","140091.31073","140857.509974","144700.091391"
"Blocked","Female","tile","16","F_priest.wav","space","405.500186724","238","134725.09609","141624.052705","142390.698389","143157.386121","143924.425687","144690.598033","145457.723857","146224.338934","135491.645932","136258.370454","137024.254963","137790.786255","138557.521289","139324.627945","140091.31073","140857.509974","145466.729655"
"Blocked","Female","done","22","F_jaw.wav","None","728.214064031","238","149358.052566","141624.052705","142390.698389","143157.386121","143924.425687","144690.598033","145457.723857","146224.338934","135491.645932","136258.370454","137024.254963","137790.786255","138557.521289","139324.627945","140091.31073","140857.509974","146233.962452"
"Blocked","Female","done","22","F_romp.wav","None","721.991100814","238","149358.052566","141624.052705","142390.698389","143157.386121","143924.425687","144690.598033","145457.723857","146224.338934","150124.582312","136258.370454","137024.254963","137790.786255","138557.521289","139324.627945","140091.31073","140857.509974","149368.243101"
"Blocked","Female","done","22","F_romp.wav","None","723.161925678","238","149358.052566","141624.052705","142390.698389","143157.386121","143924.425687","144690.598033","145457.723857","146224.338934","150124.582312","150890.450744","137024.254963","137790.786255","138557.521289","139324.627945","140091.31073","140857.509974","150134.3026"
"Blocked","Female","done","22","F_done.wav","None","725.589524372","238","149358.052566","141624.052705","142390.698389","143157.386121","143924.425687","144690.598033","145457.723857","146224.338934","150124.582312","150890.450744","151657.487528","137790.786255","138557.521289","139324.627945","140091.31073","140857.509974","150899.1146"
"Blocked","Female","done","22","F_bluff.wav","space","301.221652189","238","149358.052566","141624.052705","142390.698389","143157.386121","143924.425687","144690.598033","145457.723857","146224.338934","150124.582312","150890.450744","151657.487528","152423.726655","138557.521289","139324.627945","140091.31073","140857.509974","151666.824446"
"Blocked","Female","done","22","F_done.wav","None","725.146793644","238","149358.052566","141624.052705","142390.698389","143157.386121","143924.425687","144690.598033","145457.723857","146224.338934","150124.582312","150890.450744","151657.487528","152423.726655","153190.307723","139324.627945","140091.31073","140857.509974","152432.883018"
"Blocked","Female","done","22","F_lash.wav","space","480.824381812","238","149358.052566","141624.052705","142390.698389","143157.386121","143924.425687","144690.598033","145457.723857","146224.338934","150124.582312","150890.450744","151657.487528","152423.726655","153190.307723","153957.506511","140091.31073","140857.509974","153199.153989"
"Blocked","Female","done","22","F_gnash.wav","None","724.722304032","238","149358.052566","141624.052705","142390.698389","143157.386121","143924.425687","144690.598033","145457.723857","146224.338934","150124.582312","150890.450744","151657.487528","152423.726655","153190.307723","153957.506511","154723.667418","140857.509974","153966.486029"
"Blocked","Female","done","22","F_park.wav","None","725.992372259","238","149358.052566","141624.052705","142390.698389","143157.386121","143924.425687","144690.598033","145457.723857","146224.338934","150124.582312","150890.450744","151657.487528","152423.726655","153190.307723","153957.506511","154723.667418","155490.233646","154732.731648"
"Blocked","Female","done","22","F_tile.wav","None","726.514250273","238","149358.052566","156257.428724","142390.698389","143157.386121","143924.425687","144690.598033","145457.723857","146224.338934","150124.582312","150890.450744","151657.487528","152423.726655","153190.307723","153957.506511","154723.667418","155490.233646","155499.321991"
"Blocked","Female","done","22","F_done.wav","None","726.503738551","238","149358.052566","156257.428724","157023.683618","143157.386121","143924.425687","144690.598033","145457.723857","146224.338934","150124.582312","150890.450744","151657.487528","152423.726655","153190.307723","153957.506511","154723.667418","155490.233646","156266.602401"
"Blocked","Female","done","22","F_park.wav","space","335.16042179","238","149358.052566","156257.428724","157023.683618","157790.120304","143924.425687","144690.598033","145457.723857","146224.338934","150124.582312","150890.450744","151657.487528","152423.726655","153190.307723","153957.506511","154723.667418","155490.233646","157032.708275"
"Blocked","Female","done","22","F_done.wav","None","727.464018855","238","149358.052566","156257.428724","157023.683618","157790.120304","158556.905115","144690.598033","145457.723857","146224.338934","150124.582312","150890.450744","151657.487528","152423.726655","153190.307723","153957.506511","154723.667418","155490.233646","157798.901335"
"Blocked","Female","done","22","F_jaw.wav","space","585.904901964","238","149358.052566","156257.428724","157023.683618","157790.120304","158556.905115","159323.988274","145457.723857","146224.338934","150124.582312","150890.450744","151657.487528","152423.726655","153190.307723","153957.506511","154723.667418","155490.233646","158565.910294"
"Blocked","Female","done","22","F_romp.wav","None","726.301541668","238","149358.052566","156257.428724","157023.683618","157790.120304","158556.905115","159323.988274","160090.096003","146224.338934","150124.582312","150890.450744","151657.487528","152423.726655","153190.307723","153957.506511","154723.667418","155490.233646","159333.379915"
"Blocked","Female","done","22","F_cad.wav","None","728.279298753","238","149358.052566","156257.428724","157023.683618","157790.120304","158556.905115","159323.988274","160090.096003","160856.679854","150124.582312","150890.450744","151657.487528","152423.726655","153190.307723","153957.506511","154723.667418","155490.233646","160098.963293"
"Blocked","Female","cave","11","F_cad.wav","None","728.922989685","238","163991.080461","156257.428724","157023.683618","157790.120304","158556.905115","159323.988274","160090.096003","160856.679854","150124.582312","150890.450744","151657.487528","152423.726655","153190.307723","153957.506511","154723.667418","155490.233646","160865.695854"
"Blocked","Female","cave","11","F_jaw.wav","None","725.300141727","238","163991.080461","156257.428724","157023.683618","157790.120304","158556.905115","159323.988274","160090.096003","160856.679854","164757.464588","150890.450744","151657.487528","152423.726655","153190.307723","153957.506511","154723.667418","155490.233646","163998.59668"
"Blocked","Female","cave","11","F_knife.wav","None","723.195934319","238","163991.080461","156257.428724","157023.683618","157790.120304","158556.905115","159323.988274","160090.096003","160856.679854","164757.464588","165523.722883","151657.487528","152423.726655","153190.307723","153957.506511","154723.667418","155490.233646","164767.61524"
"Blocked","Female","cave","11","F_reek.wav","None","724.720448954","238","163991.080461","156257.428724","157023.683618","157790.120304","158556.905115","159323.988274","160090.096003","160856.679854","164757.464588","165523.722883","166290.339505","152423.726655","153190.307723","153957.506511","154723.667418","155490.233646","165533.176667"
"Blocked","Female","cave","11","F_cave.wav","None","723.564155051","238","163991.080461","156257.428724","157023.683618","157790.120304","158556.905115","159323.988274","160090.096003","160856.679854","164757.464588","165523.722883","166290.339505","167056.698589","153190.307723","153957.506511","154723.667418","155490.233646","166301.563903"
"Blocked","Female","cave","11","F_priest.wav","space","374.045593897","238","163991.080461","156257.428724","157023.683618","157790.120304","158556.905115","159323.988274","160090.096003","160856.679854","164757.464588","165523.722883","166290.339505","167056.698589","167823.628091","153957.506511","154723.667418","155490.233646","167065.546401"
"Blocked","Female","cave","11","F_cave.wav","None","725.911678863","238","163991.080461","156257.428724","157023.683618","157790.120304","158556.905115","159323.988274","160090.096003","160856.679854","164757.464588","165523.722883","166290.339505","167056.698589","167823.628091","168590.173296","154723.667418","155490.233646","167832.710563"
"Blocked","Female","cave","11","F_cad.wav","space","547.386404942","238","163991.080461","156257.428724","157023.683618","157790.120304","158556.905115","159323.988274","160090.096003","160856.679854","164757.464588","165523.722883","166290.339505","167056.698589","167823.628091","168590.173296","169356.592359","155490.233646","168604.142191"
"Blocked","Female","cave","11","F_lash.wav","None","726.645956398","238","163991.080461","156257.428724","157023.683618","157790.120304","158556.905115","159323.988274","160090.096003","160856.679854","164757.464588","165523.722883","166290.339505","167056.698589","167823.628091","168590.173296","169356.592359","170123.586168","169365.522719"
"Blocked","Female","cave","11","F_bluff.wav","None","726.74458148","238","163991.080461","170889.763151","157023.683618","157790.120304","158556.905115","159323.988274","160090.096003","160856.679854","164757.464588","165523.722883","166290.339505","167056.698589","167823.628091","168590.173296","169356.592359","170123.586168","170132.605569"
"Blocked","Female","cave","11","F_cave.wav","None","728.10647299","238","163991.080461","170889.763151","171656.54858","157790.120304","158556.905115","159323.988274","160090.096003","160856.679854","164757.464588","165523.722883","166290.339505","167056.698589","167823.628091","168590.173296","169356.592359","170123.586168","170898.506464"
"Blocked","Female","cave","11","F_greet.wav","space","317.900726921","238","163991.080461","170889.763151","171656.54858","172423.09935","158556.905115","159323.988274","160090.096003","160856.679854","164757.464588","165523.722883","166290.339505","167056.698589","167823.628091","168590.173296","169356.592359","170123.586168","171665.536755"
"Blocked","Female","cave","11","F_reek.wav","None","727.882325184","238","163991.080461","170889.763151","171656.54858","172423.09935","173190.140462","159323.988274","160090.096003","160856.679854","164757.464588","165523.722883","166290.339505","167056.698589","167823.628091","168590.173296","169356.592359","170123.586168","172432.210883"
"Blocked","Female","cave","11","F_dime.wav","None","727.648283821","238","163991.080461","170889.763151","171656.54858","172423.09935","173190.140462","173956.934548","160090.096003","160856.679854","164757.464588","165523.722883","166290.339505","167056.698589","167823.628091","168590.173296","169356.592359","170123.586168","173199.613414"
"Blocked","Female","cave","11","F_cave.wav","None","728.056078427","238","163991.080461","170889.763151","171656.54858","172423.09935","173190.140462","173956.934548","174723.479134","160856.679854","164757.464588","165523.722883","166290.339505","167056.698589","167823.628091","168590.173296","169356.592359","170123.586168","173966.328971"
"Blocked","Female","cave","11","F_lash.wav","space","426.346865948","238","163991.080461","170889.763151","171656.54858","172423.09935","173190.140462","173956.934548","174723.479134","175490.065766","164757.464588","165523.722883","166290.339505","167056.698589","167823.628091","168590.173296","169356.592359","170123.586168","174732.998771"
"Blocked","Female","done","24","F_lash.wav","None","728.349789395","238","178623.562362","170889.763151","171656.54858","172423.09935","173190.140462","173956.934548","174723.479134","175490.065766","164757.464588","165523.722883","166290.339505","167056.698589","167823.628091","168590.173296","169356.592359","170123.586168","175499.475958"
"Blocked","Female","done","24","F_priest.wav","None","722.667254508","238","178623.562362","170889.763151","171656.54858","172423.09935","173190.140462","173956.934548","174723.479134","175490.065766","179390.578122","165523.722883","166290.339505","167056.698589","167823.628091","168590.173296","169356.592359","170123.586168","178633.445892"
"Blocked","Female","done","24","F_reek.wav","None","722.82183927","238","178623.562362","170889.763151","171656.54858","172423.09935","173190.140462","173956.934548","174723.479134","175490.065766","179390.578122","180156.961013","166290.339505","167056.698589","167823.628091","168590.173296","169356.592359","170123.586168","179400.4026"
"Blocked","Female","done","24","F_done.wav","None","723.687822931","238","178623.562362","170889.763151","171656.54858","172423.09935","173190.140462","173956.934548","174723.479134","175490.065766","179390.578122","180156.961013","180923.312986","167056.698589","167823.628091","168590.173296","169356.592359","170123.586168","180166.897719"
"Blocked","Female","done","24","F_tile.wav","space","346.032675589","238","178623.562362","170889.763151","171656.54858","172423.09935","173190.140462","173956.934548","174723.479134","175490.065766","179390.578122","180156.961013","180923.312986","181690.032871","167823.628091","168590.173296","169356.592359","170123.586168","180933.098509"
"Blocked","Female","done","24","F_reek.wav","None","724.620587192","238","178623.562362","170889.763151","171656.54858","172423.09935","173190.140462","173956.934548","174723.479134","175490.065766","179390.578122","180156.961013","180923.312986","181690.032871","182456.593534","168590.173296","169356.592359","170123.586168","181699.530557"
"Blocked","Female","done","24","F_done.wav","None","726.069664583","238","178623.562362","170889.763151","171656.54858","172423.09935","173190.140462","173956.934548","174723.479134","175490.065766","179390.578122","180156.961013","180923.312986","181690.032871","182456.593534","183223.247566","169356.592359","170123.586168","182465.435162"
"Blocked","Female","done","24","F_priest.wav","space","390.465275268","238","178623.562362","170889.763151","171656.54858","172423.09935","173190.140462","173956.934548","174723.479134","175490.065766","179390.578122","180156.961013","180923.312986","181690.032871","182456.593534","183223.247566","183989.806064","170123.586168","183232.628077"
"Blocked","Female","done","24","F_priest.wav","None","725.827275659","238","178623.562362","170889.763151","171656.54858","172423.09935","173190.140462","173956.934548","174723.479134","175490.065766","179390.578122","180156.961013","180923.312986","181690.032871","182456.593534","183223.247566","183989.806064","184756.130212","183999.542429"
"Blocked","Female","done","24","F_cad.wav","None","728.034127387","238","178623.562362","185523.222337","171656.54858","172423.09935","173190.140462","173956.934548","174723.479134","175490.065766","179390.578122","180156.961013","180923.312986","181690.032871","182456.593534","183223.247566","183989.806064","184756.130212","184764.746147"
"Blocked","Female","done","24","F_done.wav","None","727.293048054","238","178623.562362","185523.222337","186289.797222","172423.09935","173190.140462","173956.934548","174723.479134","175490.065766","179390.578122","180156.961013","180923.312986","181690.032871","182456.593534","183223.247566","183989.806064","184756.130212","185532.60965"
"Blocked","Female","done","24","F_jolt.wav","space","291.989542544","238","178623.562362","185523.222337","186289.797222","187056.075922","173190.140462","173956.934548","174723.479134","175490.065766","179390.578122","180156.961013","180923.312986","181690.032871","182456.593534","183223.247566","183989.806064","184756.130212","186299.019747"
"Blocked","Female","done","24","F_done.wav","None","728.423062596","238","178623.562362","185523.222337","186289.797222","187056.075922","187822.989347","173956.934548","174723.479134","175490.065766","179390.578122","180156.961013","180923.312986","181690.032871","182456.593534","183223.247566","183989.806064","184756.130212","187065.003809"
"Blocked","Female","done","24","F_reek.wav","space","399.336893344","238","178623.562362","185523.222337","186289.797222","187056.075922","187822.989347","188589.817132","174723.479134","175490.065766","179390.578122","180156.961013","180923.312986","181690.032871","182456.593534","183223.247566","183989.806064","184756.130212","187831.641764"
"Blocked","Female","done","24","F_tile.wav","None","728.004447185","238","178623.562362","185523.222337","186289.797222","187056.075922","187822.989347","188589.817132","189356.062442","175490.065766","179390.578122","180156.961013","180923.312986","181690.032871","182456.593534","183223.247566","183989.806064","184756.130212","188599.42581"
"Blocked","Female","done","24","F_romp.wav","None","729.563897941","238","178623.562362","185523.222337","186289.797222","187056.075922","187822.989347","188589.817132","189356.062442","190122.582295","179390.578122","180156.961013","180923.312986","181690.032871","182456.593534","183223.247566","183989.806064","184756.130212","189365.434915"
"Blocked","Female","tile","17","F_romp.wav","None","730.998753337","238","193256.712997","185523.222337","186289.797222","187056.075922","187822.989347","188589.817132","189356.062442","190122.582295","179390.578122","180156.961013","180923.312986","181690.032871","182456.593534","183223.247566","183989.806064","184756.130212","190131.409392"
"Blocked","Female","tile","17","F_gnash.wav","None","723.437086446","238","193256.712997","185523.222337","186289.797222","187056.075922","187822.989347","188589.817132","189356.062442","190122.582295","194022.898637","180156.961013","180923.312986","181690.032871","182456.593534","183223.247566","183989.806064","184756.130212","193266.237581"
"Blocked","Female","tile","17","F_park.wav","None","724.133027019","238","193256.712997","185523.222337","186289.797222","187056.075922","187822.989347","188589.817132","189356.062442","190122.582295","194022.898637","194789.51866","180923.312986","181690.032871","182456.593534","183223.247566","183989.806064","184756.130212","194032.920365"
"Blocked","Female","tile","17","F_tile.wav","None","725.781209418","238","193256.712997","185523.222337","186289.797222","187056.075922","187822.989347","188589.817132","189356.062442","190122.582295","194022.898637","194789.51866","195555.795196","181690.032871","182456.593534","183223.247566","183989.806064","184756.130212","194798.861762"
"Blocked","Female","tile","17","F_ball.wav","space","257.900825818","238","193256.712997","185523.222337","186289.797222","187056.075922","187822.989347","188589.817132","189356.062442","190122.582295","194022.898637","194789.51866","195555.795196","196322.500241","182456.593534","183223.247566","183989.806064","184756.130212","195564.816761"
"Blocked","Female","tile","17","F_tile.wav","None","726.974294404","238","193256.712997","185523.222337","186289.797222","187056.075922","187822.989347","188589.817132","189356.062442","190122.582295","194022.898637","194789.51866","195555.795196","196322.500241","197089.572579","183223.247566","183989.806064","184756.130212","196331.322701"
"Blocked","Female","tile","17","F_done.wav","space","267.363885068","238","193256.712997","185523.222337","186289.797222","187056.075922","187822.989347","188589.817132","189356.062442","190122.582295","194022.898637","194789.51866","195555.795196","196322.500241","197089.572579","197856.125513","183989.806064","184756.130212","197099.312345"
"Blocked","Female","tile","17","F_reek.wav","None","727.104145684","238","193256.712997","185523.222337","186289.797222","187056.075922","187822.989347","188589.817132","189356.062442","190122.582295","194022.898637","194789.51866","195555.795196","196322.500241","197089.572579","197856.125513","198622.253957","184756.130212","197865.071332"
"Blocked","Female","tile","17","F_greet.wav","None","729.204333853","238","193256.712997","185523.222337","186289.797222","187056.075922","187822.989347","188589.817132","189356.062442","190122.582295","194022.898637","194789.51866","195555.795196","196322.500241","197089.572579","197856.125513","198622.253957","199389.270335","198630.962952"
"Blocked","Female","tile","17","F_tile.wav","None","728.905057767","238","193256.712997","200155.581498","186289.797222","187056.075922","187822.989347","188589.817132","189356.062442","190122.582295","194022.898637","194789.51866","195555.795196","196322.500241","197089.572579","197856.125513","198622.253957","199389.270335","199398.782862"
"Blocked","Female","tile","17","F_depth.wav","space","306.228651898","238","193256.712997","200155.581498","200922.710105","187056.075922","187822.989347","188589.817132","189356.062442","190122.582295","194022.898637","194789.51866","195555.795196","196322.500241","197089.572579","197856.125513","198622.253957","199389.270335","200164.373969"
"Blocked","Female","tile","17","F_lash.wav","None","729.777224828","238","193256.712997","200155.581498","200922.710105","201689.245107","187822.989347","188589.817132","189356.062442","190122.582295","194022.898637","194789.51866","195555.795196","196322.500241","197089.572579","197856.125513","198622.253957","199389.270335","200932.086906"
"Blocked","Female","tile","17","F_park.wav","None","730.416278238","238","193256.712997","200155.581498","200922.710105","201689.245107","202455.624287","188589.817132","189356.062442","190122.582295","194022.898637","194789.51866","195555.795196","196322.500241","197089.572579","197856.125513","198622.253957","199389.270335","201699.100193"
"Blocked","Female","tile","17","F_tile.wav","None","732.878194656","238","193256.712997","200155.581498","200922.710105","201689.245107","202455.624287","203222.589035","189356.062442","190122.582295","194022.898637","194789.51866","195555.795196","196322.500241","197089.572579","197856.125513","198622.253957","199389.270335","202464.389242"
"Blocked","Female","tile","17","F_park.wav","space","254.52995114","238","193256.712997","200155.581498","200922.710105","201689.245107","202455.624287","203222.589035","203988.737884","190122.582295","194022.898637","194789.51866","195555.795196","196322.500241","197089.572579","197856.125513","198622.253957","199389.270335","203231.981294"
"Blocked","Female","tile","17","F_lash.wav","None","733.816214837","238","193256.712997","200155.581498","200922.710105","201689.245107","202455.624287","203222.589035","203988.737884","204755.414485","194022.898637","194789.51866","195555.795196","196322.500241","197089.572579","197856.125513","198622.253957","199389.270335","203997.51706"
"Blocked","Female","ball","6","F_greet.wav","None","734.861516743","238","207889.425538","200155.581498","200922.710105","201689.245107","202455.624287","203222.589035","203988.737884","204755.414485","194022.898637","194789.51866","195555.795196","196322.500241","197089.572579","197856.125513","198622.253957","199389.270335","204764.068448"
"Blocked","Female","ball","6","F_ball.wav","None","723.005795036","238","207889.425538","200155.581498","200922.710105","201689.245107","202455.624287","203222.589035","203988.737884","204755.414485","208656.219624","194789.51866","195555.795196","196322.500241","197089.572579","197856.125513","198622.253957","199389.270335","207899.229921"
"Blocked","Female","ball","6","F_romp.wav","None","723.871160415","238","207889.425538","200155.581498","200922.710105","201689.245107","202455.624287","203222.589035","203988.737884","204755.414485","208656.219624","209422.399081","195555.795196","196322.500241","197089.572579","197856.125513","198622.253957","199389.270335","208665.876533"
"Blocked","Female","ball","6","F_ball.wav","None","725.666816696","238","207889.425538","200155.581498","200922.710105","201689.245107","202455.624287","203222.589035","203988.737884","204755.414485","208656.219624","209422.399081","210189.015703","196322.500241","197089.572579","197856.125513","198622.253957","199389.270335","209431.969422"
"Blocked","Female","ball","6","F_jaw.wav","space","351.786628598","238","207889.425538","200155.581498","200922.710105","201689.245107","202455.624287","203222.589035","203988.737884","204755.414485","208656.219624","209422.399081","210189.015703","210955.335214","197089.572579","197856.125513","198622.253957","199389.270335","210198.500095"
"Blocked","Female","ball","6","F_ball.wav","None","727.602526778","238","207889.425538","200155.581498","200922.710105","201689.245107","202455.624287","203222.589035","203988.737884","204755.414485","208656.219624","209422.399081","210189.015703","210955.335214","211721.985227","197856.125513","198622.253957","199389.270335","210964.128303"
"Blocked","Female","ball","6","F_bluff.wav","space","362.932188087","238","207889.425538","200155.581498","200922.710105","201689.245107","202455.624287","203222.589035","203988.737884","204755.414485","208656.219624","209422.399081","210189.015703","210955.335214","211721.985227","212488.591956","198622.253957","199389.270335","211731.296793"
"Blocked","Female","ball","6","F_greet.wav","None","728.379778913","238","207889.425538","200155.581498","200922.710105","201689.245107","202455.624287","203222.589035","203988.737884","204755.414485","208656.219624","209422.399081","210189.015703","210955.335214","211721.985227","212488.591956","213255.279687","199389.270335","212497.299405"
"Blocked","Female","ball","6","F_lash.wav","None","729.319654056","238","207889.425538","200155.581498","200922.710105","201689.245107","202455.624287","203222.589035","203988.737884","204755.414485","208656.219624","209422.399081","210189.015703","210955.335214","211721.985227","212488.591956","213255.279687","214022.329456","213264.050207"
"Blocked","Female","ball","6","F_park.wav","None","728.623713483","238","207889.425538","214788.43193","200922.710105","201689.245107","202455.624287","203222.589035","203988.737884","204755.414485","208656.219624","209422.399081","210189.015703","210955.335214","211721.985227","212488.591956","213255.279687","214022.329456","214031.939989"
"Blocked","Female","ball","6","F_tile.wav","None","730.426480761","238","207889.425538","214788.43193","215555.185514","201689.245107","202455.624287","203222.589035","203988.737884","204755.414485","208656.219624","209422.399081","210189.015703","210955.335214","211721.985227","212488.591956","213255.279687","214022.329456","214797.22811"
"Blocked","Female","ball","6","F_knife.wav","None","731.048838818","238","207889.425538","214788.43193","215555.185514","216322.268673","202455.624287","203222.589035","203988.737884","204755.414485","208656.219624","209422.399081","210189.015703","210955.335214","211721.985227","212488.591956","213255.279687","214022.329456","215564.356408"
"Blocked","Female","ball","6","F_ball.wav","None","731.344095781","238","207889.425538","214788.43193","215555.185514","216322.268673","217088.592203","203222.589035","203988.737884","204755.414485","208656.219624","209422.399081","210189.015703","210955.335214","211721.985227","212488.591956","213255.279687","214022.329456","216331.661551"
"Blocked","Female","ball","6","F_cave.wav","space","548.820332973","238","207889.425538","214788.43193","215555.185514","216322.268673","217088.592203","217855.110819","203988.737884","204755.414485","208656.219624","209422.399081","210189.015703","210955.335214","211721.985227","212488.591956","213255.279687","214022.329456","217097.243692"
"Blocked","Female","ball","6","F_knife.wav","None","733.0457645","238","207889.425538","214788.43193","215555.185514","216322.268673","217088.592203","217855.110819","218622.095971","204755.414485","208656.219624","209422.399081","210189.015703","210955.335214","211721.985227","212488.591956","213255.279687","214022.329456","217863.878865"
"Blocked","Female","ball","6","F_dime.wav","None","732.763492735","238","207889.425538","214788.43193","215555.185514","216322.268673","217088.592203","217855.110819","218622.095971","219388.231217","208656.219624","209422.399081","210189.015703","210955.335214","211721.985227","212488.591956","213255.279687","214022.329456","218631.866036"
"Blocked","Female","ball","2","F_done.wav","None","735.206859186","238","222522.471365","214788.43193","215555.185514","216322.268673","217088.592203","217855.110819","218622.095971","219388.231217","208656.219624","209422.399081","210189.015703","210955.335214","211721.985227","212488.591956","213255.279687","214022.329456","219397.091705"
"Blocked","Female","ball","2","F_romp.wav","None","722.529055667","238","222522.471365","214788.43193","215555.185514","216322.268673","217088.592203","217855.110819","218622.095971","219388.231217","223288.195415","209422.399081","210189.015703","210955.335214","211721.985227","212488.591956","213255.279687","214022.329456","222532.287805"
"Blocked","Female","ball","2","F_ball.wav","None","725.591070135","238","222522.471365","214788.43193","215555.185514","216322.268673","217088.592203","217855.110819","218622.095971","219388.231217","223288.195415","224054.942198","210189.015703","210955.335214","211721.985227","212488.591956","213255.279687","214022.329456","223296.977374"
"Blocked","Female","ball","2","F_jolt.wav","space","333.904266357","238","222522.471365","214788.43193","215555.185514","216322.268673","217088.592203","217855.110819","218622.095971","219388.231217","223288.195415","224054.942198","224821.527594","210955.335214","211721.985227","212488.591956","213255.279687","214022.329456","224063.965927"
"Blocked","Female","ball","2","F_done.wav","None","726.686457638","238","222522.471365","214788.43193","215555.185514","216322.268673","217088.592203","217855.110819","218622.095971","219388.231217","223288.195415","224054.942198","224821.527594","225588.099387","211721.985227","212488.591956","213255.279687","214022.329456","224830.538647"
"Blocked","Female","ball","2","F_done.wav","None","727.617057739","238","222522.471365","214788.43193","215555.185514","216322.268673","217088.592203","217855.110819","218622.095971","219388.231217","223288.195415","224054.942198","224821.527594","225588.099387","226355.294156","212488.591956","213255.279687","214022.329456","225597.309236"
"Blocked","Female","ball","2","F_cad.wav","None","728.191803792","238","222522.471365","214788.43193","215555.185514","216322.268673","217088.592203","217855.110819","218622.095971","219388.231217","223288.195415","224054.942198","224821.527594","225588.099387","226355.294156","227121.598517","213255.279687","214022.329456","226364.449592"
"Blocked","Female","ball","2","F_ball.wav","None","728.935047169","238","222522.471365","214788.43193","215555.185514","216322.268673","217088.592203","217855.110819","218622.095971","219388.231217","223288.195415","224054.942198","224821.527594","225588.099387","226355.294156","227121.598517","227888.473296","214022.329456","227131.055702"
"Blocked","Female","ball","2","F_cling.wav","space","339.712014771","238","222522.471365","214788.43193","215555.185514","216322.268673","217088.592203","217855.110819","218622.095971","219388.231217","223288.195415","224054.942198","224821.527594","225588.099387","226355.294156","227121.598517","227888.473296","228655.221625","227898.040237"
"Blocked","Female","ball","2","F_lash.wav","None","729.118693853","238","222522.471365","229421.411594","215555.185514","216322.268673","217088.592203","217855.110819","218622.095971","219388.231217","223288.195415","224054.942198","224821.527594","225588.099387","226355.294156","227121.598517","227888.473296","228655.221625","228664.859674"
"Blocked","Female","ball","2","F_ball.wav","None","731.291846023","238","222522.471365","229421.411594","230187.959271","216322.268673","217088.592203","217855.110819","218622.095971","219388.231217","223288.195415","224054.942198","224821.527594","225588.099387","226355.294156","227121.598517","227888.473296","228655.221625","229430.315984"
"Blocked","Female","ball","2","F_romp.wav","space","408.934750361","238","222522.471365","229421.411594","230187.959271","230954.830959","217088.592203","217855.110819","218622.095971","219388.231217","223288.195415","224054.942198","224821.527594","225588.099387","226355.294156","227121.598517","227888.473296","228655.221625","230196.742776"
"Blocked","Female","ball","2","F_priest.wav","None","733.231575345","238","222522.471365","229421.411594","230187.959271","230954.830959","231721.828168","217855.110819","218622.095971","219388.231217","223288.195415","224054.942198","224821.527594","225588.099387","226355.294156","227121.598517","227888.473296","228655.221625","230963.513056"
"Blocked","Female","ball","2","F_ball.wav","None","733.209005906","238","222522.471365","229421.411594","230187.959271","230954.830959","231721.828168","232488.278458","218622.095971","219388.231217","223288.195415","224054.942198","224821.527594","225588.099387","226355.294156","227121.598517","227888.473296","228655.221625","231731.331729"
"Blocked","Female","ball","2","F_priest.wav","space","331.839632476","238","222522.471365","229421.411594","230187.959271","230954.830959","231721.828168","232488.278458","233254.602297","219388.231217","223288.195415","224054.942198","224821.527594","225588.099387","226355.294156","227121.598517","227888.473296","228655.221625","232497.783873"
"Blocked","Female","ball","2","F_park.wav","None","735.068969545","238","222522.471365","229421.411594","230187.959271","230954.830959","231721.828168","232488.278458","233254.602297","234021.405967","223288.195415","224054.942198","224821.527594","225588.099387","226355.294156","227121.598517","227888.473296","228655.221625","233263.601293"
"Blocked","Female","cave","12","F_dime.wav","None","735.863844282","238","237171.975519","229421.411594","230187.959271","230954.830959","231721.828168","232488.278458","233254.602297","234021.405967","223288.195415","224054.942198","224821.527594","225588.099387","226355.294156","227121.598517","227888.473296","228655.221625","234030.773493"
"Blocked","Female","cave","12","F_jaw.wav","None","722.84038947","238","237171.975519","229421.411594","230187.959271","230954.830959","231721.828168","232488.278458","233254.602297","234021.405967","237938.54051","224054.942198","224821.527594","225588.099387","226355.294156","227121.598517","227888.473296","228655.221625","237181.457128"
"Blocked","Female","cave","12","F_dime.wav","None","723.041658639","238","237171.975519","229421.411594","230187.959271","230954.830959","231721.828168","232488.278458","233254.602297","234021.405967","237938.54051","238704.989872","224821.527594","225588.099387","226355.294156","227121.598517","227888.473296","228655.221625","237948.299135"
"Blocked","Female","cave","12","F_lash.wav","None","724.650576711","238","237171.975519","229421.411594","230187.959271","230954.830959","231721.828168","232488.278458","233254.602297","234021.405967","237938.54051","238704.989872","239471.100074","225588.099387","226355.294156","227121.598517","227888.473296","228655.221625","238714.41583"
"Blocked","Female","cave","12","F_cave.wav","None","726.931010722","238","237171.975519","229421.411594","230187.959271","230954.830959","231721.828168","232488.278458","233254.602297","234021.405967","237938.54051","238704.989872","239471.100074","240238.129129","226355.294156","227121.598517","227888.473296","228655.221625","239479.865956"
"Blocked","Female","cave","12","F_priest.wav","space","355.518922326","238","237171.975519","229421.411594","230187.959271","230954.830959","231721.828168","232488.278458","233254.602297","234021.405967","237938.54051","238704.989872","239471.100074","240238.129129","241004.884569","227121.598517","227888.473296","228655.221625","240241.870698"
"Blocked","Female","cave","12","F_cave.wav","None","726.748600719","238","237171.975519","229421.411594","230187.959271","230954.830959","231721.828168","232488.278458","233254.602297","234021.405967","237938.54051","238704.989872","239471.100074","240238.129129","241004.884569","241771.491916","227888.473296","228655.221625","241013.903969"
"Blocked","Female","cave","12","F_romp.wav","space","608.460979071","238","237171.975519","229421.411594","230187.959271","230954.830959","231721.828168","232488.278458","233254.602297","234021.405967","237938.54051","238704.989872","239471.100074","240238.129129","241004.884569","241771.491916","242538.020425","228655.221625","241780.867171"
"Blocked","Female","cave","12","F_cave.wav","None","727.127333288","238","237171.975519","229421.411594","230187.959271","230954.830959","231721.828168","232488.278458","233254.602297","234021.405967","237938.54051","238704.989872","239471.100074","240238.129129","241004.884569","241771.491916","242538.020425","243304.778029","242547.440819"
"Blocked","Female","cave","12","F_bluff.wav","space","642.946051084","238","237171.975519","244071.307775","230187.959271","230954.830959","231721.828168","232488.278458","233254.602297","234021.405967","237938.54051","238704.989872","239471.100074","240238.129129","241004.884569","241771.491916","242538.020425","243304.778029","243314.378668"
"Blocked","Female","cave","12","F_jolt.wav","None","728.488606517","238","237171.975519","244071.307775","244837.512274","230954.830959","231721.828168","232488.278458","233254.602297","234021.405967","237938.54051","238704.989872","239471.100074","240238.129129","241004.884569","241771.491916","242538.020425","243304.778029","244080.41869"
"Blocked","Female","cave","12","F_gnash.wav","None","730.721737607","238","237171.975519","244071.307775","244837.512274","245604.72683","231721.828168","232488.278458","233254.602297","234021.405967","237938.54051","238704.989872","239471.100074","240238.129129","241004.884569","241771.491916","242538.020425","243304.778029","244846.329478"
"Blocked","Female","cave","12","F_tile.wav","None","730.772441369","238","237171.975519","244071.307775","244837.512274","245604.72683","246371.342216","232488.278458","233254.602297","234021.405967","237938.54051","238704.989872","239471.100074","240238.129129","241004.884569","241771.491916","242538.020425","243304.778029","245614.101776"
"Blocked","Female","cave","12","F_tile.wav","None","731.700259028","238","237171.975519","244071.307775","244837.512274","245604.72683","246371.342216","247137.962858","233254.602297","234021.405967","237938.54051","238704.989872","239471.100074","240238.129129","241004.884569","241771.491916","242538.020425","243304.778029","246380.761991"
"Blocked","Female","cave","12","F_cave.wav","None","732.332510641","238","237171.975519","244071.307775","244837.512274","245604.72683","246371.342216","247137.962858","247904.421804","234021.405967","237938.54051","238704.989872","239471.100074","240238.129129","241004.884569","241771.491916","242538.020425","243304.778029","247147.451269"
"Blocked","Female","cave","12","F_knife.wav","space","539.147347677","238","237171.975519","244071.307775","244837.512274","245604.72683","246371.342216","247137.962858","247904.421804","248670.802839","237938.54051","238704.989872","239471.100074","240238.129129","241004.884569","241771.491916","242538.020425","243304.778029","247914.00884"
"Blocked","Female","ball","3","F_tile.wav","None","734.540598933","238","251805.023509","244071.307775","244837.512274","245604.72683","246371.342216","247137.962858","247904.421804","248670.802839","237938.54051","238704.989872","239471.100074","240238.129129","241004.884569","241771.491916","242538.020425","243304.778029","248679.819457"
"Blocked","Female","ball","3","F_cad.wav","None","721.880109049","238","251805.023509","244071.307775","244837.512274","245604.72683","246371.342216","247137.962858","247904.421804","248670.802839","252571.618181","238704.989872","239471.100074","240238.129129","241004.884569","241771.491916","242538.020425","243304.778029","251814.951559"
"Blocked","Female","ball","3","F_ball.wav","None","722.918300191","238","251805.023509","244071.307775","244837.512274","245604.72683","246371.342216","247137.962858","247904.421804","248670.802839","252571.618181","253337.881113","239471.100074","240238.129129","241004.884569","241771.491916","242538.020425","243304.778029","252581.56509"
"Blocked","Female","ball","3","F_tile.wav","space","345.420519938","238","251805.023509","244071.307775","244837.512274","245604.72683","246371.342216","247137.962858","247904.421804","248670.802839","252571.618181","253337.881113","254104.031817","240238.129129","241004.884569","241771.491916","242538.020425","243304.778029","253347.579141"
"Blocked","Female","ball","3","F_reek.wav","None","725.588596775","238","251805.023509","244071.307775","244837.512274","245604.72683","246371.342216","247137.962858","247904.421804","248670.802839","252571.618181","253337.881113","254104.031817","254871.025008","241004.884569","241771.491916","242538.020425","243304.778029","254113.016282"
"Blocked","Female","ball","3","F_ball.wav","None","726.585977478","238","251805.023509","244071.307775","244837.512274","245604.72683","246371.342216","247137.962858","247904.421804","248670.802839","252571.618181","253337.881113","254104.031817","254871.025008","255637.617824","241771.491916","242538.020425","243304.778029","254879.857671"
"Blocked","Female","ball","3","F_lash.wav","space","461.904446827","238","251805.023509","244071.307775","244837.512274","245604.72683","246371.342216","247137.962858","247904.421804","248670.802839","252571.618181","253337.881113","254104.031817","254871.025008","255637.617824","256404.439735","242538.020425","243304.778029","255647.036363"
"Blocked","Female","ball","3","F_ball.wav","None","726.636990556","238","251805.023509","244071.307775","244837.512274","245604.72683","246371.342216","247137.962858","247904.421804","248670.802839","252571.618181","253337.881113","254104.031817","254871.025008","255637.617824","256404.439735","257171.013693","243304.778029","256413.825193"
"Blocked","Female","ball","3","F_reek.wav","space","624.421853106","238","251805.023509","244071.307775","244837.512274","245604.72683","246371.342216","247137.962858","247904.421804","248670.802839","252571.618181","253337.881113","254104.031817","254871.025008","255637.617824","256404.439735","257171.013693","257937.741616","257180.435632"
"Blocked","Female","ball","3","F_ball.wav","None","727.23059589","238","251805.023509","258704.32423","244837.512274","245604.72683","246371.342216","247137.962858","247904.421804","248670.802839","252571.618181","253337.881113","254104.031817","254871.025008","255637.617824","256404.439735","257171.013693","257937.741616","257947.404089"
"Blocked","Female","ball","3","F_jolt.wav","space","410.891484004","238","251805.023509","258704.32423","259470.95291","245604.72683","246371.342216","247137.962858","247904.421804","248670.802839","252571.618181","253337.881113","254104.031817","254871.025008","255637.617824","256404.439735","257171.013693","257937.741616","258713.934144"
"Blocked","Female","ball","3","F_cad.wav","None","728.594342479","238","251805.023509","258704.32423","259470.95291","260237.607869","246371.342216","247137.962858","247904.421804","248670.802839","252571.618181","253337.881113","254104.031817","254871.025008","255637.617824","256404.439735","257171.013693","257937.741616","259480.488933"
"Blocked","Female","ball","3","F_jolt.wav","None","729.703333345","238","251805.023509","258704.32423","259470.95291","260237.607869","261003.805876","247137.962858","247904.421804","248670.802839","252571.618181","253337.881113","254104.031817","254871.025008","255637.617824","256404.439735","257171.013693","257937.741616","260247.289202"
"Blocked","Female","ball","3","F_cave.wav","None","732.06847976","238","251805.023509","258704.32423","259470.95291","260237.607869","261003.805876","261770.165888","247904.421804","248670.802839","252571.618181","253337.881113","254104.031817","254871.025008","255637.617824","256404.439735","257171.013693","257937.741616","261012.887729"
"Blocked","Female","ball","3","F_gnash.wav","None","736.024921527","238","251805.023509","258704.32423","259470.95291","260237.607869","261003.805876","261770.165888","262554.901696","248670.802839","252571.618181","253337.881113","254104.031817","254871.025008","255637.617824","256404.439735","257171.013693","257937.741616","261778.948156"
"Blocked","Female","ball","3","F_knife.wav","None","718.438434415","238","251805.023509","258704.32423","259470.95291","260237.607869","261003.805876","261770.165888","262554.901696","263321.17545","252571.618181","253337.881113","254104.031817","254871.025008","255637.617824","256404.439735","257171.013693","257937.741616","262564.935792"
"Blocked","Female","done","21","F_cave.wav","None","720.053535886","238","266454.49891","258704.32423","259470.95291","260237.607869","261003.805876","261770.165888","262554.901696","263321.17545","252571.618181","253337.881113","254104.031817","254871.025008","255637.617824","256404.439735","257171.013693","257937.741616","263331.221294"
"Blocked","Female","done","21","F_gnash.wav","None","723.366595921","238","266454.49891","258704.32423","259470.95291","260237.607869","261003.805876","261770.165888","262554.901696","263321.17545","267220.721651","253337.881113","254104.031817","254871.025008","255637.617824","256404.439735","257171.013693","257937.741616","266464.089657"
"Blocked","Female","done","21","F_priest.wav","None","725.493681733","238","266454.49891","258704.32423","259470.95291","260237.607869","261003.805876","261770.165888","262554.901696","263321.17545","267220.721651","267987.449574","254104.031817","254871.025008","255637.617824","256404.439735","257171.013693","257937.741616","267230.116384"
"Blocked","Female","done","21","F_tile.wav","None","726.607928518","238","266454.49891","258704.32423","259470.95291","260237.607869","261003.805876","261770.165888","262554.901696","263321.17545","267220.721651","267987.449574","268753.544628","254871.025008","255637.617824","256404.439735","257171.013693","257937.741616","267996.774435"
"Blocked","Female","done","21","F_romp.wav","None","728.972456651","238","266454.49891","258704.32423","259470.95291","260237.607869","261003.805876","261770.165888","262554.901696","263321.17545","267220.721651","267987.449574","268753.544628","269520.601199","255637.617824","256404.439735","257171.013693","257937.741616","268762.37389"
"Blocked","Female","done","21","F_done.wav","None","728.953597369","238","266454.49891","258704.32423","259470.95291","260237.607869","261003.805876","261770.165888","262554.901696","263321.17545","267220.721651","267987.449574","268753.544628","269520.601199","270287.21442","256404.439735","257171.013693","257937.741616","269530.079407"
"Blocked","Female","done","21","F_lash.wav","space","379.897862673","238","266454.49891","258704.32423","259470.95291","260237.607869","261003.805876","261770.165888","262554.901696","263321.17545","267220.721651","267987.449574","268753.544628","269520.601199","270287.21442","271053.991811","257171.013693","257937.741616","270296.572671"
"Blocked","Female","done","21","F_done.wav","None","730.024869554","238","266454.49891","258704.32423","259470.95291","260237.607869","261003.805876","261770.165888","262554.901696","263321.17545","267220.721651","267987.449574","268753.544628","269520.601199","270287.21442","271053.991811","271820.532377","257937.741616","271063.053877"
"Blocked","Female","done","21","F_greet.wav","space","508.741457597","238","266454.49891","258704.32423","259470.95291","260237.607869","261003.805876","261770.165888","262554.901696","263321.17545","267220.721651","267987.449574","268753.544628","269520.601199","270287.21442","271053.991811","271820.532377","272586.791909","271831.682265"
"Blocked","Female","done","21","F_done.wav","None","731.621420709","238","266454.49891","273353.861156","259470.95291","260237.607869","261003.805876","261770.165888","262554.901696","263321.17545","267220.721651","267987.449574","268753.544628","269520.601199","270287.21442","271053.991811","271820.532377","272586.791909","272595.832643"
"Blocked","Female","done","21","F_romp.wav","space","320.937698707","238","266454.49891","273353.861156","274120.563727","260237.607869","261003.805876","261770.165888","262554.901696","263321.17545","267220.721651","267987.449574","268753.544628","269520.601199","270287.21442","271053.991811","271820.532377","272586.791909","273363.450665"
"Blocked","Female","done","21","F_priest.wav","None","732.216262724","238","266454.49891","273353.861156","274120.563727","274886.833771","261003.805876","261770.165888","262554.901696","263321.17545","267220.721651","267987.449574","268753.544628","269520.601199","270287.21442","271053.991811","271820.532377","272586.791909","274129.260046"
"Blocked","Female","done","21","F_romp.wav","None","733.756545116","238","266454.49891","273353.861156","274120.563727","274886.833771","275653.321779","261770.165888","262554.901696","263321.17545","267220.721651","267987.449574","268753.544628","269520.601199","270287.21442","271053.991811","271820.532377","272586.791909","274895.689312"
"Blocked","Female","done","21","F_jolt.wav","None","735.224481788","238","266454.49891","273353.861156","274120.563727","274886.833771","275653.321779","276420.318061","262554.901696","263321.17545","267220.721651","267987.449574","268753.544628","269520.601199","270287.21442","271053.991811","271820.532377","272586.791909","275662.161861"
"Blocked","Female","done","21","F_done.wav","None","735.367008834","238","266454.49891","273353.861156","274120.563727","274886.833771","275653.321779","276420.318061","277204.121105","263321.17545","267220.721651","267987.449574","268753.544628","269520.601199","270287.21442","271053.991811","271820.532377","272586.791909","276429.957038"
"Blocked","Female","done","21","F_priest.wav","space","390.458164387","238","266454.49891","273353.861156","274120.563727","274886.833771","275653.321779","276420.318061","277204.121105","277970.167928","267220.721651","267987.449574","268753.544628","269520.601199","270287.21442","271053.991811","271820.532377","272586.791909","277213.829954"
"Blocked","Female","cave","8","F_gnash.wav","None","726.23012343","238","281104.063662","273353.861156","274120.563727","274886.833771","275653.321779","276420.318061","277204.121105","277970.167928","267220.721651","267987.449574","268753.544628","269520.601199","270287.21442","271053.991811","271820.532377","272586.791909","277973.502012"
"Blocked","Female","cave","8","F_greet.wav","None","722.987554152","238","281104.063662","273353.861156","274120.563727","274886.833771","275653.321779","276420.318061","277204.121105","277970.167928","281870.262905","267987.449574","268753.544628","269520.601199","270287.21442","271053.991811","271820.532377","272586.791909","281114.054473"
"Blocked","Female","cave","8","F_cave.wav","None","725.391965127","238","281104.063662","273353.861156","274120.563727","274886.833771","275653.321779","276420.318061","277204.121105","277970.167928","281870.262905","282636.842737","268753.544628","269520.601199","270287.21442","271053.991811","271820.532377","272586.791909","281879.650218"
"Blocked","Female","cave","8","F_knife.wav","space","357.876030495","238","281104.063662","273353.861156","274120.563727","274886.833771","275653.321779","276420.318061","277204.121105","277970.167928","281870.262905","282636.842737","283403.162866","269520.601199","270287.21442","271053.991811","271820.532377","272586.791909","282646.237778"
"Blocked","Female","cave","8","F_cave.wav","None","726.897929562","238","281104.063662","273353.861156","274120.563727","274886.833771","275653.321779","276420.318061","277204.121105","277970.167928","281870.262905","282636.842737","283403.162866","284169.791236","270287.21442","271053.991811","271820.532377","272586.791909","283412.101882"
