"Condition","Talker","Target","Trial","current_stimulus","response_response","response_time_response","subject_nr","time_Audio1","time_Audio10","time_Audio11","time_Audio12","time_Audio13","time_Audio14","time_Audio15","time_Audio16","time_Audio2","time_Audio3","time_Audio4","time_Audio5","time_Audio6","time_Audio7","time_Audio8","time_Audio9","time_response","title"
"Blocked","Female","cave","10","F_romp.wav","NA","NA","326","182649.26372","NA","NA","NA","NA","NA","NA","NA","NA","NA","NA","NA","NA","NA","NA","NA","NA","Mapping"
"Blocked","Female","cave","10","F_gnash.wav","None","715.412562247","326","182649.26372","NA","NA","NA","NA","NA","NA","NA","183416.28409","NA","NA","NA","NA","NA","NA","NA","182664.443196","Mapping"
"Blocked","Female","cave","10","F_cave.wav","None","718.394847121","326","182649.26372","NA","NA","NA","NA","NA","NA","NA","183416.28409","184165.525457","NA","NA","NA","NA","NA","NA","183426.765062","Mapping"
"Blocked","Female","cave","10","F_depth.wav","space","392.103963532","326","182649.26372","NA","NA","NA","NA","NA","NA","NA","183416.28409","184165.525457","184931.601922","NA","NA","NA","NA","NA","184175.562147","Mapping"
"Blocked","Female","cave","10","F_depth.wav","None","735.887866467","326","182649.26372","NA","NA","NA","NA","NA","NA","NA","183416.28409","184165.525457","184931.601922","185698.726485","NA","NA","NA","NA","184940.845273","Mapping"
"Blocked","Female","cave","10","F_cling.wav","None","732.287235558","326","182649.26372","NA","NA","NA","NA","NA","NA","NA","183416.28409","184165.525457","184931.601922","185698.726485","186465.601544","NA","NA","NA","185708.54799","Mapping"
"Blocked","Female","cave","10","F_cling.wav","None","728.895296343","326","182649.26372","NA","NA","NA","NA","NA","NA","NA","183416.28409","184165.525457","184931.601922","185698.726485","186465.601544","187231.844963","NA","NA","186475.977088","Mapping"
"Blocked","Female","cave","10","F_cave.wav","None","727.384676225","326","182649.26372","NA","NA","NA","NA","NA","NA","NA","183416.28409","184165.525457","184931.601922","185698.726485","186465.601544","187231.844963","187998.509476","NA","187241.539089","Mapping"
"Blocked","Female","cave","10","F_cling.wav","space","367.622083984","326","182649.26372","NA","NA","NA","NA","NA","NA","NA","183416.28409","184165.525457","184931.601922","185698.726485","186465.601544","187231.844963","187998.509476","188765.896836","188007.956882","Mapping"
"Blocked","Female","cave","10","F_gnash.wav","None","720.792176202","326","182649.26372","189532.559494","NA","NA","NA","NA","NA","NA","183416.28409","184165.525457","184931.601922","185698.726485","186465.601544","187231.844963","187998.509476","188765.896836","188776.173134","Mapping"
"Blocked","Female","cave","10","F_dime.wav","None","718.62332616","326","182649.26372","189532.559494","190282.152699","NA","NA","NA","NA","NA","183416.28409","184165.525457","184931.601922","185698.726485","186465.601544","187231.844963","187998.509476","188765.896836","189542.568666","Mapping"
"Blocked","Female","cave","10","F_gnash.wav","None","733.555154875","326","182649.26372","189532.559494","190282.152699","191048.78042","NA","NA","NA","NA","183416.28409","184165.525457","184931.601922","185698.726485","186465.601544","187231.844963","187998.509476","188765.896836","190292.18877","Mapping"
"Blocked","Female","cave","10","F_cave.wav","None","731.381358113","326","182649.26372","189532.559494","190282.152699","191048.78042","191815.228512","NA","NA","NA","183416.28409","184165.525457","184931.601922","185698.726485","186465.601544","187231.844963","187998.509476","188765.896836","191058.559259","Mapping"
"Blocked","Female","cave","10","F_dime.wav","space","437.474821694","326","182649.26372","189532.559494","190282.152699","191048.78042","191815.228512","192582.106045","NA","NA","183416.28409","184165.525457","184931.601922","185698.726485","186465.601544","187231.844963","187998.509476","188765.896836","191826.042153","Mapping"
"Blocked","Female","cave","10","F_cave.wav","None","725.889514666","326","182649.26372","189532.559494","190282.152699","191048.78042","191815.228512","192582.106045","193348.933491","NA","183416.28409","184165.525457","184931.601922","185698.726485","186465.601544","187231.844963","187998.509476","188765.896836","192592.05091","Mapping"
"Blocked","Female","cave","10","F_gnash.wav","space","528.001971543","326","182649.26372","189532.559494","190282.152699","191048.78042","191815.228512","192582.106045","193348.933491","194115.743625","183416.28409","184165.525457","184931.601922","185698.726485","186465.601544","187231.844963","187998.509476","188765.896836","193359.508452","Mapping"
"Blocked","Female","done","20","F_cling.wav","None","720.411583781","326","197249.01366","189532.559494","190282.152699","191048.78042","191815.228512","192582.106045","193348.933491","194115.743625","183416.28409","184165.525457","184931.601922","185698.726485","186465.601544","187231.844963","187998.509476","188765.896836","194125.824217","Mapping"
"Blocked","Female","done","20","F_done.wav","None","719.959881622","326","197249.01366","189532.559494","190282.152699","191048.78042","191815.228512","192582.106045","193348.933491","194115.743625","197998.313151","184165.525457","184931.601922","185698.726485","186465.601544","187231.844963","187998.509476","188765.896836","197259.433415","Mapping"
"Blocked","Female","done","20","F_lash.wav","space","575.648034457","326","197249.01366","189532.559494","190282.152699","191048.78042","191815.228512","192582.106045","193348.933491","194115.743625","197998.313151","198765.071034","184931.601922","185698.726485","186465.601544","187231.844963","187998.509476","188765.896836","198007.736132","Mapping"
"Blocked","Female","done","20","F_park.wav","None","732.861988246","326","197249.01366","189532.559494","190282.152699","191048.78042","191815.228512","192582.106045","193348.933491","194115.743625","197998.313151","198765.071034","199532.421602","185698.726485","186465.601544","187231.844963","187998.509476","188765.896836","198774.613665","Mapping"
"Blocked","Female","done","20","F_dime.wav","None","729.568984825","326","197249.01366","189532.559494","190282.152699","191048.78042","191815.228512","192582.106045","193348.933491","194115.743625","197998.313151","198765.071034","199532.421602","200298.614935","186465.601544","187231.844963","187998.509476","188765.896836","199542.104907","Mapping"
"Blocked","Female","done","20","F_dime.wav","space","418.767679017","326","197249.01366","189532.559494","190282.152699","191048.78042","191815.228512","192582.106045","193348.933491","194115.743625","197998.313151","198765.071034","199532.421602","200298.614935","201065.325514","187231.844963","187998.509476","188765.896836","200308.600302","Mapping"
"Blocked","Female","done","20","F_romp.wav","None","725.024447776","326","197249.01366","189532.559494","190282.152699","191048.78042","191815.228512","192582.106045","193348.933491","194115.743625","197998.313151","198765.071034","199532.421602","200298.614935","201065.325514","201831.787828","187998.509476","188765.896836","201075.265124","Mapping"
"Blocked","Female","done","20","F_knife.wav","None","723.011730704","326","197249.01366","189532.559494","190282.152699","191048.78042","191815.228512","192582.106045","193348.933491","194115.743625","197998.313151","198765.071034","199532.421602","200298.614935","201065.325514","201831.787828","202598.577865","188765.896836","201841.433413","Mapping"
"Blocked","Female","done","20","F_done.wav","None","719.748716336","326","197249.01366","189532.559494","190282.152699","191048.78042","191815.228512","192582.106045","193348.933491","194115.743625","197998.313151","198765.071034","199532.421602","200298.614935","201065.325514","201831.787828","202598.577865","203348.168597","202608.894047","Mapping"
"Blocked","Female","done","20","F_reek.wav","space","561.529022176","326","197249.01366","204115.069936","190282.152699","191048.78042","191815.228512","192582.106045","193348.933491","194115.743625","197998.313151","198765.071034","199532.421602","200298.614935","201065.325514","201831.787828","202598.577865","203348.168597","203357.778009","Mapping"
"Blocked","Female","done","20","F_done.wav","None","732.245188206","326","197249.01366","204115.069936","204881.868321","191048.78042","191815.228512","192582.106045","193348.933491","194115.743625","197998.313151","198765.071034","199532.421602","200298.614935","201065.325514","201831.787828","202598.577865","203348.168597","204124.60391","Mapping"
"Blocked","Female","done","20","F_jolt.wav","space","707.43805822","326","197249.01366","204115.069936","204881.868321","205648.442556","191815.228512","192582.106045","193348.933491","194115.743625","197998.313151","198765.071034","199532.421602","200298.614935","201065.325514","201831.787828","202598.577865","203348.168597","204891.828336","Mapping"
"Blocked","Female","done","20","F_done.wav","None","726.978422608","326","197249.01366","204115.069936","204881.868321","205648.442556","206415.216825","192582.106045","193348.933491","194115.743625","197998.313151","198765.071034","199532.421602","200298.614935","201065.325514","201831.787828","202598.577865","203348.168597","205658.1373","Mapping"
"Blocked","Female","done","20","F_cling.wav","space","446.386739146","326","197249.01366","204115.069936","204881.868321","205648.442556","206415.216825","207182.212462","193348.933491","194115.743625","197998.313151","198765.071034","199532.421602","200298.614935","201065.325514","201831.787828","202598.577865","203348.168597","206424.87756","Mapping"
"Blocked","Female","done","20","F_lash.wav","None","720.991592389","326","197249.01366","204115.069936","204881.868321","205648.442556","206415.216825","207182.212462","207948.981475","194115.743625","197998.313151","198765.071034","199532.421602","200298.614935","201065.325514","201831.787828","202598.577865","203348.168597","207192.364473","Mapping"
"Blocked","Female","done","20","F_priest.wav","None","718.437203672","326","197249.01366","204115.069936","204881.868321","205648.442556","206415.216825","207182.212462","207948.981475","208698.082477","197998.313151","198765.071034","199532.421602","200298.614935","201065.325514","201831.787828","202598.577865","203348.168597","207959.166568","Mapping"
"Blocked","Female","tile","17","F_park.wav","None","734.351584688","326","211832.087108","204115.069936","204881.868321","205648.442556","206415.216825","207182.212462","207948.981475","208698.082477","197998.313151","198765.071034","199532.421602","200298.614935","201065.325514","201831.787828","202598.577865","203348.168597","208707.468975","Mapping"
"Blocked","Female","tile","17","F_cad.wav","None","719.41109933","326","211832.087108","204115.069936","204881.868321","205648.442556","206415.216825","207182.212462","207948.981475","208698.082477","212581.633937","198765.071034","199532.421602","200298.614935","201065.325514","201831.787828","202598.577865","203348.168597","211842.63486","Mapping"
"Blocked","Female","tile","17","F_tile.wav","None","735.139049124","326","211832.087108","204115.069936","204881.868321","205648.442556","206415.216825","207182.212462","207948.981475","208698.082477","212581.633937","213348.329367","199532.421602","200298.614935","201065.325514","201831.787828","202598.577865","203348.168597","212591.062792","Mapping"
"Blocked","Female","tile","17","F_gnash.wav","space","457.009002566","326","211832.087108","204115.069936","204881.868321","205648.442556","206415.216825","207182.212462","207948.981475","208698.082477","212581.633937","213348.329367","214115.022015","200298.614935","201065.325514","201831.787828","202598.577865","203348.168597","213358.128612","Mapping"
"Blocked","Female","tile","17","F_priest.wav","None","729.60855905","326","211832.087108","204115.069936","204881.868321","205648.442556","206415.216825","207182.212462","207948.981475","208698.082477","212581.633937","213348.329367","214115.022015","214881.713117","201065.325514","201831.787828","202598.577865","203348.168597","214124.931943","Mapping"
"Blocked","Female","tile","17","F_bluff.wav","None","727.71456372","326","211832.087108","204115.069936","204881.868321","205648.442556","206415.216825","207182.212462","207948.981475","208698.082477","212581.633937","213348.329367","214115.022015","214881.713117","215648.162135","201831.787828","202598.577865","203348.168597","214891.263477","Mapping"
"Blocked","Female","tile","17","F_dime.wav","None","725.439667702","326","211832.087108","204115.069936","204881.868321","205648.442556","206415.216825","207182.212462","207948.981475","208698.082477","212581.633937","213348.329367","214115.022015","214881.713117","215648.162135","216414.422559","202598.577865","203348.168597","215657.77433","Mapping"
"Blocked","Female","tile","17","F_tile.wav","None","728.050634731","326","211832.087108","204115.069936","204881.868321","205648.442556","206415.216825","207182.212462","207948.981475","208698.082477","212581.633937","213348.329367","214115.022015","214881.713117","215648.162135","216414.422559","217181.830633","203348.168597","216423.511324","Mapping"
"Blocked","Female","tile","17","F_park.wav","space","551.560041495","326","211832.087108","204115.069936","204881.868321","205648.442556","206415.216825","207182.212462","207948.981475","208698.082477","212581.633937","213348.329367","214115.022015","214881.713117","215648.162135","216414.422559","217181.830633","217948.408577","217191.518575","Mapping"
"Blocked","Female","tile","17","F_tile.wav","None","721.997641958","326","211832.087108","218715.329085","204881.868321","205648.442556","206415.216825","207182.212462","207948.981475","208698.082477","212581.633937","213348.329367","214115.022015","214881.713117","215648.162135","216414.422559","217181.830633","217948.408577","217958.221117","Mapping"
"Blocked","Female","tile","17","F_jolt.wav","space","553.253073711","326","211832.087108","218715.329085","219464.765849","205648.442556","206415.216825","207182.212462","207948.981475","208698.082477","212581.633937","213348.329367","214115.022015","214881.713117","215648.162135","216414.422559","217181.830633","217948.408577","218725.767082","Mapping"
"Blocked","Female","tile","17","F_tile.wav","None","734.28387614","326","211832.087108","218715.329085","219464.765849","220231.617412","206415.216825","207182.212462","207948.981475","208698.082477","212581.633937","213348.329367","214115.022015","214881.713117","215648.162135","216414.422559","217181.830633","217948.408577","219474.541906","Mapping"
"Blocked","Female","tile","17","F_cling.wav","space","397.8057364","326","211832.087108","218715.329085","219464.765849","220231.617412","220998.071996","207182.212462","207948.981475","208698.082477","212581.633937","213348.329367","214115.022015","214881.713117","215648.162135","216414.422559","217181.830633","217948.408577","220241.196525","Mapping"
"Blocked","Female","tile","17","F_depth.wav","None","729.950195178","326","211832.087108","218715.329085","219464.765849","220231.617412","220998.071996","221764.648085","207948.981475","208698.082477","212581.633937","213348.329367","214115.022015","214881.713117","215648.162135","216414.422559","217181.830633","217948.408577","221007.545372","Mapping"
"Blocked","Female","tile","17","F_cling.wav","None","727.879971266","326","211832.087108","218715.329085","219464.765849","220231.617412","220998.071996","221764.648085","222531.555917","208698.082477","212581.633937","213348.329367","214115.022015","214881.713117","215648.162135","216414.422559","217181.830633","217948.408577","221774.137538","Mapping"
"Blocked","Female","tile","17","F_bluff.wav","None","724.612011109","326","211832.087108","218715.329085","219464.765849","220231.617412","220998.071996","221764.648085","222531.555917","223298.416755","212581.633937","213348.329367","214115.022015","214881.713117","215648.162135","216414.422559","217181.830633","217948.408577","222541.784603","Mapping"
"Blocked","Female","cave","11","F_lash.wav","None","721.995168831","326","226415.171686","218715.329085","219464.765849","220231.617412","220998.071996","221764.648085","222531.555917","223298.416755","212581.633937","213348.329367","214115.022015","214881.713117","215648.162135","216414.422559","217181.830633","217948.408577","223308.841148","Mapping"
"Blocked","Female","cave","11","F_cave.wav","None","720.835769549","326","226415.171686","218715.329085","219464.765849","220231.617412","220998.071996","221764.648085","222531.555917","223298.416755","227165.295741","213348.329367","214115.022015","214881.713117","215648.162135","216414.422559","217181.830633","217948.408577","226424.965674","Mapping"
"Blocked","Female","cave","11","F_dime.wav","space","543.666540645","326","226415.171686","218715.329085","219464.765849","220231.617412","220998.071996","221764.648085","222531.555917","223298.416755","227165.295741","227931.496494","214115.022015","214881.713117","215648.162135","216414.422559","217181.830633","217948.408577","227175.211544","Mapping"
"Blocked","Female","cave","11","F_cave.wav","None","732.914238703","326","226415.171686","218715.329085","219464.765849","220231.617412","220998.071996","221764.648085","222531.555917","223298.416755","227165.295741","227931.496494","228697.914287","214881.713117","215648.162135","216414.422559","217181.830633","217948.408577","227941.077772","Mapping"
"Blocked","Female","cave","11","F_jaw.wav","space","595.162738115","326","226415.171686","218715.329085","219464.765849","220231.617412","220998.071996","221764.648085","222531.555917","223298.416755","227165.295741","227931.496494","228697.914287","229464.503361","215648.162135","216414.422559","217181.830633","217948.408577","228707.690034","Mapping"
"Blocked","Female","cave","11","F_jolt.wav","None","728.241085541","326","226415.171686","218715.329085","219464.765849","220231.617412","220998.071996","221764.648085","222531.555917","223298.416755","227165.295741","227931.496494","228697.914287","229464.503361","230231.444275","216414.422559","217181.830633","217948.408577","229473.953549","Mapping"
"Blocked","Female","cave","11","F_depth.wav","None","724.87233486","326","226415.171686","218715.329085","219464.765849","220231.617412","220998.071996","221764.648085","222531.555917","223298.416755","227165.295741","227931.496494","228697.914287","229464.503361","230231.444275","230998.319025","217181.830633","217948.408577","230241.59845","Mapping"
"Blocked","Female","cave","11","F_park.wav","None","722.173561808","326","226415.171686","218715.329085","219464.765849","220231.617412","220998.071996","221764.648085","222531.555917","223298.416755","227165.295741","227931.496494","228697.914287","229464.503361","230231.444275","230998.319025","231765.087111","217948.408577","231008.728578","Mapping"
"Blocked","Female","cave","11","F_greet.wav","None","719.723055139","326","226415.171686","218715.329085","219464.765849","220231.617412","220998.071996","221764.648085","222531.555917","223298.416755","227165.295741","227931.496494","228697.914287","229464.503361","230231.444275","230998.319025","231765.087111","232514.554792","231775.598382","Mapping"
"Blocked","Female","cave","11","F_cave.wav","None","735.514385626","326","226415.171686","233281.357505","219464.765849","220231.617412","220998.071996","221764.648085","222531.555917","223298.416755","227165.295741","227931.496494","228697.914287","229464.503361","230231.444275","230998.319025","231765.087111","232514.554792","232524.127103","Mapping"
"Blocked","Female","cave","11","F_jolt.wav","space","403.377655428","326","226415.171686","233281.357505","234048.004705","220231.617412","220998.071996","221764.648085","222531.555917","223298.416755","227165.295741","227931.496494","228697.914287","229464.503361","230231.444275","230998.319025","231765.087111","232514.554792","233291.409963","Mapping"
"Blocked","Female","cave","11","F_romp.wav","None","730.384274386","326","226415.171686","233281.357505","234048.004705","234814.69055","220998.071996","221764.648085","222531.555917","223298.416755","227165.295741","227931.496494","228697.914287","229464.503361","230231.444275","230998.319025","231765.087111","232514.554792","234057.632667","Mapping"
"Blocked","Female","cave","11","F_greet.wav","None","727.994056419","326","226415.171686","233281.357505","234048.004705","234814.69055","235581.316416","221764.648085","222531.555917","223298.416755","227165.295741","227931.496494","228697.914287","229464.503361","230231.444275","230998.319025","231765.087111","232514.554792","234824.402917","Mapping"
"Blocked","Female","cave","11","F_cave.wav","None","725.872818846","326","226415.171686","233281.357505","234048.004705","234814.69055","235581.316416","236348.440979","222531.555917","223298.416755","227165.295741","227931.496494","228697.914287","229464.503361","230231.444275","230998.319025","231765.087111","232514.554792","235590.886873","Mapping"
"Blocked","Female","cave","11","F_dime.wav","space","392.011520918","326","226415.171686","233281.357505","234048.004705","234814.69055","235581.316416","236348.440979","237115.009029","223298.416755","227165.295741","227931.496494","228697.914287","229464.503361","230231.444275","230998.319025","231765.087111","232514.554792","236358.739538","Mapping"
"Blocked","Female","cave","11","F_knife.wav","None","720.069947187","326","226415.171686","233281.357505","234048.004705","234814.69055","235581.316416","236348.440979","237115.009029","237864.314704","227165.295741","227931.496494","228697.914287","229464.503361","230231.444275","230998.319025","231765.087111","232514.554792","237125.029024","Mapping"
"Blocked","Female","done","23","F_priest.wav","None","734.988172539","326","240998.084672","233281.357505","234048.004705","234814.69055","235581.316416","236348.440979","237115.009029","237864.314704","227165.295741","227931.496494","228697.914287","229464.503361","230231.444275","230998.319025","231765.087111","232514.554792","237874.594094","Mapping"
"Blocked","Female","done","23","F_romp.wav","None","720.095918048","326","240998.084672","233281.357505","234048.004705","234814.69055","235581.316416","236348.440979","237115.009029","237864.314704","241747.906975","227931.496494","228697.914287","229464.503361","230231.444275","230998.319025","231765.087111","232514.554792","241008.616657","Mapping"
"Blocked","Female","done","23","F_lash.wav","None","735.704526771","326","240998.084672","233281.357505","234048.004705","234814.69055","235581.316416","236348.440979","237115.009029","237864.314704","241747.906975","242514.616627","228697.914287","229464.503361","230231.444275","230998.319025","231765.087111","232514.554792","241757.427654","Mapping"
"Blocked","Female","done","23","F_dime.wav","None","733.329149429","326","240998.084672","233281.357505","234048.004705","234814.69055","235581.316416","236348.440979","237115.009029","237864.314704","241747.906975","242514.616627","243280.845824","229464.503361","230231.444275","230998.319025","231765.087111","232514.554792","242524.326829","Mapping"
"Blocked","Female","done","23","F_romp.wav","None","733.545879368","326","240998.084672","233281.357505","234048.004705","234814.69055","235581.316416","236348.440979","237115.009029","237864.314704","241747.906975","242514.616627","243280.845824","244047.782718","230231.444275","230998.319025","231765.087111","232514.554792","243288.436953","Mapping"
"Blocked","Female","done","23","F_cling.wav","None","728.404638357","326","240998.084672","233281.357505","234048.004705","234814.69055","235581.316416","236348.440979","237115.009029","237864.314704","241747.906975","242514.616627","243280.845824","244047.782718","244814.467018","230998.319025","231765.087111","232514.554792","244058.08777","Mapping"
"Blocked","Female","done","23","F_done.wav","None","726.511261426","326","240998.084672","233281.357505","234048.004705","234814.69055","235581.316416","236348.440979","237115.009029","237864.314704","241747.906975","242514.616627","243280.845824","244047.782718","244814.467018","245581.16183","231765.087111","232514.554792","244824.46908","Mapping"
"Blocked","Female","done","23","F_romp.wav","space","456.04283642","326","240998.084672","233281.357505","234048.004705","234814.69055","235581.316416","236348.440979","237115.009029","237864.314704","241747.906975","242514.616627","243280.845824","244047.782718","244814.467018","245581.16183","246348.221775","232514.554792","245590.514937","Mapping"
"Blocked","Female","done","23","F_done.wav","None","721.020963974","326","240998.084672","233281.357505","234048.004705","234814.69055","235581.316416","236348.440979","237115.009029","237864.314704","241747.906975","242514.616627","243280.845824","244047.782718","244814.467018","245581.16183","246348.221775","247114.825999","246358.486634","Mapping"
"Blocked","Female","done","23","F_park.wav","space","561.547572725","326","240998.084672","247864.377466","234048.004705","234814.69055","235581.316416","236348.440979","237115.009029","237864.314704","241747.906975","242514.616627","243280.845824","244047.782718","244814.467018","245581.16183","246348.221775","247114.825999","247125.015111","Mapping"
"Blocked","Female","done","23","F_cling.wav","None","733.96357242","326","240998.084672","247864.377466","248630.339846","234814.69055","235581.316416","236348.440979","237115.009029","237864.314704","241747.906975","242514.616627","243280.845824","244047.782718","244814.467018","245581.16183","246348.221775","247114.825999","247874.082413","Mapping"
"Blocked","Female","done","23","F_done.wav","None","735.954957083","326","240998.084672","247864.377466","248630.339846","249397.622087","235581.316416","236348.440979","237115.009029","237864.314704","241747.906975","242514.616627","243280.845824","244047.782718","244814.467018","245581.16183","246348.221775","247114.825999","248639.919578","Mapping"
"Blocked","Female","done","23","F_romp.wav","space","495.03576057","326","240998.084672","247864.377466","248630.339846","249397.622087","250164.142834","236348.440979","237115.009029","237864.314704","241747.906975","242514.616627","243280.845824","244047.782718","244814.467018","245581.16183","246348.221775","247114.825999","249407.416385","Mapping"
"Blocked","Female","done","23","F_done.wav","None","729.061013553","326","240998.084672","247864.377466","248630.339846","249397.622087","250164.142834","250930.904118","237115.009029","237864.314704","241747.906975","242514.616627","243280.845824","244047.782718","244814.467018","245581.16183","246348.221775","247114.825999","250175.385608","Mapping"
"Blocked","Female","done","23","F_jaw.wav","space","529.558349401","326","240998.084672","247864.377466","248630.339846","249397.622087","250164.142834","250930.904118","251697.543279","237864.314704","241747.906975","242514.616627","243280.845824","244047.782718","244814.467018","245581.16183","246348.221775","247114.825999","250940.892886","Mapping"
"Blocked","Female","done","23","F_cad.wav","None","725.483879447","326","240998.084672","247864.377466","248630.339846","249397.622087","250164.142834","250930.904118","251697.543279","252464.403498","241747.906975","242514.616627","243280.845824","244047.782718","244814.467018","245581.16183","246348.221775","247114.825999","251708.377326","Mapping"
"Blocked","Female","tile","16","F_romp.wav","None","724.169583991","326","255581.410405","247864.377466","248630.339846","249397.622087","250164.142834","250930.904118","251697.543279","252464.403498","241747.906975","242514.616627","243280.845824","244047.782718","244814.467018","245581.16183","246348.221775","247114.825999","252474.323629","Mapping"
"Blocked","Female","tile","16","F_tile.wav","None","710.748684593","326","255581.410405","247864.377466","248630.339846","249397.622087","250164.142834","250930.904118","251697.543279","252464.403498","256330.964963","242514.616627","243280.845824","244047.782718","244814.467018","245581.16183","246348.221775","247114.825999","255600.630775","Mapping"
"Blocked","Female","tile","16","F_depth.wav","space","465.633698273","326","255581.410405","247864.377466","248630.339846","249397.622087","250164.142834","250930.904118","251697.543279","252464.403498","256330.964963","257097.501788","243280.845824","244047.782718","244814.467018","245581.16183","246348.221775","247114.825999","256340.731127","Mapping"
"Blocked","Female","tile","16","F_cling.wav","None","733.060477767","326","255581.410405","247864.377466","248630.339846","249397.622087","250164.142834","250930.904118","251697.543279","252464.403498","256330.964963","257097.501788","257863.962246","244047.782718","244814.467018","245581.16183","246348.221775","247114.825999","257107.063896","Mapping"
"Blocked","Female","tile","16","F_lash.wav","None","731.023026165","326","255581.410405","247864.377466","248630.339846","249397.622087","250164.142834","250930.904118","251697.543279","252464.403498","256330.964963","257097.501788","257863.962246","258630.974269","244814.467018","245581.16183","246348.221775","247114.825999","257873.803538","Mapping"
"Blocked","Female","tile","16","F_park.wav","None","729.063795414","326","255581.410405","247864.377466","248630.339846","249397.622087","250164.142834","250930.904118","251697.543279","252464.403498","256330.964963","257097.501788","257863.962246","258630.974269","259397.351561","245581.16183","246348.221775","247114.825999","258640.519992","Mapping"
"Blocked","Female","tile","16","F_park.wav","None","727.303054184","326","255581.410405","247864.377466","248630.339846","249397.622087","250164.142834","250930.904118","251697.543279","252464.403498","256330.964963","257097.501788","257863.962246","258630.974269","259397.351561","260164.156438","246348.221775","247114.825999","259406.89079","Mapping"
"Blocked","Female","tile","16","F_jaw.wav","None","725.653306115","326","255581.410405","247864.377466","248630.339846","249397.622087","250164.142834","250930.904118","251697.543279","252464.403498","256330.964963","257097.501788","257863.962246","258630.974269","259397.351561","260164.156438","260931.509789","247114.825999","260173.694122","Mapping"
"Blocked","Female","tile","16","F_tile.wav","None","722.019593231","326","255581.410405","247864.377466","248630.339846","249397.622087","250164.142834","250930.904118","251697.543279","252464.403498","256330.964963","257097.501788","257863.962246","258630.974269","259397.351561","260164.156438","260931.509789","261697.594602","260941.668911","Mapping"
"Blocked","Female","tile","16","F_reek.wav","space","466.704365332","326","255581.410405","262447.487396","248630.339846","249397.622087","250164.142834","250930.904118","251697.543279","252464.403498","256330.964963","257097.501788","257863.962246","258630.974269","259397.351561","260164.156438","260931.509789","261697.594602","261707.549979","Mapping"
"Blocked","Female","tile","16","F_tile.wav","None","735.369692091","326","255581.410405","262447.487396","263214.180662","249397.622087","250164.142834","250930.904118","251697.543279","252464.403498","256330.964963","257097.501788","257863.962246","258630.974269","259397.351561","260164.156438","260931.509789","261697.594602","262457.20811","Mapping"
"Blocked","Female","tile","16","F_cad.wav","space","349.976642057","326","255581.410405","262447.487396","263214.180662","263980.805291","250164.142834","250930.904118","251697.543279","252464.403498","256330.964963","257097.501788","257863.962246","258630.974269","259397.351561","260164.156438","260931.509789","261697.594602","263224.261872","Mapping"
"Blocked","Female","tile","16","F_knife.wav","None","730.781252962","326","255581.410405","262447.487396","263214.180662","263980.805291","264747.134969","250930.904118","251697.543279","252464.403498","256330.964963","257097.501788","257863.962246","258630.974269","259397.351561","260164.156438","260931.509789","261697.594602","263990.576401","Mapping"
"Blocked","Female","tile","16","F_knife.wav","None","729.713059496","326","255581.410405","262447.487396","263214.180662","263980.805291","264747.134969","265513.944484","251697.543279","252464.403498","256330.964963","257097.501788","257863.962246","258630.974269","259397.351561","260164.156438","260931.509789","261697.594602","264756.267637","Mapping"
"Blocked","Female","tile","16","F_tile.wav","None","727.316658013","326","255581.410405","262447.487396","263214.180662","263980.805291","264747.134969","265513.944484","266280.764202","252464.403498","256330.964963","257097.501788","257863.962246","258630.974269","259397.351561","260164.156438","260931.509789","261697.594602","265523.450633","Mapping"
"Blocked","Female","tile","16","F_romp.wav","space","675.92465179","326","255581.410405","262447.487396","263214.180662","263980.805291","264747.134969","265513.944484","266280.764202","267047.530123","256330.964963","257097.501788","257863.962246","258630.974269","259397.351561","260164.156438","260931.509789","261697.594602","266290.23325","Mapping"
"Blocked","Female","ball","6","F_jaw.wav","None","719.764174893","326","270164.334212","262447.487396","263214.180662","263980.805291","264747.134969","265513.944484","266280.764202","267047.530123","256330.964963","257097.501788","257863.962246","258630.974269","259397.351561","260164.156438","260931.509789","261697.594602","267059.666717","Mapping"
"Blocked","Female","ball","6","F_cad.wav","None","720.702824648","326","270164.334212","262447.487396","263214.180662","263980.805291","264747.134969","265513.944484","266280.764202","267047.530123","270931.08653","257097.501788","257863.962246","258630.974269","259397.351561","260164.156438","260931.509789","261697.594602","270174.562281","Mapping"
"Blocked","Female","ball","6","F_lash.wav","None","718.582824338","326","270164.334212","262447.487396","263214.180662","263980.805291","264747.134969","265513.944484","266280.764202","267047.530123","270931.08653","271680.625321","257863.962246","258630.974269","259397.351561","260164.156438","260931.509789","261697.594602","270941.60182","Mapping"
"Blocked","Female","ball","6","F_lash.wav","None","734.830803238","326","270164.334212","262447.487396","263214.180662","263980.805291","264747.134969","265513.944484","266280.764202","267047.530123","270931.08653","271680.625321","272447.270665","258630.974269","259397.351561","260164.156438","260931.509789","261697.594602","271690.034699","Mapping"
"Blocked","Female","ball","6","F_cad.wav","None","732.853022404","326","270164.334212","262447.487396","263214.180662","263980.805291","264747.134969","265513.944484","266280.764202","267047.530123","270931.08653","271680.625321","272447.270665","273213.749365","259397.351561","260164.156438","260931.509789","261697.594602","272456.683443","Mapping"
"Blocked","Female","ball","6","F_ball.wav","None","730.512272101","326","270164.334212","262447.487396","263214.180662","263980.805291","264747.134969","265513.944484","266280.764202","267047.530123","270931.08653","271680.625321","272447.270665","273213.749365","273980.629681","260164.156438","260931.509789","261697.594602","273223.726075","Mapping"
"Blocked","Female","ball","6","F_lash.wav","space","575.658546761","326","270164.334212","262447.487396","263214.180662","263980.805291","264747.134969","265513.944484","266280.764202","267047.530123","270931.08653","271680.625321","272447.270665","273213.749365","273980.629681","274747.117655","260931.509789","261697.594602","273990.376984","Mapping"
"Blocked","Female","ball","6","F_reek.wav","None","726.194977295","326","270164.334212","262447.487396","263214.180662","263980.805291","264747.134969","265513.944484","266280.764202","267047.530123","270931.08653","271680.625321","272447.270665","273213.749365","273980.629681","274747.117655","275514.43978","261697.594602","274756.646065","Mapping"
"Blocked","Female","ball","6","F_ball.wav","None","723.21485728","326","270164.334212","262447.487396","263214.180662","263980.805291","264747.134969","265513.944484","266280.764202","267047.530123","270931.08653","271680.625321","272447.270665","273213.749365","273980.629681","274747.117655","275514.43978","276281.002265","275524.458228","Mapping"
"Blocked","Female","ball","6","F_gnash.wav","space","419.056755491","326","270164.334212","277047.407691","263214.180662","263980.805291","264747.134969","265513.944484","266280.764202","267047.530123","270931.08653","271680.625321","272447.270665","273213.749365","273980.629681","274747.117655","275514.43978","276281.002265","276290.950222","Mapping"
"Blocked","Female","ball","6","F_depth.wav","None","718.782240991","326","270164.334212","277047.407691","277796.999351","263980.805291","264747.134969","265513.944484","266280.764202","267047.530123","270931.08653","271680.625321","272447.270665","273213.749365","273980.629681","274747.117655","275514.43978","276281.002265","277057.811369","Mapping"
"Blocked","Female","ball","6","F_jaw.wav","None","734.801122919","326","270164.334212","277047.407691","277796.999351","278563.934081","264747.134969","265513.944484","266280.764202","267047.530123","270931.08653","271680.625321","272447.270665","273213.749365","273980.629681","274747.117655","275514.43978","276281.002265","277806.49375","Mapping"
"Blocked","Female","ball","6","F_ball.wav","None","732.872191351","326","270164.334212","277047.407691","277796.999351","278563.934081","279330.497803","265513.944484","266280.764202","267047.530123","270931.08653","271680.625321","272447.270665","273213.749365","273980.629681","274747.117655","275514.43978","276281.002265","278573.089317","Mapping"
"Blocked","Female","ball","6","F_park.wav","space","377.650734968","326","270164.334212","277047.407691","277796.999351","278563.934081","279330.497803","280096.83521","266280.764202","267047.530123","270931.08653","271680.625321","272447.270665","273213.749365","273980.629681","274747.117655","275514.43978","276281.002265","279340.301376","Mapping"
"Blocked","Female","ball","6","F_ball.wav","None","732.357417699","326","270164.334212","277047.407691","277796.999351","278563.934081","279330.497803","280096.83521","280863.409135","267047.530123","270931.08653","271680.625321","272447.270665","273213.749365","273980.629681","274747.117655","275514.43978","276281.002265","280106.165749","Mapping"
"Blocked","Female","ball","6","F_priest.wav","space","549.070269801","326","270164.334212","277047.407691","277796.999351","278563.934081","279330.497803","280096.83521","280863.409135","281630.488249","270931.08653","271680.625321","272447.270665","273213.749365","273980.629681","274747.117655","275514.43978","276281.002265","280872.85314","Mapping"
"Blocked","Female","tile","18","F_jaw.wav","None","727.958501317","326","284763.983981","277047.407691","277796.999351","278563.934081","279330.497803","280096.83521","280863.409135","281630.488249","270931.08653","271680.625321","272447.270665","273213.749365","273980.629681","274747.117655","275514.43978","276281.002265","281639.929162","Mapping"
"Blocked","Female","tile","18","F_tile.wav","None","720.602034591","326","284763.983981","277047.407691","277796.999351","278563.934081","279330.497803","280096.83521","280863.409135","281630.488249","285530.807718","271680.625321","272447.270665","273213.749365","273980.629681","274747.117655","275514.43978","276281.002265","284774.494015","Mapping"
"Blocked","Female","tile","18","F_depth.wav","None","719.088013284","326","284763.983981","277047.407691","277796.999351","278563.934081","279330.497803","280096.83521","280863.409135","281630.488249","285530.807718","286279.942111","272447.270665","273213.749365","273980.629681","274747.117655","275514.43978","276281.002265","285540.904387","Mapping"
"Blocked","Female","tile","18","F_priest.wav","space","76.9114708528","326","284763.983981","277047.407691","277796.999351","278563.934081","279330.497803","280096.83521","280863.409135","281630.488249","285530.807718","286279.942111","287046.837576","273213.749365","273980.629681","274747.117655","275514.43978","276281.002265","286288.931631","Mapping"
"Blocked","Female","tile","18","F_knife.wav","None","732.485415414","326","284763.983981","277047.407691","277796.999351","278563.934081","279330.497803","280096.83521","280863.409135","281630.488249","285530.807718","286279.942111","287046.837576","287813.723456","273980.629681","274747.117655","275514.43978","276281.002265","287056.511914","Mapping"
"Blocked","Female","tile","18","F_knife.wav","None","730.576889124","326","284763.983981","277047.407691","277796.999351","278563.934081","279330.497803","280096.83521","280863.409135","281630.488249","285530.807718","286279.942111","287046.837576","287813.723456","288580.358907","274747.117655","275514.43978","276281.002265","287823.458084","Mapping"
"Blocked","Female","tile","18","F_greet.wav","None","729.153765365","326","284763.983981","277047.407691","277796.999351","278563.934081","279330.497803","280096.83521","280863.409135","281630.488249","285530.807718","286279.942111","287046.837576","287813.723456","288580.358907","289347.049081","275514.43978","276281.002265","288589.831973","Mapping"
"Blocked","Female","tile","18","F_bluff.wav","None","727.100546006","326","284763.983981","277047.407691","277796.999351","278563.934081","279330.497803","280096.83521","280863.409135","281630.488249","285530.807718","286279.942111","287046.837576","287813.723456","288580.358907","289347.049081","290113.655469","276281.002265","289356.728057","Mapping"
"Blocked","Female","tile","18","F_tile.wav","None","725.379997399","326","284763.983981","277047.407691","277796.999351","278563.934081","279330.497803","280096.83521","280863.409135","281630.488249","285530.807718","286279.942111","287046.837576","287813.723456","288580.358907","289347.049081","290113.655469","290880.737056","290123.268591","Mapping"
"Blocked","Female","tile","18","F_dime.wav","space","482.891437132","326","284763.983981","291647.297996","277796.999351","278563.934081","279330.497803","280096.83521","280863.409135","281630.488249","285530.807718","286279.942111","287046.837576","287813.723456","288580.358907","289347.049081","290113.655469","290880.737056","290890.845165","Mapping"
"Blocked","Female","tile","18","F_priest.wav","None","720.348203089","326","284763.983981","291647.297996","292413.7566","278563.934081","279330.497803","280096.83521","280863.409135","281630.488249","285530.807718","286279.942111","287046.837576","287813.723456","288580.358907","289347.049081","290113.655469","290880.737056","291657.352618","Mapping"
"Blocked","Female","tile","18","F_cad.wav","None","719.219411723","326","284763.983981","291647.297996","292413.7566","293163.667326","279330.497803","280096.83521","280863.409135","281630.488249","285530.807718","286279.942111","287046.837576","287813.723456","288580.358907","289347.049081","290113.655469","290880.737056","292423.469894","Mapping"
"Blocked","Female","tile","18","F_tile.wav","None","734.196071047","326","284763.983981","291647.297996","292413.7566","293163.667326","293930.247744","280096.83521","280863.409135","281630.488249","285530.807718","286279.942111","287046.837576","287813.723456","288580.358907","289347.049081","290113.655469","290880.737056","293173.407828","Mapping"
"Blocked","Female","tile","18","F_dime.wav","space","489.668204449","326","284763.983981","291647.297996","292413.7566","293163.667326","293930.247744","294696.747158","280863.409135","281630.488249","285530.807718","286279.942111","287046.837576","287813.723456","288580.358907","289347.049081","290113.655469","290880.737056","293940.055954","Mapping"
"Blocked","Female","tile","18","F_tile.wav","None","730.148684233","326","284763.983981","291647.297996","292413.7566","293163.667326","293930.247744","294696.747158","295463.626855","281630.488249","285530.807718","286279.942111","287046.837576","287813.723456","288580.358907","289347.049081","290113.655469","290880.737056","294706.301537","Mapping"
"Blocked","Female","tile","18","F_jolt.wav","space","628.28693632","326","284763.983981","291647.297996","292413.7566","293163.667326","293930.247744","294696.747158","295463.626855","296229.929326","285530.807718","286279.942111","287046.837576","287813.723456","288580.358907","289347.049081","290113.655469","290880.737056","295473.344169","Mapping"
"Blocked","Female","ball","4","F_romp.wav","None","725.918267854","326","299363.888199","291647.297996","292413.7566","293163.667326","293930.247744","294696.747158","295463.626855","296229.929326","285530.807718","286279.942111","287046.837576","287813.723456","288580.358907","289347.049081","290113.655469","290880.737056","296239.291091","Mapping"
"Blocked","Female","ball","4","F_ball.wav","None","720.860193949","326","299363.888199","291647.297996","292413.7566","293163.667326","293930.247744","294696.747158","295463.626855","296229.929326","300130.456869","286279.942111","287046.837576","287813.723456","288580.358907","289347.049081","290113.655469","290880.737056","299373.826572","Mapping"
"Blocked","Female","ball","4","F_gnash.wav","space","568.889817689","326","299363.888199","291647.297996","292413.7566","293163.667326","293930.247744","294696.747158","295463.626855","296229.929326","300130.456869","300880.150555","287046.837576","287813.723456","288580.358907","289347.049081","290113.655469","290880.737056","300140.674424","Mapping"
"Blocked","Female","ball","4","F_cad.wav","None","733.359757345","326","299363.888199","291647.297996","292413.7566","293163.667326","293930.247744","294696.747158","295463.626855","296229.929326","300130.456869","300880.150555","301646.589062","287813.723456","288580.358907","289347.049081","290113.655469","290880.737056","300890.159728","Mapping"
"Blocked","Female","ball","4","F_priest.wav","None","732.367620803","326","299363.888199","291647.297996","292413.7566","293163.667326","293930.247744","294696.747158","295463.626855","296229.929326","300130.456869","300880.150555","301646.589062","302413.218638","288580.358907","289347.049081","290113.655469","290880.737056","301656.061201","Mapping"
"Blocked","Female","ball","4","F_lash.wav","None","730.450746603","326","299363.888199","291647.297996","292413.7566","293163.667326","293930.247744","294696.747158","295463.626855","296229.929326","300130.456869","300880.150555","301646.589062","302413.218638","303180.088133","289347.049081","290113.655469","290880.737056","302422.726333","Mapping"
"Blocked","Female","ball","4","F_lash.wav","None","728.553968947","326","299363.888199","291647.297996","292413.7566","293163.667326","293930.247744","294696.747158","295463.626855","296229.929326","300130.456869","300880.150555","301646.589062","302413.218638","303180.088133","303946.528186","290113.655469","290880.737056","303189.905928","Mapping"
"Blocked","Female","ball","4","F_ball.wav","None","726.781788282","326","299363.888199","291647.297996","292413.7566","293163.667326","293930.247744","294696.747158","295463.626855","296229.929326","300130.456869","300880.150555","301646.589062","302413.218638","303180.088133","303946.528186","304713.471264","290880.737056","303956.445535","Mapping"
"Blocked","Female","ball","4","F_greet.wav","space","626.346564852","326","299363.888199","291647.297996","292413.7566","293163.667326","293930.247744","294696.747158","295463.626855","296229.929326","300130.456869","300880.150555","301646.589062","302413.218638","303180.088133","303946.528186","304713.471264","305480.388371","304723.160134","Mapping"
"Blocked","Female","ball","4","F_knife.wav","None","721.065485384","326","299363.888199","306247.030932","292413.7566","293163.667326","293930.247744","294696.747158","295463.626855","296229.929326","300130.456869","300880.150555","301646.589062","302413.218638","303180.088133","303946.528186","304713.471264","305480.388371","305490.952201","Mapping"
"Blocked","Female","ball","4","F_ball.wav","None","720.054797828","326","299363.888199","306247.030932","306996.675151","293163.667326","293930.247744","294696.747158","295463.626855","296229.929326","300130.456869","300880.150555","301646.589062","302413.218638","303180.088133","303946.528186","304713.471264","305480.388371","306256.924475","Mapping"
"Blocked","Female","ball","4","F_jaw.wav","space","518.958036788","326","299363.888199","306247.030932","306996.675151","307763.399953","293930.247744","294696.747158","295463.626855","296229.929326","300130.456869","300880.150555","301646.589062","302413.218638","303180.088133","303946.528186","304713.471264","305480.388371","307006.467594","Mapping"
"Blocked","Female","ball","4","F_park.wav","None","732.402866241","326","299363.888199","306247.030932","306996.675151","307763.399953","308529.824238","294696.747158","295463.626855","296229.929326","300130.456869","300880.150555","301646.589062","302413.218638","303180.088133","303946.528186","304713.471264","305480.388371","307773.458594","Mapping"
"Blocked","Female","ball","4","F_ball.wav","None","731.455250178","326","299363.888199","306247.030932","306996.675151","307763.399953","308529.824238","309296.381777","295463.626855","296229.929326","300130.456869","300880.150555","301646.589062","302413.218638","303180.088133","303946.528186","304713.471264","305480.388371","308539.349246","Mapping"
"Blocked","Female","ball","4","F_knife.wav","space","483.383949846","326","299363.888199","306247.030932","306996.675151","307763.399953","308529.824238","309296.381777","310063.278479","296229.929326","300130.456869","300880.150555","301646.589062","302413.218638","303180.088133","303946.528186","304713.471264","305480.388371","309306.032309","Mapping"
"Blocked","Female","ball","4","F_gnash.wav","None","726.772204041","326","299363.888199","306247.030932","306996.675151","307763.399953","308529.824238","309296.381777","310063.278479","310829.980401","300130.456869","300880.150555","301646.589062","302413.218638","303180.088133","303946.528186","304713.471264","305480.388371","310073.098438","Mapping"
"Blocked","Female","done","24","F_jolt.wav","None","724.701980129","326","313963.981013","306247.030932","306996.675151","307763.399953","308529.824238","309296.381777","310063.278479","310829.980401","300130.456869","300880.150555","301646.589062","302413.218638","303180.088133","303946.528186","304713.471264","305480.388371","310840.027912","Mapping"
"Blocked","Female","done","24","F_romp.wav","None","720.379120205","326","313963.981013","306247.030932","306996.675151","307763.399953","308529.824238","309296.381777","310063.278479","310829.980401","314730.291832","300880.150555","301646.589062","302413.218638","303180.088133","303946.528186","304713.471264","305480.388371","313974.05975","Mapping"
"Blocked","Female","done","24","F_done.wav","None","718.099586666","326","313963.981013","306247.030932","306996.675151","307763.399953","308529.824238","309296.381777","310063.278479","310829.980401","314730.291832","315479.854429","301646.589062","302413.218638","303180.088133","303946.528186","304713.471264","305480.388371","314741.33117","Mapping"
"Blocked","Female","done","24","F_jolt.wav","space","563.435074873","326","313963.981013","306247.030932","306996.675151","307763.399953","308529.824238","309296.381777","310063.278479","310829.980401","314730.291832","315479.854429","316246.376104","302413.218638","303180.088133","303946.528186","304713.471264","305480.388371","315489.888027","Mapping"
"Blocked","Female","done","24","F_jaw.wav","None","732.754705008","326","313963.981013","306247.030932","306996.675151","307763.399953","308529.824238","309296.381777","310063.278479","310829.980401","314730.291832","315479.854429","316246.376104","317013.179744","303180.088133","303946.528186","304713.471264","305480.388371","316256.257279","Mapping"
"Blocked","Female","done","24","F_romp.wav","None","731.036629993","326","313963.981013","306247.030932","306996.675151","307763.399953","308529.824238","309296.381777","310063.278479","310829.980401","314730.291832","315479.854429","316246.376104","317013.179744","317779.857552","303946.528186","304713.471264","305480.388371","317022.88531","Mapping"
"Blocked","Female","done","24","F_cling.wav","None","729.784478433","326","313963.981013","306247.030932","306996.675151","307763.399953","308529.824238","309296.381777","310063.278479","310829.980401","314730.291832","315479.854429","316246.376104","317013.179744","317779.857552","318546.271634","304713.471264","305480.388371","317789.410694","Mapping"
"Blocked","Female","done","24","F_done.wav","None","727.697249968","326","313963.981013","306247.030932","306996.675151","307763.399953","308529.824238","309296.381777","310063.278479","310829.980401","314730.291832","315479.854429","316246.376104","317013.179744","317779.857552","318546.271634","319313.446282","305480.388371","318556.442814","Mapping"
"Blocked","Female","done","24","F_romp.wav","space","569.282467477","326","313963.981013","306247.030932","306996.675151","307763.399953","308529.824238","309296.381777","310063.278479","310829.980401","314730.291832","315479.854429","316246.376104","317013.179744","317779.857552","318546.271634","319313.446282","320080.242812","319323.964046","Mapping"
"Blocked","Female","done","24","F_jaw.wav","None","722.928563133","326","313963.981013","320846.679774","306996.675151","307763.399953","308529.824238","309296.381777","310063.278479","310829.980401","314730.291832","315479.854429","316246.376104","317013.179744","317779.857552","318546.271634","319313.446282","320080.242812","320090.221686","Mapping"
"Blocked","Female","done","24","F_done.wav","None","721.284688916","326","313963.981013","320846.679774","321613.501965","307763.399953","308529.824238","309296.381777","310063.278479","310829.980401","314730.291832","315479.854429","316246.376104","317013.179744","317779.857552","318546.271634","319313.446282","320080.242812","320856.998738","Mapping"
"Blocked","Female","done","24","F_depth.wav","None","720.18032195","326","313963.981013","320846.679774","321613.501965","322380.064141","308529.824238","309296.381777","310063.278479","310829.980401","314730.291832","315479.854429","316246.376104","317013.179744","317779.857552","318546.271634","319313.446282","320080.242812","321623.579465","Mapping"
"Blocked","Female","done","24","F_romp.wav","space","71.0167749785","326","313963.981013","320846.679774","321613.501965","322380.064141","323129.661366","309296.381777","310063.278479","310829.980401","314730.291832","315479.854429","316246.376104","317013.179744","317779.857552","318546.271634","319313.446282","320080.242812","322390.150298","Mapping"
"Blocked","Female","done","24","F_done.wav","None","733.46487619","326","313963.981013","320846.679774","321613.501965","322380.064141","323129.661366","323896.219832","310063.278479","310829.980401","314730.291832","315479.854429","316246.376104","317013.179744","317779.857552","318546.271634","319313.446282","320080.242812","323139.22904","Mapping"
"Blocked","Female","done","24","F_greet.wav","space","514.998764731","326","313963.981013","320846.679774","321613.501965","322380.064141","323129.661366","323896.219832","324663.018835","310829.980401","314730.291832","315479.854429","316246.376104","317013.179744","317779.857552","318546.271634","319313.446282","320080.242812","323906.139036","Mapping"
"Blocked","Female","done","24","F_priest.wav","None","728.876745794","326","313963.981013","320846.679774","321613.501965","322380.064141","323129.661366","323896.219832","324663.018835","325429.831133","314730.291832","315479.854429","316246.376104","317013.179744","317779.857552","318546.271634","319313.446282","320080.242812","324672.870021","Mapping"
"Blocked","Female","tile","15","F_jolt.wav","None","727.280484978","326","328563.234421","320846.679774","321613.501965","322380.064141","323129.661366","323896.219832","324663.018835","325429.831133","314730.291832","315479.854429","316246.376104","317013.179744","317779.857552","318546.271634","319313.446282","320080.242812","325439.531133","Mapping"
"Blocked","Female","tile","15","F_park.wav","None","720.439718571","326","328563.234421","320846.679774","321613.501965","322380.064141","323129.661366","323896.219832","324663.018835","325429.831133","329330.013637","315479.854429","316246.376104","317013.179744","317779.857552","318546.271634","319313.446282","320080.242812","328573.816802","Mapping"
"Blocked","Female","tile","15","F_greet.wav","None","719.439233653","326","328563.234421","320846.679774","321613.501965","322380.064141","323129.661366","323896.219832","324663.018835","325429.831133","329330.013637","330078.989115","316246.376104","317013.179744","317779.857552","318546.271634","319313.446282","320080.242812","329340.054038","Mapping"
"Blocked","Female","tile","15","F_tile.wav","None","736.056675203","326","328563.234421","320846.679774","321613.501965","322380.064141","323129.661366","323896.219832","324663.018835","325429.831133","329330.013637","330078.989115","330846.025872","317013.179744","317779.857552","318546.271634","319313.446282","320080.242812","330088.564518","Mapping"
"Blocked","Female","tile","15","F_dime.wav","space","333.415161353","326","328563.234421","320846.679774","321613.501965","322380.064141","323129.661366","323896.219832","324663.018835","325429.831133","329330.013637","330078.989115","330846.025872","331612.736452","317779.857552","318546.271634","319313.446282","320080.242812","330855.600348","Mapping"
"Blocked","Female","tile","15","F_depth.wav","None","732.016399968","326","328563.234421","320846.679774","321613.501965","322380.064141","323129.661366","323896.219832","324663.018835","325429.831133","329330.013637","330078.989115","330846.025872","331612.736452","332379.578121","318546.271634","319313.446282","320080.242812","331622.296705","Mapping"
"Blocked","Female","tile","15","F_priest.wav","None","730.518146418","326","328563.234421","320846.679774","321613.501965","322380.064141","323129.661366","323896.219832","324663.018835","325429.831133","329330.013637","330078.989115","330846.025872","331612.736452","332379.578121","333146.107834","319313.446282","320080.242812","332388.944832","Mapping"
"Blocked","Female","tile","15","F_dime.wav","None","728.817075491","326","328563.234421","320846.679774","321613.501965","322380.064141","323129.661366","323896.219832","324663.018835","325429.831133","329330.013637","330078.989115","330846.025872","331612.736452","332379.578121","333146.107834","333912.962179","320080.242812","333155.736415","Mapping"
"Blocked","Female","tile","15","F_cling.wav","None","726.775604766","326","328563.234421","320846.679774","321613.501965","322380.064141","323129.661366","323896.219832","324663.018835","325429.831133","329330.013637","330078.989115","330846.025872","331612.736452","332379.578121","333146.107834","333912.962179","334679.550635","333922.960841","Mapping"
"Blocked","Female","tile","15","F_knife.wav","None","725.957842078","326","328563.234421","335446.015113","321613.501965","322380.064141","323129.661366","323896.219832","324663.018835","325429.831133","329330.013637","330078.989115","330846.025872","331612.736452","332379.578121","333146.107834","333912.962179","334679.550635","334688.952283","Mapping"
"Blocked","Female","tile","15","F_tile.wav","None","724.497307558","326","328563.234421","335446.015113","336213.215732","322380.064141","323129.661366","323896.219832","324663.018835","325429.831133","329330.013637","330078.989115","330846.025872","331612.736452","332379.578121","333146.107834","333912.962179","334679.550635","335455.567947","Mapping"
"Blocked","Female","tile","15","F_knife.wav","space","541.351760738","326","328563.234421","335446.015113","336213.215732","336979.759358","323129.661366","323896.219832","324663.018835","325429.831133","329330.013637","330078.989115","330846.025872","331612.736452","332379.578121","333146.107834","333912.962179","334679.550635","336223.562832","Mapping"
"Blocked","Female","tile","15","F_tile.wav","None","719.585781917","326","328563.234421","335446.015113","336213.215732","336979.759358","337729.506841","323896.219832","324663.018835","325429.831133","329330.013637","330078.989115","330846.025872","331612.736452","332379.578121","333146.107834","333912.962179","334679.550635","336989.932393","Mapping"
"Blocked","Female","tile","15","F_priest.wav","space","345.470133238","326","328563.234421","335446.015113","336213.215732","336979.759358","337729.506841","338496.05325","324663.018835","325429.831133","329330.013637","330078.989115","330846.025872","331612.736452","332379.578121","333146.107834","333912.962179","334679.550635","337739.432228","Mapping"
"Blocked","Female","tile","15","F_tile.wav","None","732.700909488","326","328563.234421","335446.015113","336213.215732","336979.759358","337729.506841","338496.05325","339262.544935","325429.831133","329330.013637","330078.989115","330846.025872","331612.736452","332379.578121","333146.107834","333912.962179","334679.550635","338505.896396","Mapping"
"Blocked","Female","tile","15","F_priest.wav","None","731.835533399","326","328563.234421","335446.015113","336213.215732","336979.759358","337729.506841","338496.05325","339262.544935","340029.396806","329330.013637","330078.989115","330846.025872","331612.736452","332379.578121","333146.107834","333912.962179","334679.550635","339271.935761","Mapping"
"Blocked","Female","done","22","F_jolt.wav","space","125.518754125","326","343163.072477","335446.015113","336213.215732","336979.759358","337729.506841","338496.05325","339262.544935","340029.396806","329330.013637","330078.989115","330846.025872","331612.736452","332379.578121","333146.107834","333912.962179","334679.550635","340039.380009","Mapping"
"Blocked","Female","done","22","F_park.wav","None","720.740234479","326","343163.072477","335446.015113","336213.215732","336979.759358","337729.506841","338496.05325","339262.544935","340029.396806","343928.858319","330078.989115","330846.025872","331612.736452","332379.578121","333146.107834","333912.962179","334679.550635","343173.150287","Mapping"
"Blocked","Female","done","22","F_dime.wav","None","724.53595465","326","343163.072477","335446.015113","336213.215732","336979.759358","337729.506841","338496.05325","339262.544935","340029.396806","343928.858319","344696.075634","330846.025872","331612.736452","332379.578121","333146.107834","333912.962179","334679.550635","343937.950484","Mapping"
"Blocked","Female","done","22","F_done.wav","None","721.59169754","326","343163.072477","335446.015113","336213.215732","336979.759358","337729.506841","338496.05325","339262.544935","340029.396806","343928.858319","344696.075634","345462.913284","331612.736452","332379.578121","333146.107834","333912.962179","334679.550635","344706.096246","Mapping"
"Blocked","Female","done","22","F_reek.wav","space","546.934192535","326","343163.072477","335446.015113","336213.215732","336979.759358","337729.506841","338496.05325","339262.544935","340029.396806","343928.858319","344696.075634","345462.913284","346212.476499","332379.578121","333146.107834","333912.962179","334679.550635","345473.81102","Mapping"
"Blocked","Female","done","22","F_jolt.wav","None","734.527504537","326","343163.072477","335446.015113","336213.215732","336979.759358","337729.506841","338496.05325","339262.544935","340029.396806","343928.858319","344696.075634","345462.913284","346212.476499","346979.277357","333146.107834","333912.962179","334679.550635","346222.29584","Mapping"
"Blocked","Female","done","22","F_done.wav","None","732.767690904","326","343163.072477","335446.015113","336213.215732","336979.759358","337729.506841","338496.05325","339262.544935","340029.396806","343928.858319","344696.075634","345462.913284","346212.476499","346979.277357","347745.793467","333912.962179","334679.550635","346989.172754","Mapping"
"Blocked","Female","done","22","F_knife.wav","space","537.13525692","326","343163.072477","335446.015113","336213.215732","336979.759358","337729.506841","338496.05325","339262.544935","340029.396806","343928.858319","344696.075634","345462.913284","346212.476499","346979.277357","347745.793467","348512.597726","334679.550635","347755.614972","Mapping"
"Blocked","Female","done","22","F_jolt.wav","None","729.422746226","326","343163.072477","335446.015113","336213.215732","336979.759358","337729.506841","338496.05325","339262.544935","340029.396806","343928.858319","344696.075634","345462.913284","346212.476499","346979.277357","347745.793467","348512.597726","349279.218027","348522.225379","Mapping"
"Blocked","Female","done","22","F_lash.wav","None","728.269529529","326","343163.072477","350046.00559","336213.215732","336979.759358","337729.506841","338496.05325","339262.544935","340029.396806","343928.858319","344696.075634","345462.913284","346212.476499","346979.277357","347745.793467","348512.597726","349279.218027","349288.56897","Mapping"
"Blocked","Female","done","22","F_park.wav","None","725.826751906","326","343163.072477","350046.00559","350812.551381","336979.759358","337729.506841","338496.05325","339262.544935","340029.396806","343928.858319","344696.075634","345462.913284","346212.476499","346979.277357","347745.793467","348512.597726","349279.218027","350056.106279","Mapping"
"Blocked","Female","done","22","F_done.wav","None","724.514002912","326","343163.072477","350046.00559","350812.551381","351579.340181","337729.506841","338496.05325","339262.544935","340029.396806","343928.858319","344696.075634","345462.913284","346212.476499","346979.277357","347745.793467","348512.597726","349279.218027","350822.618987","Mapping"
"Blocked","Female","done","22","F_jaw.wav","space","543.205872178","326","343163.072477","350046.00559","350812.551381","351579.340181","352346.14073","338496.05325","339262.544935","340029.396806","343928.858319","344696.075634","345462.913284","346212.476499","346979.277357","347745.793467","348512.597726","349279.218027","351589.447362","Mapping"
"Blocked","Female","done","22","F_done.wav","None","720.145694911","326","343163.072477","350046.00559","350812.551381","351579.340181","352346.14073","353112.853783","339262.544935","340029.396806","343928.858319","344696.075634","345462.913284","346212.476499","346979.277357","347745.793467","348512.597726","349279.218027","352356.352102","Mapping"
"Blocked","Female","done","22","F_romp.wav","None","718.554689083","326","343163.072477","350046.00559","350812.551381","351579.340181","352346.14073","353112.853783","353862.341251","340029.396806","343928.858319","344696.075634","345462.913284","346212.476499","346979.277357","347745.793467","348512.597726","349279.218027","353123.045369","Mapping"
"Blocked","Female","done","22","F_park.wav","space","492.9500781","326","343163.072477","350046.00559","350812.551381","351579.340181","352346.14073","353112.853783","353862.341251","354629.190031","343928.858319","344696.075634","345462.913284","346212.476499","346979.277357","347745.793467","348512.597726","349279.218027","353871.623867","Mapping"
"Blocked","Female","ball","5","F_greet.wav","None","732.264975086","326","357762.665357","350046.00559","350812.551381","351579.340181","352346.14073","353112.853783","353862.341251","354629.190031","343928.858319","344696.075634","345462.913284","346212.476499","346979.277357","347745.793467","348512.597726","349279.218027","354638.903016","Mapping"
"Blocked","Female","ball","5","F_dime.wav","None","720.586266369","326","357762.665357","350046.00559","350812.551381","351579.340181","352346.14073","353112.853783","353862.341251","354629.190031","358529.50579","344696.075634","345462.913284","346212.476499","346979.277357","347745.793467","348512.597726","349279.218027","357773.064089","Mapping"
"Blocked","Female","ball","5","F_dime.wav","None","719.157268293","326","357762.665357","350046.00559","350812.551381","351579.340181","352346.14073","353112.853783","353862.341251","354629.190031","358529.50579","359279.290992","345462.913284","346212.476499","346979.277357","347745.793467","348512.597726","349279.218027","358539.935748","Mapping"
"Blocked","Female","ball","5","F_dime.wav","None","735.091127455","326","357762.665357","350046.00559","350812.551381","351579.340181","352346.14073","353112.853783","353862.341251","354629.190031","358529.50579","359279.290992","360045.384771","346212.476499","346979.277357","347745.793467","348512.597726","349279.218027","359289.274503","Mapping"
"Blocked","Female","ball","5","F_reek.wav","None","734.384666663","326","357762.665357","350046.00559","350812.551381","351579.340181","352346.14073","353112.853783","353862.341251","354629.190031","358529.50579","359279.290992","360045.384771","360812.402978","346979.277357","347745.793467","348512.597726","349279.218027","360055.262236","Mapping"
"Blocked","Female","ball","5","F_priest.wav","None","732.759342995","326","357762.665357","350046.00559","350812.551381","351579.340181","352346.14073","353112.853783","353862.341251","354629.190031","358529.50579","359279.290992","360045.384771","360812.402978","361579.04894","347745.793467","348512.597726","349279.218027","360822.00497","Mapping"
"Blocked","Female","ball","5","F_ball.wav","None","730.890390929","326","357762.665357","350046.00559","350812.551381","351579.340181","352346.14073","353112.853783","353862.341251","354629.190031","358529.50579","359279.290992","360045.384771","360812.402978","361579.04894","362345.537224","348512.597726","349279.218027","361589.129532","Mapping"
"Blocked","Female","ball","5","F_cad.wav","space","377.465540543","326","357762.665357","350046.00559","350812.551381","351579.340181","352346.14073","353112.853783","353862.341251","354629.190031","358529.50579","359279.290992","360045.384771","360812.402978","361579.04894","362345.537224","363112.35385","349279.218027","362354.977209","Mapping"
"Blocked","Female","ball","5","F_jaw.wav","None","727.973341942","326","357762.665357","350046.00559","350812.551381","351579.340181","352346.14073","353112.853783","353862.341251","354629.190031","358529.50579","359279.290992","360045.384771","360812.402978","361579.04894","362345.537224","363112.35385","363879.009706","363121.665838","Mapping"
"Blocked","Female","ball","5","F_ball.wav","None","726.221257355","326","357762.665357","364645.354534","350812.551381","351579.340181","352346.14073","353112.853783","353862.341251","354629.190031","358529.50579","359279.290992","360045.384771","360812.402978","361579.04894","362345.537224","363112.35385","363879.009706","363888.649417","Mapping"
"Blocked","Female","ball","5","F_knife.wav","space","445.828991011","326","357762.665357","364645.354534","365412.579577","351579.340181","352346.14073","353112.853783","353862.341251","354629.190031","358529.50579","359279.290992","360045.384771","360812.402978","361579.04894","362345.537224","363112.35385","363879.009706","364654.576242","Mapping"
"Blocked","Female","ball","5","F_cad.wav","None","721.562635154","326","357762.665357","364645.354534","365412.579577","366179.245327","352346.14073","353112.853783","353862.341251","354629.190031","358529.50579","359279.290992","360045.384771","360812.402978","361579.04894","362345.537224","363112.35385","363879.009706","365422.955739","Mapping"
"Blocked","Female","ball","5","F_ball.wav","None","720.234118402","326","357762.665357","364645.354534","365412.579577","366179.245327","366946.019905","353112.853783","353862.341251","354629.190031","358529.50579","359279.290992","360045.384771","360812.402978","361579.04894","362345.537224","363112.35385","363879.009706","366189.341377","Mapping"
"Blocked","Female","ball","5","F_knife.wav","space","600.437232759","326","357762.665357","364645.354534","365412.579577","366179.245327","366946.019905","367695.40009","353862.341251","354629.190031","358529.50579","359279.290992","360045.384771","360812.402978","361579.04894","362345.537224","363112.35385","363879.009706","366955.928597","Mapping"
"Blocked","Female","ball","5","F_ball.wav","None","733.417572454","326","357762.665357","364645.354534","365412.579577","366179.245327","366946.019905","367695.40009","368462.070477","354629.190031","358529.50579","359279.290992","360045.384771","360812.402978","361579.04894","362345.537224","363112.35385","363879.009706","367705.458113","Mapping"
"Blocked","Female","ball","5","F_gnash.wav","space","581.088246312","326","357762.665357","364645.354534","365412.579577","366179.245327","366946.019905","367695.40009","368462.070477","369228.917402","358529.50579","359279.290992","360045.384771","360812.402978","361579.04894","362345.537224","363112.35385","363879.009706","368471.289404","Mapping"
"Blocked","Female","ball","1","F_gnash.wav","None","730.264006183","326","372362.662637","364645.354534","365412.579577","366179.245327","366946.019905","367695.40009","368462.070477","369228.917402","358529.50579","359279.290992","360045.384771","360812.402978","361579.04894","362345.537224","363112.35385","363879.009706","369238.061199","Mapping"
"Blocked","Female","ball","1","F_priest.wav","None","720.635734499","326","372362.662637","364645.354534","365412.579577","366179.245327","366946.019905","367695.40009","368462.070477","369228.917402","373128.649751","359279.290992","360045.384771","360812.402978","361579.04894","362345.537224","363112.35385","363879.009706","372372.708292","Mapping"
"Blocked","Female","ball","1","F_ball.wav","None","720.42178642","326","372362.662637","364645.354534","365412.579577","366179.245327","366946.019905","367695.40009","368462.070477","369228.917402","373128.649751","373878.901186","360045.384771","360812.402978","361579.04894","362345.537224","363112.35385","363879.009706","373138.229483","Mapping"
"Blocked","Female","ball","1","F_priest.wav","space","403.592221439","326","372362.662637","364645.354534","365412.579577","366179.245327","366946.019905","367695.40009","368462.070477","369228.917402","373128.649751","373878.901186","374645.158518","360812.402978","361579.04894","362345.537224","363112.35385","363879.009706","373888.672296","Mapping"
"Blocked","Female","ball","1","F_ball.wav","None","733.847014606","326","372362.662637","364645.354534","365412.579577","366179.245327","366946.019905","367695.40009","368462.070477","369228.917402","373128.649751","373878.901186","374645.158518","375412.124784","361579.04894","362345.537224","363112.35385","363879.009706","374654.548726","Mapping"
"Blocked","Female","ball","1","F_lash.wav","space","502.13685073","326","372362.662637","364645.354534","365412.579577","366179.245327","366946.019905","367695.40009","368462.070477","369228.917402","373128.649751","373878.901186","374645.158518","375412.124784","376178.770437","362345.537224","363112.35385","363879.009706","375422.062847","Mapping"
"Blocked","Female","ball","1","F_ball.wav","None","729.332467541","326","372362.662637","364645.354534","365412.579577","366179.245327","366946.019905","367695.40009","368462.070477","369228.917402","373128.649751","373878.901186","374645.158518","375412.124784","376178.770437","376945.285928","363112.35385","363879.009706","376188.323579","Mapping"
"Blocked","Female","ball","1","F_priest.wav","space","305.44457119","326","372362.662637","364645.354534","365412.579577","366179.245327","366946.019905","367695.40009","368462.070477","369228.917402","373128.649751","373878.901186","374645.158518","375412.124784","376178.770437","376945.285928","377712.108737","363879.009706","376954.748174","Mapping"
"Blocked","Female","ball","1","F_lash.wav","None","725.410914514","326","372362.662637","364645.354534","365412.579577","366179.245327","366946.019905","367695.40009","368462.070477","369228.917402","373128.649751","373878.901186","374645.158518","375412.124784","376178.770437","376945.285928","377712.108737","378479.070366","377721.723406","Mapping"
"Blocked","Female","ball","1","F_greet.wav","None","722.5405504","326","372362.662637","379245.665624","365412.579577","366179.245327","366946.019905","367695.40009","368462.070477","369228.917402","373128.649751","373878.901186","374645.158518","375412.124784","376178.770437","376945.285928","377712.108737","378479.070366","378489.799913","Mapping"
"Blocked","Female","ball","1","F_reek.wav","None","722.098123282","326","372362.662637","379245.665624","380012.541302","366179.245327","366946.019905","367695.40009","368462.070477","369228.917402","373128.649751","373878.901186","374645.158518","375412.124784","376178.770437","376945.285928","377712.108737","378479.070366","379255.538451","Mapping"
"Blocked","Female","ball","1","F_depth.wav","None","720.719210804","326","372362.662637","379245.665624","380012.541302","380778.995886","366946.019905","367695.40009","368462.070477","369228.917402","373128.649751","373878.901186","374645.158518","375412.124784","376178.770437","376945.285928","377712.108737","378479.070366","380022.256451","Mapping"
"Blocked","Female","ball","1","F_knife.wav","None","719.211064279","326","372362.662637","379245.665624","380012.541302","380778.995886","381528.777687","367695.40009","368462.070477","369228.917402","373128.649751","373878.901186","374645.158518","375412.124784","376178.770437","376945.285928","377712.108737","378479.070366","380789.255798","Mapping"
"Blocked","Female","ball","1","F_ball.wav","None","735.153270885","326","372362.662637","379245.665624","380012.541302","380778.995886","381528.777687","382295.088815","368462.070477","369228.917402","373128.649751","373878.901186","374645.158518","375412.124784","376178.770437","376945.285928","377712.108737","378479.070366","381538.664428","Mapping"
"Blocked","Female","ball","1","F_bluff.wav","space","467.495230027","326","372362.662637","379245.665624","380012.541302","380778.995886","381528.777687","382295.088815","383062.03653","369228.917402","373128.649751","373878.901186","374645.158518","375412.124784","376178.770437","376945.285928","377712.108737","378479.070366","382304.610113","Mapping"
"Blocked","Female","ball","1","F_knife.wav","None","731.193071697","326","372362.662637","379245.665624","380012.541302","380778.995886","381528.777687","382295.088815","383062.03653","383828.27562","373128.649751","373878.901186","374645.158518","375412.124784","376178.770437","376945.285928","377712.108737","378479.070366","383072.114958","Mapping"
"Blocked","Female","ball","3","F_jaw.wav","None","730.660675559","326","386962.218726","379245.665624","380012.541302","380778.995886","381528.777687","382295.088815","383062.03653","383828.27562","373128.649751","373878.901186","374645.158518","375412.124784","376178.770437","376945.285928","377712.108737","378479.070366","383837.960162","Mapping"
"Blocked","Female","ball","3","F_cad.wav","None","720.609145239","326","386962.218726","379245.665624","380012.541302","380778.995886","381528.777687","382295.088815","383062.03653","383828.27562","387728.993613","373878.901186","374645.158518","375412.124784","376178.770437","376945.285928","377712.108737","378479.070366","386972.502445","Mapping"
"Blocked","Female","ball","3","F_ball.wav","None","718.913330231","326","386962.218726","379245.665624","380012.541302","380778.995886","381528.777687","382295.088815","383062.03653","383828.27562","387728.993613","388478.750371","374645.158518","375412.124784","376178.770437","376945.285928","377712.108737","378479.070366","387739.526217","Mapping"
"Blocked","Female","ball","3","F_romp.wav","space","683.653054293","326","386962.218726","379245.665624","380012.541302","380778.995886","381528.777687","382295.088815","383062.03653","383828.27562","387728.993613","388478.750371","389244.996573","375412.124784","376178.770437","376945.285928","377712.108737","378479.070366","388488.329794","Mapping"
"Blocked","Female","ball","3","F_ball.wav","None","734.030044638","326","386962.218726","379245.665624","380012.541302","380778.995886","381528.777687","382295.088815","383062.03653","383828.27562","387728.993613","388478.750371","389244.996573","390011.796813","376178.770437","376945.285928","377712.108737","378479.070366","389254.567339","Mapping"
"Blocked","Female","ball","3","F_romp.wav","None","731.889020186","326","386962.218726","379245.665624","380012.541302","380778.995886","381528.777687","382295.088815","383062.03653","383828.27562","387728.993613","388478.750371","389244.996573","390011.796813","390778.502754","376945.285928","377712.108737","378479.070366","390022.117942","Mapping"
"Blocked","Female","ball","3","F_ball.wav","space","72.2967521288","326","386962.218726","379245.665624","380012.541302","380778.995886","381528.777687","382295.088815","383062.03653","383828.27562","387728.993613","388478.750371","389244.996573","390011.796813","390778.502754","391544.985474","377712.108737","378479.070366","390787.65459","Mapping"
"Blocked","Female","ball","3","F_jolt.wav","space","432.911425363","326","386962.218726","379245.665624","380012.541302","380778.995886","381528.777687","382295.088815","383062.03653","383828.27562","387728.993613","388478.750371","389244.996573","390011.796813","390778.502754","391544.985474","392311.795607","378479.070366","391555.003613","Mapping"
"Blocked","Female","ball","3","F_ball.wav","None","726.142727304","326","386962.218726","379245.665624","380012.541302","380778.995886","381528.777687","382295.088815","383062.03653","383828.27562","387728.993613","388478.750371","389244.996573","390011.796813","390778.502754","391544.985474","392311.795607","393078.45981","392321.897841","Mapping"
"Blocked","Female","ball","3","F_priest.wav","None","724.778964184","326","386962.218726","393845.531195","380012.541302","380778.995886","381528.777687","382295.088815","383062.03653","383828.27562","387728.993613","388478.750371","389244.996573","390011.796813","390778.502754","391544.985474","392311.795607","393078.45981","393088.584924","Mapping"
"Blocked","Female","ball","3","F_dime.wav","space","68.5072159395","326","386962.218726","393845.531195","394612.230026","380778.995886","381528.777687","382295.088815","383062.03653","383828.27562","387728.993613","388478.750371","389244.996573","390011.796813","390778.502754","391544.985474","392311.795607","393078.45981","393855.390419","Mapping"
"Blocked","Female","ball","3","F_bluff.wav","None","720.267818309","326","386962.218726","393845.531195","394612.230026","395378.828066","381528.777687","382295.088815","383062.03653","383828.27562","387728.993613","388478.750371","389244.996573","390011.796813","390778.502754","391544.985474","392311.795607","393078.45981","394622.419447","Mapping"
"Blocked","Female","ball","3","F_romp.wav","None","718.961252365","326","386962.218726","393845.531195","394612.230026","395378.828066","396128.857206","382295.088815","383062.03653","383828.27562","387728.993613","388478.750371","389244.996573","390011.796813","390778.502754","391544.985474","392311.795607","393078.45981","395389.236691","Mapping"
"Blocked","Female","ball","3","F_depth.wav","None","735.170893837","326","386962.218726","393845.531195","394612.230026","395378.828066","396128.857206","396894.791143","383062.03653","383828.27562","387728.993613","388478.750371","389244.996573","390011.796813","390778.502754","391544.985474","392311.795607","393078.45981","396138.551023","Mapping"
"Blocked","Female","ball","3","F_cad.wav","None","734.524103813","326","386962.218726","393845.531195","394612.230026","395378.828066","396128.857206","396894.791143","397661.594474","383828.27562","387728.993613","388478.750371","389244.996573","390011.796813","390778.502754","391544.985474","392311.795607","393078.45981","396904.728279","Mapping"
"Blocked","Female","ball","3","F_lash.wav","None","733.490537386","326","386962.218726","393845.531195","394612.230026","395378.828066","396128.857206","396894.791143","397661.594474","398428.368125","387728.993613","388478.750371","389244.996573","390011.796813","390778.502754","391544.985474","392311.795607","393078.45981","397671.268194","Mapping"
"Blocked","Female","tile","13","F_jaw.wav","None","731.494206004","326","401562.091408","393845.531195","394612.230026","395378.828066","396128.857206","396894.791143","397661.594474","398428.368125","387728.993613","388478.750371","389244.996573","390011.796813","390778.502754","391544.985474","392311.795607","393078.45981","398438.744905","Mapping"
"Blocked","Female","tile","13","F_park.wav","None","720.67623632","326","401562.091408","393845.531195","394612.230026","395378.828066","396128.857206","396894.791143","397661.594474","398428.368125","402328.719129","388478.750371","389244.996573","390011.796813","390778.502754","391544.985474","392311.795607","393078.45981","401572.208483","Mapping"
"Blocked","Female","tile","13","F_tile.wav","None","719.078429043","326","401562.091408","393845.531195","394612.230026","395378.828066","396128.857206","396894.791143","397661.594474","398428.368125","402328.719129","403095.45568","389244.996573","390011.796813","390778.502754","391544.985474","392311.795607","393078.45981","402339.333664","Mapping"
"Blocked","Female","tile","13","F_depth.wav","space","553.954897448","326","401562.091408","393845.531195","394612.230026","395378.828066","396128.857206","396894.791143","397661.594474","398428.368125","402328.719129","403095.45568","403844.618825","390011.796813","390778.502754","391544.985474","392311.795607","393078.45981","403105.76135","Mapping"
"Blocked","Female","tile","13","F_tile.wav","None","734.21462113","326","401562.091408","393845.531195","394612.230026","395378.828066","396128.857206","396894.791143","397661.594474","398428.368125","402328.719129","403095.45568","403844.618825","404611.315801","390778.502754","391544.985474","392311.795607","393078.45981","403853.919373","Mapping"
"Blocked","Female","tile","13","F_priest.wav","space","550.944786519","326","401562.091408","393845.531195","394612.230026","395378.828066","396128.857206","396894.791143","397661.594474","398428.368125","402328.719129","403095.45568","403844.618825","404611.315801","405378.275265","391544.985474","392311.795607","393078.45981","404620.732908","Mapping"
"Blocked","Female","tile","13","F_dime.wav","None","729.359983932","326","401562.091408","393845.531195","394612.230026","395378.828066","396128.857206","396894.791143","397661.594474","398428.368125","402328.719129","403095.45568","403844.618825","404611.315801","405378.275265","406144.743453","392311.795607","393078.45981","405388.386465","Mapping"
"Blocked","Female","tile","13","F_priest.wav","space","513.28594517","326","401562.091408","393845.531195","394612.230026","395378.828066","396128.857206","396894.791143","397661.594474","398428.368125","402328.719129","403095.45568","403844.618825","404611.315801","405378.275265","406144.743453","406911.271929","393078.45981","406154.35472","Mapping"
"Blocked","Female","tile","13","F_cad.wav","None","726.658428088","326","401562.091408","393845.531195","394612.230026","395378.828066","396128.857206","396894.791143","397661.594474","398428.368125","402328.719129","403095.45568","403844.618825","404611.315801","405378.275265","406144.743453","406911.271929","407677.857912","406920.84826","Mapping"
"Blocked","Female","tile","13","F_priest.wav","None","728.442357387","326","401562.091408","408444.760179","394612.230026","395378.828066","396128.857206","396894.791143","397661.594474","398428.368125","402328.719129","403095.45568","403844.618825","404611.315801","405378.275265","406144.743453","406911.271929","407677.857912","407687.002946","Mapping"
"Blocked","Female","tile","13","F_cad.wav","None","726.568149868","326","401562.091408","408444.760179","409211.281545","395378.828066","396128.857206","396894.791143","397661.594474","398428.368125","402328.719129","403095.45568","403844.618825","404611.315801","405378.275265","406144.743453","406911.271929","407677.857912","408454.513357","Mapping"
"Blocked","Female","tile","13","F_tile.wav","None","726.427475456","326","401562.091408","408444.760179","409211.281545","409978.156914","396128.857206","396894.791143","397661.594474","398428.368125","402328.719129","403095.45568","403844.618825","404611.315801","405378.275265","406144.743453","406911.271929","407677.857912","409220.536026","Mapping"
"Blocked","Female","tile","13","F_lash.wav","space","535.798082594","326","401562.091408","408444.760179","409211.281545","409978.156914","410745.168319","396894.791143","397661.594474","398428.368125","402328.719129","403095.45568","403844.618825","404611.315801","405378.275265","406144.743453","406911.271929","407677.857912","409987.757978","Mapping"
"Blocked","Female","tile","13","F_tile.wav","None","721.779984422","326","401562.091408","408444.760179","409211.281545","409978.156914","410745.168319","411511.9565","397661.594474","398428.368125","402328.719129","403095.45568","403844.618825","404611.315801","405378.275265","406144.743453","406911.271929","407677.857912","410754.812976","Mapping"
"Blocked","Female","tile","13","F_dime.wav","space","617.545022629","326","401562.091408","408444.760179","409211.281545","409978.156914","410745.168319","411511.9565","412261.430674","398428.368125","402328.719129","403095.45568","403844.618825","404611.315801","405378.275265","406144.743453","406911.271929","407677.857912","411522.045441","Mapping"
"Blocked","Female","tile","13","F_priest.wav","None","735.513458028","326","401562.091408","408444.760179","409211.281545","409978.156914","410745.168319","411511.9565","412261.430674","413027.808893","402328.719129","403095.45568","403844.618825","404611.315801","405378.275265","406144.743453","406911.271929","407677.857912","412270.986599","Mapping"
"Blocked","Female","cave","8","F_lash.wav","None","734.817199875","326","416161.749215","408444.760179","409211.281545","409978.156914","410745.168319","411511.9565","412261.430674","413027.808893","402328.719129","403095.45568","403844.618825","404611.315801","405378.275265","406144.743453","406911.271929","407677.857912","413037.337301","Mapping"
"Blocked","Female","cave","8","F_lash.wav","None","720.805779565","326","416161.749215","408444.760179","409211.281545","409978.156914","410745.168319","411511.9565","412261.430674","413027.808893","416928.378792","403095.45568","403844.618825","404611.315801","405378.275265","406144.743453","406911.271929","407677.857912","416171.868145","Mapping"
"Blocked","Female","cave","8","F_knife.wav","None","719.418828841","326","416161.749215","408444.760179","409211.281545","409978.156914","410745.168319","411511.9565","412261.430674","413027.808893","416928.378792","417694.83554","403844.618825","404611.315801","405378.275265","406144.743453","406911.271929","407677.857912","416938.890371","Mapping"
"Blocked","Female","cave","8","F_jolt.wav","None","718.778840266","326","416161.749215","408444.760179","409211.281545","409978.156914","410745.168319","411511.9565","412261.430674","413027.808893","416928.378792","417694.83554","418444.608993","404611.315801","405378.275265","406144.743453","406911.271929","407677.857912","417705.114003","Mapping"
"Blocked","Female","cave","8","F_cave.wav","None","735.251587816","326","416161.749215","408444.760179","409211.281545","409978.156914","410745.168319","411511.9565","412261.430674","413027.808893","416928.378792","417694.83554","418444.608993","419211.20456","405378.275265","406144.743453","406911.271929","407677.857912","418454.472855","Mapping"
"Blocked","Female","cave","8","F_dime.wav","space","358.323081397","326","416161.749215","408444.760179","409211.281545","409978.156914","410745.168319","411511.9565","412261.430674","413027.808893","416928.378792","417694.83554","418444.608993","419211.20456","419977.952859","406144.743453","406911.271929","407677.857912","419221.130566","Mapping"
"Blocked","Female","cave","8","F_cave.wav","None","731.849755161","326","416161.749215","408444.760179","409211.281545","409978.156914","410745.168319","411511.9565","412261.430674","413027.808893","416928.378792","417694.83554","418444.608993","419211.20456","419977.952859","420744.49463","406911.271929","407677.857912","419987.469829","Mapping"
"Blocked","Female","cave","8","F_romp.wav","space","560.936646536","326","416161.749215","408444.760179","409211.281545","409978.156914","410745.168319","411511.9565","412261.430674","413027.808893","416928.378792","417694.83554","418444.608993","419211.20456","419977.952859","420744.49463","421511.271373","407677.857912","420754.45279","Mapping"
"Blocked","Female","cave","8","F_cad.wav","None","727.982307784","326","416161.749215","408444.760179","409211.281545","409978.156914","410745.168319","411511.9565","412261.430674","413027.808893","416928.378792","417694.83554","418444.608993","419211.20456","419977.952859","420744.49463","421511.271373","422277.682364","421520.750623","Mapping"
"Blocked","Female","cave","8","F_cave.wav","None","727.236891165","326","416161.749215","423044.468072","409211.281545","409978.156914","410745.168319","411511.9565","412261.430674","413027.808893","416928.378792","417694.83554","418444.608993","419211.20456","419977.952859","420744.49463","421511.271373","422277.682364","422287.022795","Mapping"
"Blocked","Female","cave","8","F_reek.wav","space","668.993916363","326","416161.749215","423044.468072","423811.748767","409978.156914","410745.168319","411511.9565","412261.430674","413027.808893","416928.378792","417694.83554","418444.608993","419211.20456","419977.952859","420744.49463","421511.271373","422277.682364","423054.332243","Mapping"
"Blocked","Female","cave","8","F_bluff.wav","None","722.490464337","326","416161.749215","423044.468072","423811.748767","424578.267659","410745.168319","411511.9565","412261.430674","413027.808893","416928.378792","417694.83554","418444.608993","419211.20456","419977.952859","420744.49463","421511.271373","422277.682364","423821.345194","Mapping"
"Blocked","Female","cave","8","F_cave.wav","None","721.451642457","326","416161.749215","423044.468072","423811.748767","424578.267659","425344.619289","411511.9565","412261.430674","413027.808893","416928.378792","417694.83554","418444.608993","419211.20456","419977.952859","420744.49463","421511.271373","422277.682364","424588.04959","Mapping"
"Blocked","Female","cave","8","F_greet.wav","space","424.217474647","326","416161.749215","423044.468072","423811.748767","424578.267659","425344.619289","426094.316995","412261.430674","413027.808893","416928.378792","417694.83554","418444.608993","419211.20456","419977.952859","420744.49463","421511.271373","422277.682364","425355.096859","Mapping"
"Blocked","Female","cave","8","F_priest.wav","None","735.097619705","326","416161.749215","423044.468072","423811.748767","424578.267659","425344.619289","426094.316995","426861.109814","413027.808893","416928.378792","417694.83554","418444.608993","419211.20456","419977.952859","420744.49463","421511.271373","422277.682364","426103.940629","Mapping"
"Blocked","Female","cave","8","F_knife.wav","None","733.905756846","326","416161.749215","423044.468072","423811.748767","424578.267659","425344.619289","426094.316995","426861.109814","427627.859968","416928.378792","417694.83554","418444.608993","419211.20456","419977.952859","420744.49463","421511.271373","422277.682364","426870.788482","Mapping"
"Blocked","Female","done","19","F_priest.wav","None","732.675247826","326","430761.467311","423044.468072","423811.748767","424578.267659","425344.619289","426094.316995","426861.109814","427627.859968","416928.378792","417694.83554","418444.608993","419211.20456","419977.952859","420744.49463","421511.271373","422277.682364","427637.613764","Mapping"
"Blocked","Female","done","19","F_dime.wav","None","720.580392051","326","430761.467311","423044.468072","423811.748767","424578.267659","425344.619289","426094.316995","426861.109814","427627.859968","431527.899944","417694.83554","418444.608993","419211.20456","419977.952859","420744.49463","421511.271373","422277.682364","430771.779784","Mapping"
"Blocked","Female","done","19","F_romp.wav","None","720.709317829","326","430761.467311","423044.468072","423811.748767","424578.267659","425344.619289","426094.316995","426861.109814","427627.859968","431527.899944","432294.692764","418444.608993","419211.20456","419977.952859","420744.49463","421511.271373","422277.682364","431537.288297","Mapping"
"Blocked","Female","done","19","F_done.wav","None","718.475232366","326","430761.467311","423044.468072","423811.748767","424578.267659","425344.619289","426094.316995","426861.109814","427627.859968","431527.899944","432294.692764","433044.297409","419211.20456","419977.952859","420744.49463","421511.271373","422277.682364","432305.22815","Mapping"
"Blocked","Female","done","19","F_cling.wav","None","719.626592938","326","430761.467311","423044.468072","423811.748767","424578.267659","425344.619289","426094.316995","426861.109814","427627.859968","431527.899944","432294.692764","433044.297409","433810.886174","419977.952859","420744.49463","421511.271373","422277.682364","433069.837588","Mapping"
"Blocked","Female","done","19","F_jaw.wav","space","446.458158083","326","430761.467311","423044.468072","423811.748767","424578.267659","425344.619289","426094.316995","426861.109814","427627.859968","431527.899944","432294.692764","433044.297409","433810.886174","434577.645912","420744.49463","421511.271373","422277.682364","433820.697476","Mapping"
"Blocked","Female","done","19","F_jolt.wav","None","732.550650835","326","430761.467311","423044.468072","423811.748767","424578.267659","425344.619289","426094.316995","426861.109814","427627.859968","431527.899944","432294.692764","433044.297409","433810.886174","434577.645912","435344.06556","421511.271373","422277.682364","434586.889263","Mapping"
"Blocked","Female","done","19","F_done.wav","None","731.953637674","326","430761.467311","423044.468072","423811.748767","424578.267659","425344.619289","426094.316995","426861.109814","427627.859968","431527.899944","432294.692764","433044.297409","433810.886174","434577.645912","435344.06556","436111.061815","422277.682364","435353.212758","Mapping"
"Blocked","Female","done","19","F_dime.wav","space","458.63092551","326","430761.467311","423044.468072","423811.748767","424578.267659","425344.619289","426094.316995","426861.109814","427627.859968","431527.899944","432294.692764","433044.297409","433810.886174","434577.645912","435344.06556","436111.061815","436877.685826","436120.508602","Mapping"
"Blocked","Female","done","19","F_done.wav","None","727.763722651","326","430761.467311","437644.114749","423811.748767","424578.267659","425344.619289","426094.316995","426861.109814","427627.859968","431527.899944","432294.692764","433044.297409","433810.886174","434577.645912","435344.06556","436111.061815","436877.685826","436887.263084","Mapping"
"Blocked","Female","done","19","F_greet.wav","space","509.949039202","326","430761.467311","437644.114749","438411.004649","424578.267659","425344.619289","426094.316995","426861.109814","427627.859968","431527.899944","432294.692764","433044.297409","433810.886174","434577.645912","435344.06556","436111.061815","436877.685826","437653.130858","Mapping"
"Blocked","Female","done","19","F_jaw.wav","None","724.209158216","326","430761.467311","437644.114749","438411.004649","439177.185306","425344.619289","426094.316995","426861.109814","427627.859968","431527.899944","432294.692764","433044.297409","433810.886174","434577.645912","435344.06556","436111.061815","436877.685826","438420.750097","Mapping"
