"Condition","Talker","Target","Trial","current_stimulus","response_response","response_time_response","subject_nr","time_Audio1","time_Audio10","time_Audio11","time_Audio12","time_Audio13","time_Audio14","time_Audio15","time_Audio16","time_Audio2","time_Audio3","time_Audio4","time_Audio5","time_Audio6","time_Audio7","time_Audio8","time_Audio9","time_response","title"
"Mixed","both","tile","27","M_dime.wav","NA","NA","311","150522.384913","NA","NA","NA","NA","NA","NA","NA","NA","NA","NA","NA","NA","NA","NA","NA","NA","Mapping"
"Mixed","both","tile","27","M_priest.wav","None","718.630436808","311","150522.384913","NA","NA","NA","NA","NA","NA","NA","151288.567425","NA","NA","NA","NA","NA","NA","NA","150536.869677","Mapping"
"Mixed","both","tile","27","F_dime.wav","None","724.827195518","311","150522.384913","NA","NA","NA","NA","NA","NA","NA","151288.567425","152054.98429","NA","NA","NA","NA","NA","NA","151297.739048","Mapping"
"Mixed","both","tile","27","F_greet.wav","None","725.692571141","311","150522.384913","NA","NA","NA","NA","NA","NA","NA","151288.567425","152054.98429","152821.674464","NA","NA","NA","NA","NA","152064.046775","Mapping"
"Mixed","both","tile","27","F_tile.wav","None","726.26083158","311","150522.384913","NA","NA","NA","NA","NA","NA","NA","151288.567425","152054.98429","152821.674464","153588.57302","NA","NA","NA","NA","152830.746842","Mapping"
"Mixed","both","tile","27","M_bluff.wav","None","726.168388966","311","150522.384913","NA","NA","NA","NA","NA","NA","NA","151288.567425","152054.98429","152821.674464","153588.57302","154355.026677","NA","NA","NA","153598.252924","Mapping"
"Mixed","both","tile","27","F_tile.wav","space","313.020860311","311","150522.384913","NA","NA","NA","NA","NA","NA","NA","151288.567425","152054.98429","152821.674464","153588.57302","154355.026677","155121.648833","NA","NA","154364.15718","Mapping"
"Mixed","both","tile","27","F_cad.wav","space","722.389055416","311","150522.384913","NA","NA","NA","NA","NA","NA","NA","151288.567425","152054.98429","152821.674464","153588.57302","154355.026677","155121.648833","155888.469788","NA","155130.780573","Mapping"
"Mixed","both","tile","27","F_bluff.wav","None","725.306413602","311","150522.384913","NA","NA","NA","NA","NA","NA","NA","151288.567425","152054.98429","152821.674464","153588.57302","154355.026677","155121.648833","155888.469788","156655.510255","155897.62688","Mapping"
"Mixed","both","tile","27","M_tile.wav","None","724.71805755","311","150522.384913","157421.970095","NA","NA","NA","NA","NA","NA","151288.567425","152054.98429","152821.674464","153588.57302","154355.026677","155121.648833","155888.469788","156655.510255","156665.469651","Mapping"
"Mixed","both","tile","27","M_knife.wav","space","541.591370013","311","150522.384913","157421.970095","158188.840208","NA","NA","NA","NA","NA","151288.567425","152054.98429","152821.674464","153588.57302","154355.026677","155121.648833","155888.469788","156655.510255","157431.535296","Mapping"
"Mixed","both","tile","27","M_gnash.wav","None","726.586699951","311","150522.384913","157421.970095","158188.840208","158955.624989","NA","NA","NA","NA","151288.567425","152054.98429","152821.674464","153588.57302","154355.026677","155121.648833","155888.469788","156655.510255","158198.087888","Mapping"
"Mixed","both","tile","27","F_jaw.wav","None","726.800956763","311","150522.384913","157421.970095","158188.840208","158955.624989","159722.108017","NA","NA","NA","151288.567425","152054.98429","152821.674464","153588.57302","154355.026677","155121.648833","155888.469788","156655.510255","158965.266246","Mapping"
"Mixed","both","tile","27","M_jaw.wav","None","727.241837885","311","150522.384913","157421.970095","158188.840208","158955.624989","159722.108017","160488.619489","NA","NA","151288.567425","152054.98429","152821.674464","153588.57302","154355.026677","155121.648833","155888.469788","156655.510255","159732.124611","Mapping"
"Mixed","both","tile","27","M_tile.wav","None","728.820785414","311","150522.384913","157421.970095","158188.840208","158955.624989","159722.108017","160488.619489","161255.629039","NA","151288.567425","152054.98429","152821.674464","153588.57302","154355.026677","155121.648833","155888.469788","156655.510255","160497.813373","Mapping"
"Mixed","both","tile","27","F_cad.wav","space","507.913442794","311","150522.384913","157421.970095","158188.840208","158955.624989","159722.108017","160488.619489","161255.629039","162022.482457","151288.567425","152054.98429","152821.674464","153588.57302","154355.026677","155121.648833","155888.469788","156655.510255","161265.120347","Mapping"
"Mixed","both","ball","7","F_lash.wav","None","722.299395129","311","165188.941926","157421.970095","158188.840208","158955.624989","159722.108017","160488.619489","161255.629039","162022.482457","151288.567425","152054.98429","152821.674464","153588.57302","154355.026677","155121.648833","155888.469788","156655.510255","162032.646526","Mapping"
"Mixed","both","ball","7","M_cad.wav","None","725.545404479","311","165188.941926","157421.970095","158188.840208","158955.624989","159722.108017","160488.619489","161255.629039","162022.482457","165955.549551","152054.98429","152821.674464","153588.57302","154355.026677","155121.648833","155888.469788","156655.510255","165198.330898","Mapping"
"Mixed","both","ball","7","M_cad.wav","None","726.127887145","311","165188.941926","157421.970095","158188.840208","158955.624989","159722.108017","160488.619489","161255.629039","162022.482457","165955.549551","166722.534676","152821.674464","153588.57302","154355.026677","155121.648833","155888.469788","156655.510255","165964.980261","Mapping"
"Mixed","both","ball","7","F_knife.wav","None","722.57826943","311","165188.941926","157421.970095","158188.840208","158955.624989","159722.108017","160488.619489","161255.629039","162022.482457","165955.549551","166722.534676","167489.67006","153588.57302","154355.026677","155121.648833","155888.469788","156655.510255","166732.746667","Mapping"
"Mixed","both","ball","7","F_ball.wav","None","723.145293538","311","165188.941926","157421.970095","158188.840208","158955.624989","159722.108017","160488.619489","161255.629039","162022.482457","165955.549551","166722.534676","167489.67006","168255.522684","154355.026677","155121.648833","155888.469788","156655.510255","167499.544433","Mapping"
"Mixed","both","ball","7","M_romp.wav","space","443.989101332","311","165188.941926","157421.970095","158188.840208","158955.624989","159722.108017","160488.619489","161255.629039","162022.482457","165955.549551","166722.534676","167489.67006","168255.522684","169021.940785","155121.648833","155888.469788","156655.510255","168264.961123","Mapping"
"Mixed","both","ball","7","F_cad.wav","None","726.13097867","311","165188.941926","157421.970095","158188.840208","158955.624989","159722.108017","160488.619489","161255.629039","162022.482457","165955.549551","166722.534676","167489.67006","168255.522684","169021.940785","169789.326909","155888.469788","156655.510255","169031.034188","Mapping"
"Mixed","both","ball","7","M_greet.wav","None","722.864872776","311","165188.941926","157421.970095","158188.840208","158955.624989","159722.108017","160488.619489","161255.629039","162022.482457","165955.549551","166722.534676","167489.67006","168255.522684","169021.940785","169789.326909","170555.424089","156655.510255","169798.818835","Mapping"
"Mixed","both","ball","7","M_ball.wav","None","724.843272474","311","165188.941926","157421.970095","158188.840208","158955.624989","159722.108017","160488.619489","161255.629039","162022.482457","165955.549551","166722.534676","167489.67006","168255.522684","169021.940785","169789.326909","170555.424089","171321.956584","170564.877368","Mapping"
"Mixed","both","ball","7","F_lash.wav","space","489.483010024","311","165188.941926","172089.265414","158188.840208","158955.624989","159722.108017","160488.619489","161255.629039","162022.482457","165955.549551","166722.534676","167489.67006","168255.522684","169021.940785","169789.326909","170555.424089","171321.956584","171331.384202","Mapping"
"Mixed","both","ball","7","M_gnash.wav","None","727.114149369","311","165188.941926","172089.265414","172855.895609","158955.624989","159722.108017","160488.619489","161255.629039","162022.482457","165955.549551","166722.534676","167489.67006","168255.522684","169021.940785","169789.326909","170555.424089","171321.956584","172093.82881","Mapping"
"Mixed","both","ball","7","F_cad.wav","None","719.344627112","311","165188.941926","172089.265414","172855.895609","173605.244876","159722.108017","160488.619489","161255.629039","162022.482457","165955.549551","166722.534676","167489.67006","168255.522684","169021.940785","169789.326909","170555.424089","171321.956584","172865.887777","Mapping"
"Mixed","both","ball","7","F_ball.wav","None","735.144613776","311","165188.941926","172089.265414","172855.895609","173605.244876","174371.936905","160488.619489","161255.629039","162022.482457","165955.549551","166722.534676","167489.67006","168255.522684","169021.940785","169789.326909","170555.424089","171321.956584","173614.719798","Mapping"
"Mixed","both","ball","7","F_priest.wav","space","415.335238446","311","165188.941926","172089.265414","172855.895609","173605.244876","174371.936905","175138.20815","161255.629039","162022.482457","165955.549551","166722.534676","167489.67006","168255.522684","169021.940785","169789.326909","170555.424089","171321.956584","174381.499323","Mapping"
"Mixed","both","ball","7","M_ball.wav","None","736.134277657","311","165188.941926","172089.265414","172855.895609","173605.244876","174371.936905","175138.20815","175904.894923","162022.482457","165955.549551","166722.534676","167489.67006","168255.522684","169021.940785","169789.326909","170555.424089","171321.956584","175146.9358","Mapping"
"Mixed","both","ball","7","M_reek.wav","space","507.1466933","311","165188.941926","172089.265414","172855.895609","173605.244876","174371.936905","175138.20815","175904.894923","176671.590662","165955.549551","166722.534676","167489.67006","168255.522684","169021.940785","169789.326909","170555.424089","171321.956584","175913.657201","Mapping"
"Mixed","both","cave","24","F_reek.wav","None","734.560895246","311","179805.647543","172089.265414","172855.895609","173605.244876","174371.936905","175138.20815","175904.894923","176671.590662","165955.549551","166722.534676","167489.67006","168255.522684","169021.940785","169789.326909","170555.424089","171321.956584","176680.718692","Mapping"
"Mixed","both","cave","24","M_cave.wav","None","723.345946521","311","179805.647543","172089.265414","172855.895609","173605.244876","174371.936905","175138.20815","175904.894923","176671.590662","180571.826345","166722.534676","167489.67006","168255.522684","169021.940785","169789.326909","170555.424089","171321.956584","179815.381243","Mapping"
"Mixed","both","cave","24","F_depth.wav","space","607.49998549","311","179805.647543","172089.265414","172855.895609","173605.244876","174371.936905","175138.20815","175904.894923","176671.590662","180571.826345","181338.638643","167489.67006","168255.522684","169021.940785","169789.326909","170555.424089","171321.956584","180581.211607","Mapping"
"Mixed","both","cave","24","M_cad.wav","None","724.996931385","311","179805.647543","172089.265414","172855.895609","173605.244876","174371.936905","175138.20815","175904.894923","176671.590662","180571.826345","181338.638643","182105.040358","168255.522684","169021.940785","169789.326909","170555.424089","171321.956584","181348.164269","Mapping"
"Mixed","both","cave","24","F_cling.wav","None","723.388303537","311","179805.647543","172089.265414","172855.895609","173605.244876","174371.936905","175138.20815","175904.894923","176671.590662","180571.826345","181338.638643","182105.040358","182871.49185","169021.940785","169789.326909","170555.424089","171321.956584","182114.125103","Mapping"
"Mixed","both","cave","24","M_romp.wav","None","725.618369877","311","179805.647543","172089.265414","172855.895609","173605.244876","174371.936905","175138.20815","175904.894923","176671.590662","180571.826345","181338.638643","182105.040358","182871.49185","183638.869935","169789.326909","170555.424089","171321.956584","182880.332658","Mapping"
"Mixed","both","cave","24","M_cave.wav","None","721.702381503","311","179805.647543","172089.265414","172855.895609","173605.244876","174371.936905","175138.20815","175904.894923","176671.590662","180571.826345","181338.638643","182105.040358","182871.49185","183638.869935","184405.665228","170555.424089","171321.956584","183648.983609","Mapping"
"Mixed","both","cave","24","M_priest.wav","space","461.15625184","311","179805.647543","172089.265414","172855.895609","173605.244876","174371.936905","175138.20815","175904.894923","176671.590662","180571.826345","181338.638643","182105.040358","182871.49185","183638.869935","184405.665228","185154.695738","171321.956584","184415.539911","Mapping"
"Mixed","both","cave","24","F_romp.wav","None","735.564162023","311","179805.647543","172089.265414","172855.895609","173605.244876","174371.936905","175138.20815","175904.894923","176671.590662","180571.826345","181338.638643","182105.040358","182871.49185","183638.869935","184405.665228","185154.695738","185921.275537","185163.439466","Mapping"
"Mixed","both","cave","24","M_romp.wav","None","736.256710254","311","179805.647543","186688.40752","172855.895609","173605.244876","174371.936905","175138.20815","175904.894923","176671.590662","180571.826345","181338.638643","182105.040358","182871.49185","183638.869935","184405.665228","185154.695738","185921.275537","185930.226102","Mapping"
"Mixed","both","cave","24","F_cave.wav","None","732.969580684","311","179805.647543","186688.40752","187455.173132","173605.244876","174371.936905","175138.20815","175904.894923","176671.590662","180571.826345","181338.638643","182105.040358","182871.49185","183638.869935","184405.665228","185154.695738","185921.275537","186697.73373","Mapping"
"Mixed","both","cave","24","F_cad.wav","space","483.819575049","311","179805.647543","186688.40752","187455.173132","188221.462309","174371.936905","175138.20815","175904.894923","176671.590662","180571.826345","181338.638643","182105.040358","182871.49185","183638.869935","184405.665228","185154.695738","185921.275537","187464.74699","Mapping"
"Mixed","both","cave","24","F_cad.wav","None","731.554185506","311","179805.647543","186688.40752","187455.173132","188221.462309","188988.093431","175138.20815","175904.894923","176671.590662","180571.826345","181338.638643","182105.040358","182871.49185","183638.869935","184405.665228","185154.695738","185921.275537","188230.496041","Mapping"
"Mixed","both","cave","24","M_knife.wav","None","729.486435652","311","179805.647543","186688.40752","187455.173132","188221.462309","188988.093431","189755.098035","175904.894923","176671.590662","180571.826345","181338.638643","182105.040358","182871.49185","183638.869935","184405.665228","185154.695738","185921.275537","188997.059454","Mapping"
"Mixed","both","cave","24","F_cave.wav","None","726.452209521","311","179805.647543","186688.40752","187455.173132","188221.462309","188988.093431","189755.098035","190522.008031","176671.590662","180571.826345","181338.638643","182105.040358","182871.49185","183638.869935","184405.665228","185154.695738","185921.275537","189764.531836","Mapping"
"Mixed","both","cave","24","M_reek.wav","space","568.677416071","311","179805.647543","186688.40752","187455.173132","188221.462309","188988.093431","189755.098035","190522.008031","191288.15406","180571.826345","181338.638643","182105.040358","182871.49185","183638.869935","184405.665228","185154.695738","185921.275537","190531.857361","Mapping"
"Mixed","both","tile","30","F_dime.wav","None","722.323510796","311","194405.419435","186688.40752","187455.173132","188221.462309","188988.093431","189755.098035","190522.008031","191288.15406","180571.826345","181338.638643","182105.040358","182871.49185","183638.869935","184405.665228","185154.695738","185921.275537","191297.183463","Mapping"
"Mixed","both","tile","30","F_lash.wav","None","720.142293721","311","194405.419435","186688.40752","187455.173132","188221.462309","188988.093431","189755.098035","190522.008031","191288.15406","195154.994708","181338.638643","182105.040358","182871.49185","183638.869935","184405.665228","185154.695738","185921.275537","194415.532491","Mapping"
"Mixed","both","tile","30","F_tile.wav","None","736.196111888","311","194405.419435","186688.40752","187455.173132","188221.462309","188988.093431","189755.098035","190522.008031","191288.15406","195154.994708","195921.711472","182105.040358","182871.49185","183638.869935","184405.665228","185154.695738","185921.275537","195163.906936","Mapping"
"Mixed","both","tile","30","M_lash.wav","space","649.0921285","311","194405.419435","186688.40752","187455.173132","188221.462309","188988.093431","189755.098035","190522.008031","191288.15406","195154.994708","195921.711472","196688.292508","182871.49185","183638.869935","184405.665228","185154.695738","185921.275537","195931.334797","Mapping"
"Mixed","both","tile","30","F_park.wav","None","733.951515052","311","194405.419435","186688.40752","187455.173132","188221.462309","188988.093431","189755.098035","190522.008031","191288.15406","195154.994708","195921.711472","196688.292508","197454.794086","183638.869935","184405.665228","185154.695738","185921.275537","196697.795874","Mapping"
"Mixed","both","tile","30","M_tile.wav","None","734.94025087","311","194405.419435","186688.40752","187455.173132","188221.462309","188988.093431","189755.098035","190522.008031","191288.15406","195154.994708","195921.711472","196688.292508","197454.794086","198221.47313","184405.665228","185154.695738","185921.275537","197464.398861","Mapping"
"Mixed","both","tile","30","F_bluff.wav","space","445.352245588","311","194405.419435","186688.40752","187455.173132","188221.462309","188988.093431","189755.098035","190522.008031","191288.15406","195154.994708","195921.711472","196688.292508","197454.794086","198221.47313","198987.906072","185154.695738","185921.275537","198231.021326","Mapping"
"Mixed","both","tile","30","F_tile.wav","None","731.092281174","311","194405.419435","186688.40752","187455.173132","188221.462309","188988.093431","189755.098035","190522.008031","191288.15406","195154.994708","195921.711472","196688.292508","197454.794086","198221.47313","198987.906072","199754.913767","185921.275537","198997.093154","Mapping"
"Mixed","both","tile","30","M_romp.wav","space","327.818507794","311","194405.419435","186688.40752","187455.173132","188221.462309","188988.093431","189755.098035","190522.008031","191288.15406","195154.994708","195921.711472","196688.292508","197454.794086","198221.47313","198987.906072","199754.913767","200521.480272","199764.574502","Mapping"
"Mixed","both","tile","30","F_cling.wav","None","725.617132615","311","194405.419435","201288.07182","187455.173132","188221.462309","188988.093431","189755.098035","190522.008031","191288.15406","195154.994708","195921.711472","196688.292508","197454.794086","198221.47313","198987.906072","199754.913767","200521.480272","200531.265913","Mapping"
"Mixed","both","tile","30","M_park.wav","None","724.41630438","311","194405.419435","201288.07182","202054.480646","188221.462309","188988.093431","189755.098035","190522.008031","191288.15406","195154.994708","195921.711472","196688.292508","197454.794086","198221.47313","198987.906072","199754.913767","200521.480272","201297.226129","Mapping"
"Mixed","both","tile","30","M_park.wav","None","725.990923122","311","194405.419435","201288.07182","202054.480646","202821.41012","188988.093431","189755.098035","190522.008031","191288.15406","195154.994708","195921.711472","196688.292508","197454.794086","198221.47313","198987.906072","199754.913767","200521.480272","202063.252818","Mapping"
"Mixed","both","tile","30","M_jolt.wav","None","723.35924115","311","194405.419435","201288.07182","202054.480646","202821.41012","203588.587243","189755.098035","190522.008031","191288.15406","195154.994708","195921.711472","196688.292508","197454.794086","198221.47313","198987.906072","199754.913767","200521.480272","202830.51187","Mapping"
"Mixed","both","tile","30","M_tile.wav","None","723.188577686","311","194405.419435","201288.07182","202054.480646","202821.41012","203588.587243","204354.955258","190522.008031","191288.15406","195154.994708","195921.711472","196688.292508","197454.794086","198221.47313","198987.906072","199754.913767","200521.480272","203598.320015","Mapping"
"Mixed","both","tile","30","F_bluff.wav","space","400.101656094","311","194405.419435","201288.07182","202054.480646","202821.41012","203588.587243","204354.955258","205105.041286","191288.15406","195154.994708","195921.711472","196688.292508","197454.794086","198221.47313","198987.906072","199754.913767","200521.480272","204364.189643","Mapping"
"Mixed","both","tile","30","M_reek.wav","None","735.970415641","311","194405.419435","201288.07182","202054.480646","202821.41012","203588.587243","204354.955258","205105.041286","205871.023144","195154.994708","195921.711472","196688.292508","197454.794086","198221.47313","198987.906072","199754.913767","200521.480272","205114.283709","Mapping"
"Mixed","both","ball","11","F_park.wav","None","734.901913442","311","209005.157937","201288.07182","202054.480646","202821.41012","203588.587243","204354.955258","205105.041286","205871.023144","195154.994708","195921.711472","196688.292508","197454.794086","198221.47313","198987.906072","199754.913767","200521.480272","205879.928569","Mapping"
"Mixed","both","ball","11","M_priest.wav","None","720.449921209","311","209005.157937","201288.07182","202054.480646","202821.41012","203588.587243","204354.955258","205105.041286","205871.023144","209754.588517","195921.711472","196688.292508","197454.794086","198221.47313","198987.906072","199754.913767","200521.480272","209014.810324","Mapping"
"Mixed","both","ball","11","F_depth.wav","None","735.477902927","311","209005.157937","201288.07182","202054.480646","202821.41012","203588.587243","204354.955258","205105.041286","205871.023144","209754.588517","210521.176355","196688.292508","197454.794086","198221.47313","198987.906072","199754.913767","200521.480272","209764.205658","Mapping"
"Mixed","both","ball","11","F_priest.wav","None","734.390231781","311","209005.157937","201288.07182","202054.480646","202821.41012","203588.587243","204354.955258","205105.041286","205871.023144","209754.588517","210521.176355","211287.683808","197454.794086","198221.47313","198987.906072","199754.913767","200521.480272","210529.922864","Mapping"
"Mixed","both","ball","11","M_ball.wav","None","731.848209631","311","209005.157937","201288.07182","202054.480646","202821.41012","203588.587243","204354.955258","205105.041286","205871.023144","209754.588517","210521.176355","211287.683808","212054.69985","198221.47313","198987.906072","199754.913767","200521.480272","211296.95282","Mapping"
"Mixed","both","ball","11","M_bluff.wav","space","387.979593594","311","209005.157937","201288.07182","202054.480646","202821.41012","203588.587243","204354.955258","205105.041286","205871.023144","209754.588517","210521.176355","211287.683808","212054.69985","212821.261099","198987.906072","199754.913767","200521.480272","212064.172608","Mapping"
"Mixed","both","ball","11","F_ball.wav","None","726.683471352","311","209005.157937","201288.07182","202054.480646","202821.41012","203588.587243","204354.955258","205105.041286","205871.023144","209754.588517","210521.176355","211287.683808","212054.69985","212821.261099","213587.882637","199754.913767","200521.480272","212830.686553","Mapping"
"Mixed","both","ball","11","F_dime.wav","space","566.852366552","311","209005.157937","201288.07182","202054.480646","202821.41012","203588.587243","204354.955258","205105.041286","205871.023144","209754.588517","210521.176355","211287.683808","212054.69985","212821.261099","213587.882637","214355.045228","200521.480272","213597.269444","Mapping"
"Mixed","both","ball","11","F_ball.wav","None","720.681491774","311","209005.157937","201288.07182","202054.480646","202821.41012","203588.587243","204354.955258","205105.041286","205871.023144","209754.588517","210521.176355","211287.683808","212054.69985","212821.261099","213587.882637","214355.045228","215121.139316","214365.34626","Mapping"
"Mixed","both","ball","11","M_lash.wav","space","457.761839498","311","209005.157937","215870.840114","202054.480646","202821.41012","203588.587243","204354.955258","205105.041286","205871.023144","209754.588517","210521.176355","211287.683808","212054.69985","212821.261099","213587.882637","214355.045228","215121.139316","215130.282804","Mapping"
"Mixed","both","ball","11","M_priest.wav","None","735.003631096","311","209005.157937","215870.840114","216637.970241","202821.41012","203588.587243","204354.955258","205105.041286","205871.023144","209754.588517","210521.176355","211287.683808","212054.69985","212821.261099","213587.882637","214355.045228","215121.139316","215879.723587","Mapping"
"Mixed","both","ball","11","M_ball.wav","None","732.124301139","311","209005.157937","215870.840114","216637.970241","217404.55777","203588.587243","204354.955258","205105.041286","205871.023144","209754.588517","210521.176355","211287.683808","212054.69985","212821.261099","213587.882637","214355.045228","215121.139316","216647.204626","Mapping"
"Mixed","both","ball","11","M_priest.wav","space","365.809710696","311","209005.157937","215870.840114","216637.970241","217404.55777","218170.887757","204354.955258","205105.041286","205871.023144","209754.588517","210521.176355","211287.683808","212054.69985","212821.261099","213587.882637","214355.045228","215121.139316","217414.22778","Mapping"
"Mixed","both","ball","11","M_greet.wav","None","728.254998568","311","209005.157937","215870.840114","216637.970241","217404.55777","218170.887757","218937.537739","205105.041286","205871.023144","209754.588517","210521.176355","211287.683808","212054.69985","212821.261099","213587.882637","214355.045228","215121.139316","218179.781742","Mapping"
"Mixed","both","ball","11","F_knife.wav","None","726.213837508","311","209005.157937","215870.840114","216637.970241","217404.55777","218170.887757","218937.537739","219705.05928","205871.023144","209754.588517","210521.176355","211287.683808","212054.69985","212821.261099","213587.882637","214355.045228","215121.139316","218946.404826","Mapping"
"Mixed","both","ball","11","F_romp.wav","None","721.659715753","311","209005.157937","215870.840114","216637.970241","217404.55777","218170.887757","218937.537739","219705.05928","220471.476454","209754.588517","210521.176355","211287.683808","212054.69985","212821.261099","213587.882637","214355.045228","215121.139316","219715.54458","Mapping"
"Mixed","both","tile","36","M_gnash.wav","None","720.396125223","311","223588.197994","215870.840114","216637.970241","217404.55777","218170.887757","218937.537739","219705.05928","220471.476454","209754.588517","210521.176355","211287.683808","212054.69985","212821.261099","213587.882637","214355.045228","215121.139316","220481.481608","Mapping"
"Mixed","both","tile","36","F_gnash.wav","None","721.220381092","311","223588.197994","215870.840114","216637.970241","217404.55777","218170.887757","218937.537739","219705.05928","220471.476454","224354.789232","210521.176355","211287.683808","212054.69985","212821.261099","213587.882637","214355.045228","215121.139316","223597.475663","Mapping"
"Mixed","both","tile","36","M_park.wav","None","721.763598267","311","223588.197994","215870.840114","216637.970241","217404.55777","218170.887757","218937.537739","219705.05928","220471.476454","224354.789232","225121.68748","211287.683808","212054.69985","212821.261099","213587.882637","214355.045228","215121.139316","224364.761614","Mapping"
"Mixed","both","tile","36","F_romp.wav","None","719.457784202","311","223588.197994","215870.840114","216637.970241","217404.55777","218170.887757","218937.537739","219705.05928","220471.476454","224354.789232","225121.68748","225870.618127","212054.69985","212821.261099","213587.882637","214355.045228","215121.139316","225131.699127","Mapping"
"Mixed","both","tile","36","F_priest.wav","None","735.914764926","311","223588.197994","215870.840114","216637.970241","217404.55777","218170.887757","218937.537739","219705.05928","220471.476454","224354.789232","225121.68748","225870.618127","226637.621184","212821.261099","213587.882637","214355.045228","215121.139316","225880.050074","Mapping"
"Mixed","both","tile","36","M_cad.wav","None","734.74639887","311","223588.197994","215870.840114","216637.970241","217404.55777","218170.887757","218937.537739","219705.05928","220471.476454","224354.789232","225121.68748","225870.618127","226637.621184","227404.456361","213587.882637","214355.045228","215121.139316","226647.226268","Mapping"
"Mixed","both","tile","36","M_knife.wav","None","730.827628635","311","223588.197994","215870.840114","216637.970241","217404.55777","218170.887757","218937.537739","219705.05928","220471.476454","224354.789232","225121.68748","225870.618127","226637.621184","227404.456361","228171.041416","214355.045228","215121.139316","227415.76097","Mapping"
"Mixed","both","tile","36","F_tile.wav","None","730.694684666","311","223588.197994","215870.840114","216637.970241","217404.55777","218170.887757","218937.537739","219705.05928","220471.476454","224354.789232","225121.68748","225870.618127","226637.621184","227404.456361","228171.041416","228937.81012","215121.139316","228180.409982","Mapping"
"Mixed","both","tile","36","F_priest.wav","space","375.522386748","311","223588.197994","215870.840114","216637.970241","217404.55777","218170.887757","218937.537739","219705.05928","220471.476454","224354.789232","225121.68748","225870.618127","226637.621184","227404.456361","228171.041416","228937.81012","229704.388992","228948.326028","Mapping"
"Mixed","both","tile","36","M_tile.wav","None","726.033898536","311","223588.197994","230470.610151","216637.970241","217404.55777","218170.887757","218937.537739","219705.05928","220471.476454","224354.789232","225121.68748","225870.618127","226637.621184","227404.456361","228171.041416","228937.81012","229704.388992","229713.841963","Mapping"
"Mixed","both","tile","36","M_jolt.wav","space","516.104059294","311","223588.197994","230470.610151","231237.90414","217404.55777","218170.887757","218937.537739","219705.05928","220471.476454","224354.789232","225121.68748","225870.618127","226637.621184","227404.456361","228171.041416","228937.81012","229704.388992","230479.697369","Mapping"
"Mixed","both","tile","36","M_dime.wav","None","719.446344767","311","223588.197994","230470.610151","231237.90414","232004.077686","218170.887757","218937.537739","219705.05928","220471.476454","224354.789232","225121.68748","225870.618127","226637.621184","227404.456361","228171.041416","228937.81012","229704.388992","231249.281405","Mapping"
"Mixed","both","tile","36","F_tile.wav","None","720.232572407","311","223588.197994","230470.610151","231237.90414","232004.077686","232754.104661","218937.537739","219705.05928","220471.476454","224354.789232","225121.68748","225870.618127","226637.621184","227404.456361","228171.041416","228937.81012","229704.388992","232013.253328","Mapping"
"Mixed","both","tile","36","F_knife.wav","space","444.485323969","311","223588.197994","230470.610151","231237.90414","232004.077686","232754.104661","233520.906447","219705.05928","220471.476454","224354.789232","225121.68748","225870.618127","226637.621184","227404.456361","228171.041416","228937.81012","229704.388992","232775.298484","Mapping"
"Mixed","both","tile","36","M_tile.wav","None","731.946217362","311","223588.197994","230470.610151","231237.90414","232004.077686","232754.104661","233520.906447","234287.255294","220471.476454","224354.789232","225121.68748","225870.618127","226637.621184","227404.456361","228171.041416","228937.81012","229704.388992","233530.45557","Mapping"
"Mixed","both","tile","36","F_jolt.wav","space","563.618105836","311","223588.197994","230470.610151","231237.90414","232004.077686","232754.104661","233520.906447","234287.255294","235054.253095","224354.789232","225121.68748","225870.618127","226637.621184","227404.456361","228171.041416","228937.81012","229704.388992","234296.147424","Mapping"
"Mixed","both","cave","23","M_gnash.wav","None","730.647690129","311","238187.855801","230470.610151","231237.90414","232004.077686","232754.104661","233520.906447","234287.255294","235054.253095","224354.789232","225121.68748","225870.618127","226637.621184","227404.456361","228171.041416","228937.81012","229704.388992","235063.783668","Mapping"
"Mixed","both","cave","23","F_park.wav","None","720.870705787","311","238187.855801","230470.610151","231237.90414","232004.077686","232754.104661","233520.906447","234287.255294","235054.253095","238954.202174","225121.68748","225870.618127","226637.621184","227404.456361","228171.041416","228937.81012","229704.388992","238197.685035","Mapping"
"Mixed","both","cave","23","F_reek.wav","None","719.664930832","311","238187.855801","230470.610151","231237.90414","232004.077686","232754.104661","233520.906447","234287.255294","235054.253095","238954.202174","239704.141344","225870.618127","226637.621184","227404.456361","228171.041416","228937.81012","229704.388992","238963.522509","Mapping"
"Mixed","both","cave","23","F_cave.wav","None","734.199471772","311","238187.855801","230470.610151","231237.90414","232004.077686","232754.104661","233520.906447","234287.255294","235054.253095","238954.202174","239704.141344","240470.688371","226637.621184","227404.456361","228171.041416","228937.81012","229704.388992","239713.659241","Mapping"
"Mixed","both","cave","23","F_reek.wav","space","459.453326184","311","238187.855801","230470.610151","231237.90414","232004.077686","232754.104661","233520.906447","234287.255294","235054.253095","238954.202174","239704.141344","240470.688371","241237.55632","227404.456361","228171.041416","228937.81012","229704.388992","240480.228529","Mapping"
"Mixed","both","cave","23","F_cave.wav","None","729.461083189","311","238187.855801","230470.610151","231237.90414","232004.077686","232754.104661","233520.906447","234287.255294","235054.253095","238954.202174","239704.141344","240470.688371","241237.55632","242003.579608","228171.041416","228937.81012","229704.388992","241246.89737","Mapping"
"Mixed","both","cave","23","M_jaw.wav","space","447.259844281","311","238187.855801","230470.610151","231237.90414","232004.077686","232754.104661","233520.906447","234287.255294","235054.253095","238954.202174","239704.141344","240470.688371","241237.55632","242003.579608","242770.546492","228937.81012","229704.388992","242012.359817","Mapping"
"Mixed","both","cave","23","M_cave.wav","None","732.585896738","311","238187.855801","230470.610151","231237.90414","232004.077686","232754.104661","233520.906447","234287.255294","235054.253095","238954.202174","239704.141344","240470.688371","241237.55632","242003.579608","242770.546492","243537.69888","229704.388992","242774.362617","Mapping"
"Mixed","both","cave","23","M_gnash.wav","space","408.693579491","311","238187.855801","230470.610151","231237.90414","232004.077686","232754.104661","233520.906447","234287.255294","235054.253095","238954.202174","239704.141344","240470.688371","241237.55632","242003.579608","242770.546492","243537.69888","244304.437903","243546.887816","Mapping"
"Mixed","both","cave","23","M_gnash.wav","None","720.937796403","311","238187.855801","245071.001935","231237.90414","232004.077686","232754.104661","233520.906447","234287.255294","235054.253095","238954.202174","239704.141344","240470.688371","241237.55632","242003.579608","242770.546492","243537.69888","244304.437903","244314.495307","Mapping"
"Mixed","both","cave","23","M_gnash.wav","None","719.039163552","311","238187.855801","245071.001935","245820.534851","232004.077686","232754.104661","233520.906447","234287.255294","235054.253095","238954.202174","239704.141344","240470.688371","241237.55632","242003.579608","242770.546492","243537.69888","244304.437903","245081.055011","Mapping"
"Mixed","both","cave","23","M_cave.wav","None","734.668178018","311","238187.855801","245071.001935","245820.534851","246587.45907","232754.104661","233520.906447","234287.255294","235054.253095","238954.202174","239704.141344","240470.688371","241237.55632","242003.579608","242770.546492","243537.69888","244304.437903","245830.10469","Mapping"
"Mixed","both","cave","23","F_depth.wav","None","732.910528779","311","238187.855801","245071.001935","245820.534851","246587.45907","247354.069477","233520.906447","234287.255294","235054.253095","238954.202174","239704.141344","240470.688371","241237.55632","242003.579608","242770.546492","243537.69888","244304.437903","246596.517844","Mapping"
"Mixed","both","cave","23","M_lash.wav","space","0.0389558263123","311","238187.855801","245071.001935","245820.534851","246587.45907","247354.069477","248120.544157","234287.255294","235054.253095","238954.202174","239704.141344","240470.688371","241237.55632","242003.579608","242770.546492","243537.69888","244304.437903","247363.498023","Mapping"
"Mixed","both","cave","23","F_priest.wav","None","728.059292305","311","238187.855801","245071.001935","245820.534851","246587.45907","247354.069477","248120.544157","248887.430657","235054.253095","238954.202174","239704.141344","240470.688371","241237.55632","242003.579608","242770.546492","243537.69888","244304.437903","248129.931892","Mapping"
"Mixed","both","cave","23","F_cling.wav","None","725.951967761","311","238187.855801","245071.001935","245820.534851","246587.45907","247354.069477","248120.544157","248887.430657","249654.691564","238954.202174","239704.141344","240470.688371","241237.55632","242003.579608","242770.546492","243537.69888","244304.437903","248896.634124","Mapping"
"Mixed","both","tile","32","M_lash.wav","None","723.018222954","311","252770.968204","245071.001935","245820.534851","246587.45907","247354.069477","248120.544157","248887.430657","249654.691564","238954.202174","239704.141344","240470.688371","241237.55632","242003.579608","242770.546492","243537.69888","244304.437903","249664.369613","Mapping"
"Mixed","both","tile","32","M_romp.wav","None","721.006433014","311","252770.968204","245071.001935","245820.534851","246587.45907","247354.069477","248120.544157","248887.430657","249654.691564","253537.780811","239704.141344","240470.688371","241237.55632","242003.579608","242770.546492","243537.69888","244304.437903","252780.423029","Mapping"
"Mixed","both","tile","32","F_tile.wav","None","718.872519676","311","252770.968204","245071.001935","245820.534851","246587.45907","247354.069477","248120.544157","248887.430657","249654.691564","253537.780811","254286.806992","240470.688371","241237.55632","242003.579608","242770.546492","243537.69888","244304.437903","253547.3052","Mapping"
"Mixed","both","tile","32","M_depth.wav","space","403.377655428","311","252770.968204","245071.001935","245820.534851","246587.45907","247354.069477","248120.544157","248887.430657","249654.691564","253537.780811","254286.806992","255053.336706","241237.55632","242003.579608","242770.546492","243537.69888","244304.437903","254296.007059","Mapping"
"Mixed","both","tile","32","F_jaw.wav","None","735.572509933","311","252770.968204","245071.001935","245820.534851","246587.45907","247354.069477","248120.544157","248887.430657","249654.691564","253537.780811","254286.806992","255053.336706","255820.234026","242003.579608","242770.546492","243537.69888","244304.437903","255062.493488","Mapping"
"Mixed","both","tile","32","M_tile.wav","None","733.497957699","311","252770.968204","245071.001935","245820.534851","246587.45907","247354.069477","248120.544157","248887.430657","249654.691564","253537.780811","254286.806992","255053.336706","255820.234026","256586.802077","242770.546492","243537.69888","244304.437903","255829.365147","Mapping"
"Mixed","both","tile","32","M_park.wav","space","535.685234237","311","252770.968204","245071.001935","245820.534851","246587.45907","247354.069477","248120.544157","248887.430657","249654.691564","253537.780811","254286.806992","255053.336706","255820.234026","256586.802077","257353.900668","243537.69888","244304.437903","256595.676584","Mapping"
"Mixed","both","tile","32","F_dime.wav","None","728.20831323","311","252770.968204","245071.001935","245820.534851","246587.45907","247354.069477","248120.544157","248887.430657","249654.691564","253537.780811","254286.806992","255053.336706","255820.234026","256586.802077","257353.900668","258120.379677","244304.437903","257363.677962","Mapping"
"Mixed","both","tile","32","F_reek.wav","None","726.715316065","311","252770.968204","245071.001935","245820.534851","246587.45907","247354.069477","248120.544157","248887.430657","249654.691564","253537.780811","254286.806992","255053.336706","255820.234026","256586.802077","257353.900668","258120.379677","258887.266485","258130.140584","Mapping"
"Mixed","both","tile","32","F_priest.wav","None","717.568736058","311","252770.968204","259653.785378","245820.534851","246587.45907","247354.069477","248120.544157","248887.430657","249654.691564","253537.780811","254286.806992","255053.336706","255820.234026","256586.802077","257353.900668","258120.379677","258887.266485","258904.146106","Mapping"
"Mixed","both","tile","32","M_depth.wav","None","723.320285324","311","252770.968204","259653.785378","260420.387128","246587.45907","247354.069477","248120.544157","248887.430657","249654.691564","253537.780811","254286.806992","255053.336706","255820.234026","256586.802077","257353.900668","258120.379677","258887.266485","259663.386133","Mapping"
"Mixed","both","tile","32","M_tile.wav","None","721.923749894","311","252770.968204","259653.785378","260420.387128","261187.498396","247354.069477","248120.544157","248887.430657","249654.691564","253537.780811","254286.806992","255053.336706","255820.234026","256586.802077","257353.900668","258120.379677","258887.266485","260429.693551","Mapping"
"Mixed","both","tile","32","F_knife.wav","space","669.656474609","311","252770.968204","259653.785378","260420.387128","261187.498396","261937.025748","248120.544157","248887.430657","249654.691564","253537.780811","254286.806992","255053.336706","255820.234026","256586.802077","257353.900668","258120.379677","258887.266485","261197.609597","Mapping"
"Mixed","both","tile","32","M_jolt.wav","None","733.770957682","311","252770.968204","259653.785378","260420.387128","261187.498396","261937.025748","262703.767554","248887.430657","249654.691564","253537.780811","254286.806992","255053.336706","255820.234026","256586.802077","257353.900668","258120.379677","258887.266485","261946.849108","Mapping"
"Mixed","both","tile","32","F_tile.wav","None","730.262150988","311","252770.968204","259653.785378","260420.387128","261187.498396","261937.025748","262703.767554","263470.392802","249654.691564","253537.780811","254286.806992","255053.336706","255820.234026","256586.802077","257353.900668","258120.379677","258887.266485","262715.257667","Mapping"
"Mixed","both","tile","32","F_depth.wav","None","729.840129614","311","252770.968204","259653.785378","260420.387128","261187.498396","261937.025748","262703.767554","263470.392802","264237.149448","253537.780811","254286.806992","255053.336706","255820.234026","256586.802077","257353.900668","258120.379677","258887.266485","263480.629835","Mapping"
"Mixed","both","cave","20","M_depth.wav","space","0.0343178398907","311","267370.706087","259653.785378","260420.387128","261187.498396","261937.025748","262703.767554","263470.392802","264237.149448","253537.780811","254286.806992","255053.336706","255820.234026","256586.802077","257353.900668","258120.379677","258887.266485","264246.713103","Mapping"
"Mixed","both","cave","20","M_bluff.wav","None","720.572663005","311","267370.706087","259653.785378","260420.387128","261187.498396","261937.025748","262703.767554","263470.392802","264237.149448","268136.8954","254286.806992","255053.336706","255820.234026","256586.802077","257353.900668","258120.379677","258887.266485","267380.745868","Mapping"
"Mixed","both","cave","20","F_lash.wav","None","720.003784169","311","267370.706087","259653.785378","260420.387128","261187.498396","261937.025748","262703.767554","263470.392802","264237.149448","268136.8954","268886.857759","255053.336706","255820.234026","256586.802077","257353.900668","258120.379677","258887.266485","268146.254383","Mapping"
"Mixed","both","cave","20","F_cave.wav","None","734.376627952","311","267370.706087","259653.785378","260420.387128","261187.498396","261937.025748","262703.767554","263470.392802","264237.149448","268136.8954","268886.857759","269653.687679","255820.234026","256586.802077","257353.900668","258120.379677","258887.266485","268896.845908","Mapping"
"Mixed","both","cave","20","M_depth.wav","space","699.54270171","311","267370.706087","259653.785378","260420.387128","261187.498396","261937.025748","262703.767554","263470.392802","264237.149448","268136.8954","268886.857759","269653.687679","270420.218938","256586.802077","257353.900668","258120.379677","258887.266485","269663.572874","Mapping"
"Mixed","both","cave","20","M_knife.wav","None","729.942156933","311","267370.706087","259653.785378","260420.387128","261187.498396","261937.025748","262703.767554","263470.392802","264237.149448","268136.8954","268886.857759","269653.687679","270420.218938","271186.956416","257353.900668","258120.379677","258887.266485","270430.208633","Mapping"
"Mixed","both","cave","20","F_greet.wav","None","728.566645179","311","267370.706087","259653.785378","260420.387128","261187.498396","261937.025748","262703.767554","263470.392802","264237.149448","268136.8954","268886.857759","269653.687679","270420.218938","271186.956416","271953.220549","258120.379677","258887.266485","271196.565828","Mapping"
"Mixed","both","cave","20","M_priest.wav","None","727.597387508","311","267370.706087","259653.785378","260420.387128","261187.498396","261937.025748","262703.767554","263470.392802","264237.149448","268136.8954","268886.857759","269653.687679","270420.218938","271186.956416","271953.220549","272719.862801","258887.266485","271962.283034","Mapping"
"Mixed","both","cave","20","F_cling.wav","None","725.221391302","311","267370.706087","259653.785378","260420.387128","261187.498396","261937.025748","262703.767554","263470.392802","264237.149448","268136.8954","268886.857759","269653.687679","270420.218938","271186.956416","271953.220549","272719.862801","273487.274277","272729.486436","Mapping"
"Mixed","both","cave","20","F_cave.wav","None","725.96711712","311","267370.706087","274253.868607","260420.387128","261187.498396","261937.025748","262703.767554","263470.392802","264237.149448","268136.8954","268886.857759","269653.687679","270420.218938","271186.956416","271953.220549","272719.862801","273487.274277","273493.489585","Mapping"
"Mixed","both","cave","20","F_reek.wav","None","719.780252315","311","267370.706087","274253.868607","275020.333394","261187.498396","261937.025748","262703.767554","263470.392802","264237.149448","268136.8954","268886.857759","269653.687679","270420.218938","271186.956416","271953.220549","272719.862801","273487.274277","274264.656897","Mapping"
"Mixed","both","cave","20","M_park.wav","space","0.0389558263123","311","267370.706087","274253.868607","275020.333394","275769.743878","261937.025748","262703.767554","263470.392802","264237.149448","268136.8954","268886.857759","269653.687679","270420.218938","271186.956416","271953.220549","272719.862801","273487.274277","275031.305333","Mapping"
"Mixed","both","cave","20","M_cave.wav","None","734.700641595","311","267370.706087","274253.868607","275020.333394","275769.743878","276537.150406","262703.767554","263470.392802","264237.149448","268136.8954","268886.857759","269653.687679","270420.218938","271186.956416","271953.220549","272719.862801","273487.274277","275779.139342","Mapping"
"Mixed","both","cave","20","F_reek.wav","None","731.920246966","311","267370.706087","274253.868607","275020.333394","275769.743878","276537.150406","277303.541919","263470.392802","264237.149448","268136.8954","268886.857759","269653.687679","270420.218938","271186.956416","271953.220549","272719.862801","273487.274277","276546.748688","Mapping"
"Mixed","both","cave","20","M_cave.wav","space","0.034318305552","311","267370.706087","274253.868607","275020.333394","275769.743878","276537.150406","277303.541919","278070.071942","264237.149448","268136.8954","268886.857759","269653.687679","270420.218938","271186.956416","271953.220549","272719.862801","273487.274277","277313.632714","Mapping"
"Mixed","both","cave","20","F_romp.wav","None","727.974269539","311","267370.706087","274253.868607","275020.333394","275769.743878","276537.150406","277303.541919","278070.071942","278836.453252","268136.8954","268886.857759","269653.687679","270420.218938","271186.956416","271953.220549","272719.862801","273487.274277","278079.756174","Mapping"
"Mixed","both","done","48","M_dime.wav","None","725.902190898","311","281970.541359","274253.868607","275020.333394","275769.743878","276537.150406","277303.541919","278070.071942","278836.453252","268136.8954","268886.857759","269653.687679","270420.218938","271186.956416","271953.220549","272719.862801","273487.274277","278846.767888","Mapping"
"Mixed","both","done","48","F_done.wav","None","720.156515948","311","281970.541359","274253.868607","275020.333394","275769.743878","276537.150406","277303.541919","278070.071942","278836.453252","282737.231843","268886.857759","269653.687679","270420.218938","271186.956416","271953.220549","272719.862801","273487.274277","281980.985848","Mapping"
"Mixed","both","done","48","M_jaw.wav","None","726.227440871","311","281970.541359","274253.868607","275020.333394","275769.743878","276537.150406","277303.541919","278070.071942","278836.453252","282737.231843","283503.976122","269653.687679","270420.218938","271186.956416","271953.220549","272719.862801","273487.274277","282743.236295","Mapping"
"Mixed","both","done","48","M_done.wav","space","0.034318305552","311","281970.541359","274253.868607","275020.333394","275769.743878","276537.150406","277303.541919","278070.071942","278836.453252","282737.231843","283503.976122","284269.957362","270420.218938","271186.956416","271953.220549","272719.862801","273487.274277","283514.535624","Mapping"
"Mixed","both","done","48","F_romp.wav","None","721.881084144","311","281970.541359","274253.868607","275020.333394","275769.743878","276537.150406","277303.541919","278070.071942","278836.453252","282737.231843","283503.976122","284269.957362","285037.105113","271186.956416","271953.220549","272719.862801","273487.274277","284279.502157","Mapping"
"Mixed","both","done","48","M_gnash.wav","space","11.535870377","311","281970.541359","274253.868607","275020.333394","275769.743878","276537.150406","277303.541919","278070.071942","278836.453252","282737.231843","283503.976122","284269.957362","285037.105113","285786.578359","271953.220549","272719.862801","273487.274277","285047.316485","Mapping"
"Mixed","both","done","48","M_jolt.wav","None","732.323408592","311","281970.541359","274253.868607","275020.333394","275769.743878","276537.150406","277303.541919","278070.071942","278836.453252","282737.231843","283503.976122","284269.957362","285037.105113","285786.578359","286552.942974","272719.862801","273487.274277","285798.018695","Mapping"
"Mixed","both","done","48","F_cad.wav","None","733.161886223","311","281970.541359","274253.868607","275020.333394","275769.743878","276537.150406","277303.541919","278070.071942","278836.453252","282737.231843","283503.976122","284269.957362","285037.105113","285786.578359","286552.942974","287319.667157","273487.274277","286562.622568","Mapping"
"Mixed","both","done","48","F_park.wav","None","731.78761173","311","281970.541359","274253.868607","275020.333394","275769.743878","276537.150406","277303.541919","278070.071942","278836.453252","282737.231843","283503.976122","284269.957362","285037.105113","285786.578359","286552.942974","287319.667157","288086.724938","287329.012844","Mapping"
"Mixed","both","done","48","M_park.wav","None","729.071524926","311","281970.541359","288853.378939","275020.333394","275769.743878","276537.150406","277303.541919","278070.071942","278836.453252","282737.231843","283503.976122","284269.957362","285037.105113","285786.578359","286552.942974","287319.667157","288086.724938","288096.682788","Mapping"
"Mixed","both","done","48","M_done.wav","None","732.959068846","311","281970.541359","288853.378939","289619.876189","275769.743878","276537.150406","277303.541919","278070.071942","278836.453252","282737.231843","283503.976122","284269.957362","285037.105113","285786.578359","286552.942974","287319.667157","288086.724938","288857.797333","Mapping"
"Mixed","both","done","48","F_dime.wav","space","477.086710744","311","281970.541359","288853.378939","289619.876189","290386.396009","276537.150406","277303.541919","278070.071942","278836.453252","282737.231843","283503.976122","284269.957362","285037.105113","285786.578359","286552.942974","287319.667157","288086.724938","289629.664612","Mapping"
"Mixed","both","done","48","M_depth.wav","None","723.447664175","311","281970.541359","288853.378939","289619.876189","290386.396009","291153.037951","277303.541919","278070.071942","278836.453252","282737.231843","283503.976122","284269.957362","285037.105113","285786.578359","286552.942974","287319.667157","288086.724938","290396.460215","Mapping"
"Mixed","both","done","48","F_done.wav","None","722.175726201","311","281970.541359","288853.378939","289619.876189","290386.396009","291153.037951","291920.000198","278070.071942","278836.453252","282737.231843","283503.976122","284269.957362","285037.105113","285786.578359","286552.942974","287319.667157","288086.724938","291162.764231","Mapping"
"Mixed","both","done","48","F_dime.wav","space","672.325566877","311","281970.541359","288853.378939","289619.876189","290386.396009","291153.037951","291920.000198","292669.698832","278836.453252","282737.231843","283503.976122","284269.957362","285037.105113","285786.578359","286552.942974","287319.667157","288086.724938","291930.395529","Mapping"
"Mixed","both","done","48","F_jaw.wav","None","734.910570085","311","281970.541359","288853.378939","289619.876189","290386.396009","291153.037951","291920.000198","292669.698832","293436.595534","282737.231843","283503.976122","284269.957362","285037.105113","285786.578359","286552.942974","287319.667157","288086.724938","292679.115938","Mapping"
"Mixed","both","done","37","M_dime.wav","None","732.897852547","311","296570.088792","288853.378939","289619.876189","290386.396009","291153.037951","291920.000198","292669.698832","293436.595534","282737.231843","283503.976122","284269.957362","285037.105113","285786.578359","286552.942974","287319.667157","288086.724938","293446.203091","Mapping"
"Mixed","both","done","37","M_reek.wav","None","720.440027304","311","296570.088792","288853.378939","289619.876189","290386.396009","291153.037951","291920.000198","292669.698832","293436.595534","297336.831216","283503.976122","284269.957362","285037.105113","285786.578359","286552.942974","287319.667157","288086.724938","296580.438365","Mapping"
"Mixed","both","done","37","F_priest.wav","None","718.756888527","311","296570.088792","288853.378939","289619.876189","290386.396009","291153.037951","291920.000198","292669.698832","293436.595534","297336.831216","298086.235517","284269.957362","285037.105113","285786.578359","286552.942974","287319.667157","288086.724938","297347.055265","Mapping"
"Mixed","both","done","37","F_jolt.wav","None","734.850590583","311","296570.088792","288853.378939","289619.876189","290386.396009","291153.037951","291920.000198","292669.698832","293436.595534","297336.831216","298086.235517","298852.689173","285037.105113","285786.578359","286552.942974","287319.667157","288086.724938","298096.170179","Mapping"
"Mixed","both","done","37","F_romp.wav","None","734.269963577","311","296570.088792","288853.378939","289619.876189","290386.396009","291153.037951","291920.000198","292669.698832","293436.595534","297336.831216","298086.235517","298852.689173","299619.635652","285786.578359","286552.942974","287319.667157","288086.724938","298861.774537","Mapping"
"Mixed","both","done","37","M_reek.wav","None","731.764732394","311","296570.088792","288853.378939","289619.876189","290386.396009","291153.037951","291920.000198","292669.698832","293436.595534","297336.831216","298086.235517","298852.689173","299619.635652","300386.489688","286552.942974","287319.667157","288086.724938","299629.308445","Mapping"
"Mixed","both","done","37","F_cling.wav","None","729.850641452","311","296570.088792","288853.378939","289619.876189","290386.396009","291153.037951","291920.000198","292669.698832","293436.595534","297336.831216","298086.235517","298852.689173","299619.635652","300386.489688","301153.124211","287319.667157","288086.724938","300396.302227","Mapping"
"Mixed","both","done","37","F_cad.wav","None","728.38423308","311","296570.088792","288853.378939","289619.876189","290386.396009","291153.037951","291920.000198","292669.698832","293436.595534","297336.831216","298086.235517","298852.689173","299619.635652","300386.489688","301153.124211","301919.658871","288086.724938","301162.976633","Mapping"
"Mixed","both","done","37","F_done.wav","None","727.129917126","311","296570.088792","288853.378939","289619.876189","290386.396009","291153.037951","291920.000198","292669.698832","293436.595534","297336.831216","298086.235517","298852.689173","299619.635652","300386.489688","301153.124211","301919.658871","302686.419846","301929.322698","Mapping"
"Mixed","both","done","37","M_bluff.wav","space","650.656235404","311","296570.088792","303453.001191","289619.876189","290386.396009","291153.037951","291920.000198","292669.698832","293436.595534","297336.831216","298086.235517","298852.689173","299619.635652","300386.489688","301153.124211","301919.658871","302686.419846","302695.847155","Mapping"
"Mixed","both","done","37","M_done.wav","None","721.298292279","311","296570.088792","303453.001191","304219.964365","290386.396009","291153.037951","291920.000198","292669.698832","293436.595534","297336.831216","298086.235517","298852.689173","299619.635652","300386.489688","301153.124211","301919.658871","302686.419846","303464.387421","Mapping"
"Mixed","both","done","37","F_romp.wav","space","652.056171559","311","296570.088792","303453.001191","304219.964365","304969.501301","291153.037951","291920.000198","292669.698832","293436.595534","297336.831216","298086.235517","298852.689173","299619.635652","300386.489688","301153.124211","301919.658871","302686.419846","304230.415965","Mapping"
"Mixed","both","done","37","F_done.wav","None","736.408823635","311","296570.088792","303453.001191","304219.964365","304969.501301","305752.879099","291920.000198","292669.698832","293436.595534","297336.831216","298086.235517","298852.689173","299619.635652","300386.489688","301153.124211","301919.658871","302686.419846","304978.607997","Mapping"
"Mixed","both","done","37","M_greet.wav","space","432.10479198","311","296570.088792","303453.001191","304219.964365","304969.501301","305752.879099","306502.860625","292669.698832","293436.595534","297336.831216","298086.235517","298852.689173","299619.635652","300386.489688","301153.124211","301919.658871","302686.419846","305762.342272","Mapping"
"Mixed","both","done","37","M_done.wav","None","734.519775026","311","296570.088792","303453.001191","304219.964365","304969.501301","305752.879099","306502.860625","307269.505042","293436.595534","297336.831216","298086.235517","298852.689173","299619.635652","300386.489688","301153.124211","301919.658871","302686.419846","306512.70841","Mapping"
"Mixed","both","done","37","M_knife.wav","space","521.104317158","311","296570.088792","303453.001191","304219.964365","304969.501301","305752.879099","306502.860625","307269.505042","308036.347638","297336.831216","298086.235517","298852.689173","299619.635652","300386.489688","301153.124211","301919.658871","302686.419846","307281.341428","Mapping"
"Mixed","both","cave","18","M_jaw.wav","None","730.374071747","311","311169.336017","303453.001191","304219.964365","304969.501301","305752.879099","306502.860625","307269.505042","308036.347638","297336.831216","298086.235517","298852.689173","299619.635652","300386.489688","301153.124211","301919.658871","302686.419846","308046.200988","Mapping"
"Mixed","both","cave","18","M_knife.wav","None","721.864697523","311","311169.336017","303453.001191","304219.964365","304969.501301","305752.879099","306502.860625","307269.505042","308036.347638","311936.011351","298086.235517","298852.689173","299619.635652","300386.489688","301153.124211","301919.658871","302686.419846","311178.69438","Mapping"
"Mixed","both","cave","18","F_bluff.wav","None","720.591831952","311","311169.336017","303453.001191","304219.964365","304969.501301","305752.879099","306502.860625","307269.505042","308036.347638","311936.011351","312686.054403","298852.689173","299619.635652","300386.489688","301153.124211","301919.658871","302686.419846","311945.231204","Mapping"
"Mixed","both","cave","18","F_cave.wav","None","735.242312774","311","311169.336017","303453.001191","304219.964365","304969.501301","305752.879099","306502.860625","307269.505042","308036.347638","311936.011351","312686.054403","313452.321937","299619.635652","300386.489688","301153.124211","301919.658871","302686.419846","312695.779137","Mapping"
"Mixed","both","cave","18","M_cling.wav","space","660.703127738","311","311169.336017","303453.001191","304219.964365","304969.501301","305752.879099","306502.860625","307269.505042","308036.347638","311936.011351","312686.054403","313452.321937","314219.30428","300386.489688","301153.124211","301919.658871","302686.419846","313461.602699","Mapping"
"Mixed","both","cave","18","F_jolt.wav","None","731.854083948","311","311169.336017","303453.001191","304219.964365","304969.501301","305752.879099","306502.860625","307269.505042","308036.347638","311936.011351","312686.054403","313452.321937","314219.30428","314985.798439","301153.124211","301919.658871","302686.419846","314231.56207","Mapping"
"Mixed","both","cave","18","F_depth.wav","None","733.415717725","311","311169.336017","303453.001191","304219.964365","304969.501301","305752.879099","306502.860625","307269.505042","308036.347638","311936.011351","312686.054403","313452.321937","314219.30428","314985.798439","315752.838906","301919.658871","302686.419846","314995.269959","Mapping"
"Mixed","both","cave","18","F_cave.wav","None","731.386614032","311","311169.336017","303453.001191","304219.964365","304969.501301","305752.879099","306502.860625","307269.505042","308036.347638","311936.011351","312686.054403","313452.321937","314219.30428","314985.798439","315752.838906","316519.37202","302686.419846","315762.671232","Mapping"
"Mixed","both","cave","18","M_gnash.wav","space","657.058903482","311","311169.336017","303453.001191","304219.964365","304969.501301","305752.879099","306502.860625","307269.505042","308036.347638","311936.011351","312686.054403","313452.321937","314219.30428","314985.798439","315752.838906","316519.37202","317286.245225","316529.216713","Mapping"
"Mixed","both","cave","18","M_cave.wav","None","727.633560542","311","311169.336017","318052.863671","304219.964365","304969.501301","305752.879099","306502.860625","307269.505042","308036.347638","311936.011351","312686.054403","313452.321937","314219.30428","314985.798439","315752.838906","316519.37202","317286.245225","317295.810734","Mapping"
"Mixed","both","cave","18","F_gnash.wav","space","611.470387317","311","311169.336017","318052.863671","318819.777377","304969.501301","305752.879099","306502.860625","307269.505042","308036.347638","311936.011351","312686.054403","313452.321937","314219.30428","314985.798439","315752.838906","316519.37202","317286.245225","318062.768343","Mapping"
"Mixed","both","cave","18","M_park.wav","None","722.927016672","311","311169.336017","318052.863671","318819.777377","319586.469406","305752.879099","306502.860625","307269.505042","308036.347638","311936.011351","312686.054403","313452.321937","314219.30428","314985.798439","315752.838906","316519.37202","317286.245225","318829.96989","Mapping"
"Mixed","both","cave","18","F_lash.wav","None","722.055457998","311","311169.336017","318052.863671","318819.777377","319586.469406","320352.839277","306502.860625","307269.505042","308036.347638","311936.011351","312686.054403","313452.321937","314219.30428","314985.798439","315752.838906","316519.37202","317286.245225","319596.206507","Mapping"
"Mixed","both","cave","18","M_cling.wav","None","720.493205357","311","311169.336017","318052.863671","318819.777377","319586.469406","320352.839277","321119.58201","307269.505042","308036.347638","311936.011351","312686.054403","313452.321937","314219.30428","314985.798439","315752.838906","316519.37202","317286.245225","320362.892043","Mapping"
"Mixed","both","cave","18","M_cave.wav","None","718.722570688","311","311169.336017","318052.863671","318819.777377","319586.469406","320352.839277","321119.58201","321886.478403","308036.347638","311936.011351","312686.054403","313452.321937","314219.30428","314985.798439","315752.838906","316519.37202","317286.245225","321130.112759","Mapping"
"Mixed","both","cave","18","F_cad.wav","space","545.977610163","311","311169.336017","318052.863671","318819.777377","319586.469406","320352.839277","321119.58201","321886.478403","322636.023378","311936.011351","312686.054403","313452.321937","314219.30428","314985.798439","315752.838906","316519.37202","317286.245225","321896.196335","Mapping"
"Mixed","both","done","47","M_gnash.wav","None","732.74295684","311","325769.511689","318052.863671","318819.777377","319586.469406","320352.839277","321119.58201","321886.478403","322636.023378","311936.011351","312686.054403","313452.321937","314219.30428","314985.798439","315752.838906","316519.37202","317286.245225","322645.566936","Mapping"
"Mixed","both","done","47","F_lash.wav","None","720.35284061","311","325769.511689","318052.863671","318819.777377","319586.469406","320352.839277","321119.58201","321886.478403","322636.023378","326536.549683","312686.054403","313452.321937","314219.30428","314985.798439","315752.838906","316519.37202","317286.245225","325779.770365","Mapping"
"Mixed","both","done","47","M_done.wav","None","718.131122179","311","325769.511689","318052.863671","318819.777377","319586.469406","320352.839277","321119.58201","321886.478403","322636.023378","326536.549683","327285.374284","313452.321937","314219.30428","314985.798439","315752.838906","316519.37202","317286.245225","326547.201009","Mapping"
"Mixed","both","done","47","M_bluff.wav","space","474.999481812","311","325769.511689","318052.863671","318819.777377","319586.469406","320352.839277","321119.58201","321886.478403","322636.023378","326536.549683","327285.374284","328052.266348","314219.30428","314985.798439","315752.838906","316519.37202","317286.245225","327295.07181","Mapping"
"Mixed","both","done","47","M_priest.wav","None","733.077791519","311","325769.511689","318052.863671","318819.777377","319586.469406","320352.839277","321119.58201","321886.478403","322636.023378","326536.549683","327285.374284","328052.266348","328819.171707","314985.798439","315752.838906","316519.37202","317286.245225","328061.919663","Mapping"
"Mixed","both","done","47","M_jaw.wav","None","731.279330794","311","325769.511689","318052.863671","318819.777377","319586.469406","320352.839277","321119.58201","321886.478403","322636.023378","326536.549683","327285.374284","328052.266348","328819.171707","329585.501385","315752.838906","316519.37202","317286.245225","328828.994757","Mapping"
"Mixed","both","done","47","F_done.wav","None","730.81464367","311","325769.511689","318052.863671","318819.777377","319586.469406","320352.839277","321119.58201","321886.478403","322636.023378","326536.549683","327285.374284","328052.266348","328819.171707","329585.501385","330352.092005","316519.37202","317286.245225","329594.718147","Mapping"
"Mixed","both","done","47","F_priest.wav","space","480.006851256","311","325769.511689","318052.863671","318819.777377","319586.469406","320352.839277","321119.58201","321886.478403","322636.023378","326536.549683","327285.374284","328052.266348","328819.171707","329585.501385","330352.092005","331119.16339","317286.245225","330362.018629","Mapping"
"Mixed","both","done","47","M_done.wav","None","726.064815652","311","325769.511689","318052.863671","318819.777377","319586.469406","320352.839277","321119.58201","321886.478403","322636.023378","326536.549683","327285.374284","328052.266348","328819.171707","329585.501385","330352.092005","331119.16339","331885.868405","331128.951814","Mapping"
"Mixed","both","done","47","F_priest.wav","space","562.497661915","311","325769.511689","332652.893722","318819.777377","319586.469406","320352.839277","321119.58201","321886.478403","322636.023378","326536.549683","327285.374284","328052.266348","328819.171707","329585.501385","330352.092005","331119.16339","331885.868405","331895.485855","Mapping"
"Mixed","both","done","47","F_done.wav","None","721.498018131","311","325769.511689","332652.893722","333419.458681","319586.469406","320352.839277","321119.58201","321886.478403","322636.023378","326536.549683","327285.374284","328052.266348","328819.171707","329585.501385","330352.092005","331119.16339","331885.868405","332662.911243","Mapping"
"Mixed","both","done","47","M_depth.wav","space","484.234485775","311","325769.511689","332652.893722","333419.458681","334168.708086","320352.839277","321119.58201","321886.478403","322636.023378","326536.549683","327285.374284","328052.266348","328819.171707","329585.501385","330352.092005","331119.16339","331885.868405","333429.719521","Mapping"
"Mixed","both","done","47","M_park.wav","None","735.327026341","311","325769.511689","332652.893722","333419.458681","334168.708086","334935.812861","321119.58201","321886.478403","322636.023378","326536.549683","327285.374284","328052.266348","328819.171707","329585.501385","330352.092005","331119.16339","331885.868405","334178.614923","Mapping"
"Mixed","both","done","47","F_greet.wav","None","733.964500017","311","325769.511689","332652.893722","333419.458681","334168.708086","334935.812861","335702.521895","321886.478403","322636.023378","326536.549683","327285.374284","328052.266348","328819.171707","329585.501385","330352.092005","331119.16339","331885.868405","334945.313445","Mapping"
"Mixed","both","done","47","F_priest.wav","None","732.192628086","311","325769.511689","332652.893722","333419.458681","334168.708086","334935.812861","335702.521895","336468.783246","322636.023378","326536.549683","327285.374284","328052.266348","328819.171707","329585.501385","330352.092005","331119.16339","331885.868405","335712.382047","Mapping"
"Mixed","both","done","47","F_jolt.wav","None","731.348276604","311","325769.511689","332652.893722","333419.458681","334168.708086","334935.812861","335702.521895","336468.783246","337235.187126","326536.549683","327285.374284","328052.266348","328819.171707","329585.501385","330352.092005","331119.16339","331885.868405","336478.737696","Mapping"
"Mixed","both","ball","9","M_cling.wav","None","732.638147194","311","340369.311407","332652.893722","333419.458681","334168.708086","334935.812861","335702.521895","336468.783246","337235.187126","326536.549683","327285.374284","328052.266348","328819.171707","329585.501385","330352.092005","331119.16339","331885.868405","337244.693893","Mapping"
"Mixed","both","ball","9","M_park.wav","None","720.947689842","311","340369.311407","332652.893722","333419.458681","334168.708086","334935.812861","335702.521895","336468.783246","337235.187126","341135.469184","327285.374284","328052.266348","328819.171707","329585.501385","330352.092005","331119.16339","331885.868405","340379.045106","Mapping"
"Mixed","both","ball","9","F_lash.wav","None","720.570189878","311","340369.311407","332652.893722","333419.458681","334168.708086","334935.812861","335702.521895","336468.783246","337235.187126","341135.469184","341885.87737","328052.266348","328819.171707","329585.501385","330352.092005","331119.16339","331885.868405","341144.90546","Mapping"
"Mixed","both","ball","9","F_reek.wav","None","735.471410677","311","340369.311407","332652.893722","333419.458681","334168.708086","334935.812861","335702.521895","336468.783246","337235.187126","341135.469184","341885.87737","342651.791211","328819.171707","329585.501385","330352.092005","331119.16339","331885.868405","341895.515535","Mapping"
"Mixed","both","ball","9","M_ball.wav","None","733.158485498","311","340369.311407","332652.893722","333419.458681","334168.708086","334935.812861","335702.521895","336468.783246","337235.187126","341135.469184","341885.87737","342651.791211","343418.75593","329585.501385","330352.092005","331119.16339","331885.868405","342663.203412","Mapping"
"Mixed","both","ball","9","F_greet.wav","space","532.897419762","311","340369.311407","332652.893722","333419.458681","334168.708086","334935.812861","335702.521895","336468.783246","337235.187126","341135.469184","341885.87737","342651.791211","343418.75593","344185.218553","330352.092005","331119.16339","331885.868405","343428.895266","Mapping"
"Mixed","both","ball","9","F_romp.wav","None","731.565007009","311","340369.311407","332652.893722","333419.458681","334168.708086","334935.812861","335702.521895","336468.783246","337235.187126","341135.469184","341885.87737","342651.791211","343418.75593","344185.218553","344951.801444","331119.16339","331885.868405","344194.343182","Mapping"
"Mixed","both","ball","9","M_romp.wav","None","730.500214733","311","340369.311407","332652.893722","333419.458681","334168.708086","334935.812861","335702.521895","336468.783246","337235.187126","341135.469184","341885.87737","342651.791211","343418.75593","344185.218553","344951.801444","345718.848404","331885.868405","344960.771486","Mapping"
"Mixed","both","ball","9","F_ball.wav","None","728.188217152","311","340369.311407","332652.893722","333419.458681","334168.708086","334935.812861","335702.521895","336468.783246","337235.187126","341135.469184","341885.87737","342651.791211","343418.75593","344185.218553","344951.801444","345718.848404","346485.671523","345728.74813","Mapping"
"Mixed","both","ball","9","M_jolt.wav","space","610.257192049","311","340369.311407","347252.20711","333419.458681","334168.708086","334935.812861","335702.521895","336468.783246","337235.187126","341135.469184","341885.87737","342651.791211","343418.75593","344185.218553","344951.801444","345718.848404","346485.671523","346495.438304","Mapping"
"Mixed","both","ball","9","M_depth.wav","None","722.272497136","311","340369.311407","347252.20711","348019.163483","334168.708086","334935.812861","335702.521895","336468.783246","337235.187126","341135.469184","341885.87737","342651.791211","343418.75593","344185.218553","344951.801444","345718.848404","346485.671523","347264.33783","Mapping"
"Mixed","both","ball","9","F_ball.wav","None","722.247145139","311","340369.311407","347252.20711","348019.163483","348785.333627","334935.812861","335702.521895","336468.783246","337235.187126","341135.469184","341885.87737","342651.791211","343418.75593","344185.218553","344951.801444","345718.848404","346485.671523","348029.823774","Mapping"
"Mixed","both","ball","9","F_cling.wav","space","542.924524751","311","340369.311407","347252.20711","348019.163483","348785.333627","349552.759325","335702.521895","336468.783246","337235.187126","341135.469184","341885.87737","342651.791211","343418.75593","344185.218553","344951.801444","345718.848404","346485.671523","348794.742696","Mapping"
"Mixed","both","ball","9","M_ball.wav","None","719.383892138","311","340369.311407","347252.20711","348019.163483","348785.333627","349552.759325","350301.817351","336468.783246","337235.187126","341135.469184","341885.87737","342651.791211","343418.75593","344185.218553","344951.801444","345718.848404","346485.671523","349562.721813","Mapping"
"Mixed","both","ball","9","M_cad.wav","space","538.31351595","311","340369.311407","347252.20711","348019.163483","348785.333627","349552.759325","350301.817351","351068.485883","337235.187126","341135.469184","341885.87737","342651.791211","343418.75593","344185.218553","344951.801444","345718.848404","346485.671523","350311.329992","Mapping"
"Mixed","both","ball","9","F_greet.wav","None","733.859381173","311","340369.311407","347252.20711","348019.163483","348785.333627","349552.759325","350301.817351","351068.485883","351835.509346","341135.469184","341885.87737","342651.791211","343418.75593","344185.218553","344951.801444","345718.848404","346485.671523","351077.699863","Mapping"
"Mixed","both","ball","3","F_knife.wav","None","732.123682741","311","354969.056091","347252.20711","348019.163483","348785.333627","349552.759325","350301.817351","351068.485883","351835.509346","341135.469184","341885.87737","342651.791211","343418.75593","344185.218553","344951.801444","345718.848404","346485.671523","351844.829063","Mapping"
"Mixed","both","ball","3","M_ball.wav","None","721.177714877","311","354969.056091","347252.20711","348019.163483","348785.333627","349552.759325","350301.817351","351068.485883","351835.509346","355735.19872","341885.87737","342651.791211","343418.75593","344185.218553","344951.801444","345718.848404","346485.671523","354978.582336","Mapping"
"Mixed","both","ball","3","F_priest.wav","space","569.08305129","311","354969.056091","347252.20711","348019.163483","348785.333627","349552.759325","350301.817351","351068.485883","351835.509346","355735.19872","356485.234043","342651.791211","343418.75593","344185.218553","344951.801444","345718.848404","346485.671523","355744.457839","Mapping"
"Mixed","both","ball","3","F_jaw.wav","None","734.138873871","311","354969.056091","347252.20711","348019.163483","348785.333627","349552.759325","350301.817351","351068.485883","351835.509346","355735.19872","356485.234043","357251.587527","343418.75593","344185.218553","344951.801444","345718.848404","346485.671523","356495.160358","Mapping"
"Mixed","both","ball","3","F_ball.wav","None","734.814726282","311","354969.056091","347252.20711","348019.163483","348785.333627","349552.759325","350301.817351","351068.485883","351835.509346","355735.19872","356485.234043","357251.587527","358018.461969","344185.218553","344951.801444","345718.848404","346485.671523","357260.867361","Mapping"
"Mixed","both","ball","3","M_knife.wav","space","541.761724744","311","354969.056091","347252.20711","348019.163483","348785.333627","349552.759325","350301.817351","351068.485883","351835.509346","355735.19872","356485.234043","357251.587527","358018.461969","358785.429471","344951.801444","345718.848404","346485.671523","358027.749222","Mapping"
"Mixed","both","ball","3","M_cling.wav","None","729.758817237","311","354969.056091","347252.20711","348019.163483","348785.333627","349552.759325","350301.817351","351068.485883","351835.509346","355735.19872","356485.234043","357251.587527","358018.461969","358785.429471","359552.05441","345718.848404","346485.671523","358795.386394","Mapping"
"Mixed","both","ball","3","F_reek.wav","None","728.621368762","311","354969.056091","347252.20711","348019.163483","348785.333627","349552.759325","350301.817351","351068.485883","351835.509346","355735.19872","356485.234043","357251.587527","358018.461969","358785.429471","359552.05441","360318.567428","346485.671523","359562.365954","Mapping"
"Mixed","both","ball","3","M_romp.wav","None","728.288080543","311","354969.056091","347252.20711","348019.163483","348785.333627","349552.759325","350301.817351","351068.485883","351835.509346","355735.19872","356485.234043","357251.587527","358018.461969","358785.429471","359552.05441","360318.567428","361085.388382","360328.281959","Mapping"
"Mixed","both","ball","3","M_park.wav","None","727.133936714","311","354969.056091","361851.533793","348019.163483","348785.333627","349552.759325","350301.817351","351068.485883","351835.509346","355735.19872","356485.234043","357251.587527","358018.461969","358785.429471","359552.05441","360318.567428","361085.388382","361094.863304","Mapping"
"Mixed","both","ball","3","F_ball.wav","None","726.896182168","311","354969.056091","361851.533793","362618.433587","348785.333627","349552.759325","350301.817351","351068.485883","351835.509346","355735.19872","356485.234043","357251.587527","358018.461969","358785.429471","359552.05441","360318.567428","361085.388382","361860.621321","Mapping"
"Mixed","both","ball","3","F_bluff.wav","space","509.525162634","311","354969.056091","361851.533793","362618.433587","363385.661104","349552.759325","350301.817351","351068.485883","351835.509346","355735.19872","356485.234043","357251.587527","358018.461969","358785.429471","359552.05441","360318.567428","361085.388382","362627.922421","Mapping"
"Mixed","both","ball","3","M_lash.wav","None","721.095165703","311","354969.056091","361851.533793","362618.433587","363385.661104","364152.170721","350301.817351","351068.485883","351835.509346","355735.19872","356485.234043","357251.587527","358018.461969","358785.429471","359552.05441","360318.567428","361085.388382","363396.00542","Mapping"
"Mixed","both","ball","3","M_bluff.wav","None","720.512683503","311","354969.056091","361851.533793","362618.433587","363385.661104","364152.170721","364918.856876","351068.485883","351835.509346","355735.19872","356485.234043","357251.587527","358018.461969","358785.429471","359552.05441","360318.567428","361085.388382","364162.178348","Mapping"
"Mixed","both","ball","3","M_ball.wav","None","719.284337945","311","354969.056091","361851.533793","362618.433587","363385.661104","364152.170721","364918.856876","365668.684125","351835.509346","355735.19872","356485.234043","357251.587527","358018.461969","358785.429471","359552.05441","360318.567428","361085.388382","364928.972095","Mapping"
"Mixed","both","ball","3","F_romp.wav","space","723.054087255","311","354969.056091","361851.533793","362618.433587","363385.661104","364152.170721","364918.856876","365668.684125","366435.275982","355735.19872","356485.234043","357251.587527","358018.461969","358785.429471","359552.05441","360318.567428","361085.388382","365678.331875","Mapping"
"Mixed","both","ball","12","M_romp.wav","None","732.882703189","311","369568.33207","361851.533793","362618.433587","363385.661104","364152.170721","364918.856876","365668.684125","366435.275982","355735.19872","356485.234043","357251.587527","358018.461969","358785.429471","359552.05441","360318.567428","361085.388382","366444.906727","Mapping"
"Mixed","both","ball","12","F_dime.wav","None","722.090703435","311","369568.33207","361851.533793","362618.433587","363385.661104","364152.170721","364918.856876","365668.684125","366435.275982","370335.452613","356485.234043","357251.587527","358018.461969","358785.429471","359552.05441","360318.567428","361085.388382","369577.412487","Mapping"
"Mixed","both","ball","12","F_ball.wav","None","719.46675051","311","369568.33207","361851.533793","362618.433587","363385.661104","364152.170721","364918.856876","365668.684125","366435.275982","370335.452613","371085.45269","357251.587527","358018.461969","358785.429471","359552.05441","360318.567428","361085.388382","370345.552374","Mapping"
"Mixed","both","ball","12","M_romp.wav","space","641.628996469","311","369568.33207","361851.533793","362618.433587","363385.661104","364152.170721","364918.856876","365668.684125","366435.275982","370335.452613","371085.45269","371851.334685","358018.461969","358785.429471","359552.05441","360318.567428","361085.388382","371095.662517","Mapping"
"Mixed","both","ball","12","F_jolt.wav","None","733.903283719","311","369568.33207","361851.533793","362618.433587","363385.661104","364152.170721","364918.856876","365668.684125","366435.275982","370335.452613","371085.45269","371851.334685","372618.218711","358785.429471","359552.05441","360318.567428","361085.388382","371860.840525","Mapping"
"Mixed","both","ball","12","M_lash.wav","None","733.019975945","311","369568.33207","361851.533793","362618.433587","363385.661104","364152.170721","364918.856876","365668.684125","366435.275982","370335.452613","371085.45269","371851.334685","372618.218711","373384.731729","359552.05441","360318.567428","361085.388382","372627.273467","Mapping"
"Mixed","both","ball","12","F_depth.wav","None","731.661160011","311","369568.33207","361851.533793","362618.433587","363385.661104","364152.170721","364918.856876","365668.684125","366435.275982","370335.452613","371085.45269","371851.334685","372618.218711","373384.731729","374151.289577","360318.567428","361085.388382","373394.138014","Mapping"
"Mixed","both","ball","12","M_dime.wav","None","731.16400931","311","369568.33207","361851.533793","362618.433587","363385.661104","364152.170721","364918.856876","365668.684125","366435.275982","370335.452613","371085.45269","371851.334685","372618.218711","373384.731729","374151.289577","374918.115169","361085.388382","374160.220972","Mapping"
"Mixed","both","ball","12","F_ball.wav","None","728.805945255","311","369568.33207","361851.533793","362618.433587","363385.661104","364152.170721","364918.856876","365668.684125","366435.275982","370335.452613","371085.45269","371851.334685","372618.218711","373384.731729","374151.289577","374918.115169","375685.085763","374928.191742","Mapping"
"Mixed","both","ball","12","F_reek.wav","space","377.970729489","311","369568.33207","376451.766353","362618.433587","363385.661104","364152.170721","364918.856876","365668.684125","366435.275982","370335.452613","371085.45269","371851.334685","372618.218711","373384.731729","374151.289577","374918.115169","375685.085763","375695.219842","Mapping"
"Mixed","both","ball","12","M_ball.wav","None","724.776800256","311","369568.33207","376451.766353","377218.621007","363385.661104","364152.170721","364918.856876","365668.684125","366435.275982","370335.452613","371085.45269","371851.334685","372618.218711","373384.731729","374151.289577","374918.115169","375685.085763","376461.717092","Mapping"
"Mixed","both","ball","12","F_gnash.wav","space","468.664214015","311","369568.33207","376451.766353","377218.621007","377985.562539","364152.170721","364918.856876","365668.684125","366435.275982","370335.452613","371085.45269","371851.334685","372618.218711","373384.731729","374151.289577","374918.115169","375685.085763","377228.574529","Mapping"
"Mixed","both","ball","12","F_dime.wav","None","720.725394785","311","369568.33207","376451.766353","377218.621007","377985.562539","378752.013722","364918.856876","365668.684125","366435.275982","370335.452613","371085.45269","371851.334685","372618.218711","373384.731729","374151.289577","374918.115169","375685.085763","377995.302113","Mapping"
"Mixed","both","ball","12","M_romp.wav","None","717.686531134","311","369568.33207","376451.766353","377218.621007","377985.562539","378752.013722","379518.505717","365668.684125","366435.275982","370335.452613","371085.45269","371851.334685","372618.218711","373384.731729","374151.289577","374918.115169","375685.085763","378763.963576","Mapping"
"Mixed","both","ball","12","M_ball.wav","None","718.080417719","311","369568.33207","376451.766353","377218.621007","377985.562539","378752.013722","379518.505717","380267.904452","366435.275982","370335.452613","371085.45269","371851.334685","372618.218711","373384.731729","374151.289577","374918.115169","375685.085763","379529.154879","Mapping"
"Mixed","both","ball","12","M_park.wav","space","403.322004247","311","369568.33207","376451.766353","377218.621007","377985.562539","378752.013722","379518.505717","380267.904452","381035.023759","370335.452613","371085.45269","371851.334685","372618.218711","373384.731729","374151.289577","374918.115169","375685.085763","380277.802941","Mapping"
"Mixed","both","tile","29","F_greet.wav","None","735.395044554","311","384168.551335","376451.766353","377218.621007","377985.562539","378752.013722","379518.505717","380267.904452","381035.023759","370335.452613","371085.45269","371851.334685","372618.218711","373384.731729","374151.289577","374918.115169","375685.085763","381041.820622","Mapping"
"Mixed","both","tile","29","M_dime.wav","None","720.56462476","311","384168.551335","376451.766353","377218.621007","377985.562539","378752.013722","379518.505717","380267.904452","381035.023759","384935.378473","371085.45269","371851.334685","372618.218711","373384.731729","374151.289577","374918.115169","375685.085763","384178.792079","Mapping"
"Mixed","both","tile","29","F_dime.wav","None","720.035010483","311","384168.551335","376451.766353","377218.621007","377985.562539","378752.013722","379518.505717","380267.904452","381035.023759","384935.378473","385702.196027","371851.334685","372618.218711","373384.731729","374151.289577","374918.115169","375685.085763","384945.040136","Mapping"
"Mixed","both","tile","29","F_knife.wav","None","717.770935502","311","384168.551335","376451.766353","377218.621007","377985.562539","378752.013722","379518.505717","380267.904452","381035.023759","384935.378473","385702.196027","386451.386997","372618.218711","373384.731729","374151.289577","374918.115169","375685.085763","385713.026055","Mapping"
"Mixed","both","tile","29","F_tile.wav","None","735.010433011","311","384168.551335","376451.766353","377218.621007","377985.562539","378752.013722","379518.505717","380267.904452","381035.023759","384935.378473","385702.196027","386451.386997","387217.992149","373384.731729","374151.289577","374918.115169","375685.085763","386461.530661","Mapping"
"Mixed","both","tile","29","F_cling.wav","space","461.48954099","311","384168.551335","376451.766353","377218.621007","377985.562539","378752.013722","379518.505717","380267.904452","381035.023759","384935.378473","385702.196027","386451.386997","387217.992149","387984.827016","374151.289577","374918.115169","375685.085763","387227.54591","Mapping"
"Mixed","both","tile","29","M_depth.wav","None","732.418943197","311","384168.551335","376451.766353","377218.621007","377985.562539","378752.013722","379518.505717","380267.904452","381035.023759","384935.378473","385702.196027","386451.386997","387217.992149","387984.827016","388751.519664","374918.115169","375685.085763","387994.023064","Mapping"
"Mixed","both","tile","29","F_tile.wav","None","730.969848577","311","384168.551335","376451.766353","377218.621007","377985.562539","378752.013722","379518.505717","380267.904452","381035.023759","384935.378473","385702.196027","386451.386997","387217.992149","387984.827016","388751.519664","389517.857381","375685.085763","388761.32942","Mapping"
"Mixed","both","tile","29","M_romp.wav","space","585.604339372","311","384168.551335","376451.766353","377218.621007","377985.562539","378752.013722","379518.505717","380267.904452","381035.023759","384935.378473","385702.196027","386451.386997","387217.992149","387984.827016","388751.519664","389517.857381","390284.408427","389527.340959","Mapping"
"Mixed","both","tile","29","M_cad.wav","None","728.284060955","311","384168.551335","391051.494651","377218.621007","377985.562539","378752.013722","379518.505717","380267.904452","381035.023759","384935.378473","385702.196027","386451.386997","387217.992149","387984.827016","388751.519664","389517.857381","390284.408427","390293.828006","Mapping"
"Mixed","both","tile","29","M_tile.wav","None","726.201470476","311","384168.551335","391051.494651","391818.034567","377985.562539","378752.013722","379518.505717","380267.904452","381035.023759","384935.378473","385702.196027","386451.386997","387217.992149","387984.827016","388751.519664","389517.857381","390284.408427","391061.604306","Mapping"
"Mixed","both","tile","29","M_dime.wav","space","677.175257355","311","384168.551335","391051.494651","391818.034567","392584.590561","378752.013722","379518.505717","380267.904452","381035.023759","384935.378473","385702.196027","386451.386997","387217.992149","387984.827016","388751.519664","389517.857381","390284.408427","391827.746007","Mapping"
"Mixed","both","tile","29","F_priest.wav","None","723.71880943","311","384168.551335","391051.494651","391818.034567","392584.590561","393351.115327","379518.505717","380267.904452","381035.023759","384935.378473","385702.196027","386451.386997","387217.992149","387984.827016","388751.519664","389517.857381","390284.408427","392594.00272","Mapping"
"Mixed","both","tile","29","M_cad.wav","None","722.760991193","311","384168.551335","391051.494651","391818.034567","392584.590561","393351.115327","394118.422611","380267.904452","381035.023759","384935.378473","385702.196027","386451.386997","387217.992149","387984.827016","388751.519664","389517.857381","390284.408427","393360.706498","Mapping"
"Mixed","both","tile","29","M_tile.wav","None","720.633570105","311","384168.551335","391051.494651","391818.034567","392584.590561","393351.115327","394118.422611","394885.056206","381035.023759","384935.378473","385702.196027","386451.386997","387217.992149","387984.827016","388751.519664","389517.857381","390284.408427","394128.531338","Mapping"
"Mixed","both","tile","29","F_romp.wav","space","489.468787797","311","384168.551335","391051.494651","391818.034567","392584.590561","393351.115327","394118.422611","394885.056206","395634.575519","384935.378473","385702.196027","386451.386997","387217.992149","387984.827016","388751.519664","389517.857381","390284.408427","394895.396195","Mapping"
"Mixed","both","ball","5","F_park.wav","None","734.284803737","311","398768.228929","391051.494651","391818.034567","392584.590561","393351.115327","394118.422611","394885.056206","395634.575519","384935.378473","385702.196027","386451.386997","387217.992149","387984.827016","388751.519664","389517.857381","390284.408427","395644.856147","Mapping"
"Mixed","both","ball","5","M_park.wav","None","720.445902087","311","398768.228929","391051.494651","391818.034567","392584.590561","393351.115327","394118.422611","394885.056206","395634.575519","399534.185436","385702.196027","386451.386997","387217.992149","387984.827016","388751.519664","389517.857381","390284.408427","398778.373211","Mapping"
"Mixed","both","ball","5","M_romp.wav","None","720.541436225","311","398768.228929","391051.494651","391818.034567","392584.590561","393351.115327","394118.422611","394885.056206","395634.575519","399534.185436","400301.703576","386451.386997","387217.992149","387984.827016","388751.519664","389517.857381","390284.408427","399543.882962","Mapping"
"Mixed","both","ball","5","M_depth.wav","None","718.09463948","311","398768.228929","391051.494651","391818.034567","392584.590561","393351.115327","394118.422611","394885.056206","395634.575519","399534.185436","400301.703576","401067.58217","387217.992149","387984.827016","388751.519664","389517.857381","390284.408427","400312.06737","Mapping"
"Mixed","both","ball","5","M_ball.wav","None","720.959129278","311","398768.228929","391051.494651","391818.034567","392584.590561","393351.115327","394118.422611","394885.056206","395634.575519","399534.185436","400301.703576","401067.58217","401818.201521","387984.827016","388751.519664","389517.857381","390284.408427","401076.757194","Mapping"
"Mixed","both","ball","5","F_romp.wav","space","404.875290114","311","398768.228929","391051.494651","391818.034567","392584.590561","393351.115327","394118.422611","394885.056206","395634.575519","399534.185436","400301.703576","401067.58217","401818.201521","402584.642811","388751.519664","389517.857381","390284.408427","401827.862256","Mapping"
"Mixed","both","ball","5","F_ball.wav","None","733.441378921","311","398768.228929","391051.494651","391818.034567","392584.590561","393351.115327","394118.422611","394885.056206","395634.575519","399534.185436","400301.703576","401067.58217","401818.201521","402584.642811","403351.196021","389517.857381","390284.408427","402594.045077","Mapping"
"Mixed","both","ball","5","F_lash.wav","space","655.266007874","311","398768.228929","391051.494651","391818.034567","392584.590561","393351.115327","394118.422611","394885.056206","395634.575519","399534.185436","400301.703576","401067.58217","401818.201521","402584.642811","403351.196021","404117.837037","390284.408427","403361.431818","Mapping"
"Mixed","both","ball","5","M_ball.wav","None","729.634220246","311","398768.228929","391051.494651","391818.034567","392584.590561","393351.115327","394118.422611","394885.056206","395634.575519","399534.185436","400301.703576","401067.58217","401818.201521","402584.642811","403351.196021","404117.837037","404884.559365","404127.586504","Mapping"
"Mixed","both","ball","5","F_jolt.wav","space","434.245507699","311","398768.228929","405650.761664","391818.034567","392584.590561","393351.115327","394118.422611","394885.056206","395634.575519","399534.185436","400301.703576","401067.58217","401818.201521","402584.642811","403351.196021","404117.837037","404884.559365","404894.462801","Mapping"
"Mixed","both","ball","5","M_knife.wav","None","727.760012262","311","398768.228929","405650.761664","406417.785436","392584.590561","393351.115327","394118.422611","394885.056206","395634.575519","399534.185436","400301.703576","401067.58217","401818.201521","402584.642811","403351.196021","404117.837037","404884.559365","405659.906389","Mapping"
"Mixed","both","ball","5","F_gnash.wav","None","725.584978703","311","398768.228929","405650.761664","406417.785436","407184.588768","393351.115327","394118.422611","394885.056206","395634.575519","399534.185436","400301.703576","401067.58217","401818.201521","402584.642811","403351.196021","404117.837037","404884.559365","406427.766474","Mapping"
"Mixed","both","ball","5","F_ball.wav","None","724.932623561","311","398768.228929","405650.761664","406417.785436","407184.588768","407950.704498","394118.422611","394885.056206","395634.575519","399534.185436","400301.703576","401067.58217","401818.201521","402584.642811","403351.196021","404117.837037","404884.559365","407194.230643","Mapping"
"Mixed","both","ball","5","F_priest.wav","space","456.598729827","311","398768.228929","405650.761664","406417.785436","407184.588768","407950.704498","408717.979628","394885.056206","395634.575519","399534.185436","400301.703576","401067.58217","401818.201521","402584.642811","403351.196021","404117.837037","404884.559365","407960.024215","Mapping"
"Mixed","both","ball","5","M_lash.wav","None","720.443428494","311","398768.228929","405650.761664","406417.785436","407184.588768","407950.704498","408717.979628","409484.219336","395634.575519","399534.185436","400301.703576","401067.58217","401818.201521","402584.642811","403351.196021","404117.837037","404884.559365","408728.595708","Mapping"
"Mixed","both","ball","5","M_romp.wav","None","720.521030948","311","398768.228929","405650.761664","406417.785436","407184.588768","407950.704498","408717.979628","409484.219336","410251.49323","399534.185436","400301.703576","401067.58217","401818.201521","402584.642811","403351.196021","404117.837037","404884.559365","409494.397009","Mapping"
