"Condition","Talker","Target","Trial","current_stimulus","response_response","response_time_response","subject_nr","time_Audio1","time_Audio10","time_Audio11","time_Audio12","time_Audio13","time_Audio14","time_Audio15","time_Audio16","time_Audio2","time_Audio3","time_Audio4","time_Audio5","time_Audio6","time_Audio7","time_Audio8","time_Audio9","time_response","title"
"Mixed","Both","tile","25","M_priest.wav","NA","NA","140","113667.667873","NA","NA","NA","NA","NA","NA","NA","NA","NA","NA","NA","NA","NA","NA","NA","NA","Mapping"
"Mixed","Both","tile","25","F_gnash.wav","None","722.753879963","140","113667.667873","NA","NA","NA","NA","NA","NA","NA","114417.011575","NA","NA","NA","NA","NA","NA","NA","113675.315272","Mapping"
"Mixed","Both","tile","25","M_tile.wav","None","736.028540414","140","113667.667873","NA","NA","NA","NA","NA","NA","NA","114417.011575","115183.62291","NA","NA","NA","NA","NA","NA","114426.096939","Mapping"
"Mixed","Both","tile","25","M_dime.wav","space","455.183334998","140","113667.667873","NA","NA","NA","NA","NA","NA","NA","114417.011575","115183.62291","115950.296389","NA","NA","NA","NA","NA","115192.897488","Mapping"
"Mixed","Both","tile","25","F_tile.wav","None","732.463155058","140","113667.667873","NA","NA","NA","NA","NA","NA","NA","114417.011575","115183.62291","115950.296389","116716.706761","NA","NA","NA","NA","115959.429056","Mapping"
"Mixed","Both","tile","25","M_depth.wav","space","473.683331744","140","113667.667873","NA","NA","NA","NA","NA","NA","NA","114417.011575","115183.62291","115950.296389","116716.706761","117483.904907","NA","NA","NA","116726.331323","Mapping"
"Mixed","Both","tile","25","M_jaw.wav","None","728.404638474","140","113667.667873","NA","NA","NA","NA","NA","NA","NA","114417.011575","115183.62291","115950.296389","116716.706761","117483.904907","118250.345269","NA","NA","117493.672925","Mapping"
"Mixed","Both","tile","25","M_reek.wav","None","728.739782237","140","113667.667873","NA","NA","NA","NA","NA","NA","NA","114417.011575","115183.62291","115950.296389","116716.706761","117483.904907","118250.345269","119016.906518","NA","118260.104321","Mapping"
"Mixed","Both","tile","25","F_priest.wav","None","726.911641075","140","113667.667873","NA","NA","NA","NA","NA","NA","NA","114417.011575","115183.62291","115950.296389","116716.706761","117483.904907","118250.345269","119016.906518","119783.567012","119025.995901","Mapping"
"Mixed","Both","tile","25","F_gnash.wav","None","724.15319772","140","113667.667873","120550.755264","NA","NA","NA","NA","NA","NA","114417.011575","115183.62291","115950.296389","116716.706761","117483.904907","118250.345269","119016.906518","119783.567012","119792.799233","Mapping"
"Mixed","Both","tile","25","F_tile.wav","None","721.27603204","140","113667.667873","120550.755264","121299.967568","NA","NA","NA","NA","NA","114417.011575","115183.62291","115950.296389","116716.706761","117483.904907","118250.345269","119016.906518","119783.567012","120559.922867","Mapping"
"Mixed","Both","tile","25","F_cave.wav","space","378.856510622","140","113667.667873","120550.755264","121299.967568","122066.772754","NA","NA","NA","NA","114417.011575","115183.62291","115950.296389","116716.706761","117483.904907","118250.345269","119016.906518","119783.567012","121309.035927","Mapping"
"Mixed","Both","tile","25","M_tile.wav","None","734.658903093","140","113667.667873","120550.755264","121299.967568","122066.772754","122833.632355","NA","NA","NA","114417.011575","115183.62291","115950.296389","116716.706761","117483.904907","118250.345269","119016.906518","119783.567012","122076.252314","Mapping"
"Mixed","Both","tile","25","F_jolt.wav","space","613.105295459","140","113667.667873","120550.755264","121299.967568","122066.772754","122833.632355","123600.388693","NA","NA","114417.011575","115183.62291","115950.296389","116716.706761","117483.904907","118250.345269","119016.906518","119783.567012","122842.811398","Mapping"
"Mixed","Both","tile","25","F_jaw.wav","None","733.021521824","140","113667.667873","120550.755264","121299.967568","122066.772754","122833.632355","123600.388693","124366.882542","NA","114417.011575","115183.62291","115950.296389","116716.706761","117483.904907","118250.345269","119016.906518","119783.567012","123609.522906","Mapping"
"Mixed","Both","tile","25","M_knife.wav","None","732.250134693","140","113667.667873","120550.755264","121299.967568","122066.772754","122833.632355","123600.388693","124366.882542","125133.740597","114417.011575","115183.62291","115950.296389","116716.706761","117483.904907","118250.345269","119016.906518","119783.567012","124376.068696","Mapping"
"Mixed","Both","ball","1","F_dime.wav","None","731.345803128","140","128284.207464","120550.755264","121299.967568","122066.772754","122833.632355","123600.388693","124366.882542","125133.740597","114417.011575","115183.62291","115950.296389","116716.706761","117483.904907","118250.345269","119016.906518","119783.567012","125142.717441","Mapping"
"Mixed","Both","ball","1","M_ball.wav","None","722.62526385","140","128284.207464","120550.755264","121299.967568","122066.772754","122833.632355","123600.388693","124366.882542","125133.740597","129050.517355","115183.62291","115950.296389","116716.706761","117483.904907","118250.345269","119016.906518","119783.567012","128293.510485","Mapping"
"Mixed","Both","ball","1","M_park.wav","space","292.120751925","140","128284.207464","120550.755264","121299.967568","122066.772754","122833.632355","123600.388693","124366.882542","125133.740597","129050.517355","129817.236591","115950.296389","116716.706761","117483.904907","118250.345269","119016.906518","119783.567012","129059.624361","Mapping"
"Mixed","Both","ball","1","M_lash.wav","None","720.559986774","140","128284.207464","120550.755264","121299.967568","122066.772754","122833.632355","123600.388693","124366.882542","125133.740597","129050.517355","129817.236591","130567.13526","116716.706761","117483.904907","118250.345269","119016.906518","119783.567012","129826.474996","Mapping"
"Mixed","Both","ball","1","F_cave.wav","None","736.560009187","140","128284.207464","120550.755264","121299.967568","122066.772754","122833.632355","123600.388693","124366.882542","125133.740597","129050.517355","129817.236591","130567.13526","131333.746595","117483.904907","118250.345269","119016.906518","119783.567012","130576.0985","Mapping"
"Mixed","Both","ball","1","F_knife.wav","None","733.518981491","140","128284.207464","120550.755264","121299.967568","122066.772754","122833.632355","123600.388693","124366.882542","125133.740597","129050.517355","129817.236591","130567.13526","131333.746595","132100.35422","118250.345269","119016.906518","119783.567012","131343.23914","Mapping"
"Mixed","Both","ball","1","M_ball.wav","None","731.323542655","140","128284.207464","120550.755264","121299.967568","122066.772754","122833.632355","123600.388693","124366.882542","125133.740597","129050.517355","129817.236591","130567.13526","131333.746595","132100.35422","132866.865383","119016.906518","119783.567012","132109.599426","Mapping"
"Mixed","Both","ball","1","F_romp.wav","space","307.643719949","140","128284.207464","120550.755264","121299.967568","122066.772754","122833.632355","123600.388693","124366.882542","125133.740597","129050.517355","129817.236591","130567.13526","131333.746595","132100.35422","132866.865383","133633.799804","119783.567012","132876.05772","Mapping"
"Mixed","Both","ball","1","M_cave.wav","None","730.055623339","140","128284.207464","120550.755264","121299.967568","122066.772754","122833.632355","123600.388693","124366.882542","125133.740597","129050.517355","129817.236591","130567.13526","131333.746595","132100.35422","132866.865383","133633.799804","134400.310039","133643.208872","Mapping"
"Mixed","Both","ball","1","F_lash.wav","None","729.145108256","140","128284.207464","135167.01629","121299.967568","122066.772754","122833.632355","123600.388693","124366.882542","125133.740597","129050.517355","129817.236591","130567.13526","131333.746595","132100.35422","132866.865383","133633.799804","134400.310039","134409.427866","Mapping"
"Mixed","Both","ball","1","M_greet.wav","None","733.368723304","140","128284.207464","135167.01629","135933.473348","122066.772754","122833.632355","123600.388693","124366.882542","125133.740597","129050.517355","129817.236591","130567.13526","131333.746595","132100.35422","132866.865383","133633.799804","134400.310039","135171.110362","Mapping"
"Mixed","Both","ball","1","F_tile.wav","None","727.295943419","140","128284.207464","135167.01629","135933.473348","136700.185164","122833.632355","123600.388693","124366.882542","125133.740597","129050.517355","129817.236591","130567.13526","131333.746595","132100.35422","132866.865383","133633.799804","134400.310039","135942.511717","Mapping"
"Mixed","Both","ball","1","F_ball.wav","None","725.8589064","140","128284.207464","135167.01629","135933.473348","136700.185164","137466.967781","123600.388693","124366.882542","125133.740597","129050.517355","129817.236591","130567.13526","131333.746595","132100.35422","132866.865383","133633.799804","134400.310039","136709.392651","Mapping"
"Mixed","Both","ball","1","M_bluff.wav","space","291.47086991","140","128284.207464","135167.01629","135933.473348","136700.185164","137466.967781","138233.821198","124366.882542","125133.740597","129050.517355","129817.236591","130567.13526","131333.746595","132100.35422","132866.865383","133633.799804","134400.310039","137476.09983","Mapping"
"Mixed","Both","ball","1","F_ball.wav","None","720.778263174","140","128284.207464","135167.01629","135933.473348","136700.185164","137466.967781","138233.821198","138984.012654","125133.740597","129050.517355","129817.236591","130567.13526","131333.746595","132100.35422","132866.865383","133633.799804","134400.310039","138243.765754","Mapping"
"Mixed","Both","ball","1","M_tile.wav","space","486.286777304","140","128284.207464","135167.01629","135933.473348","136700.185164","137466.967781","138233.821198","138984.012654","139749.96916","129050.517355","129817.236591","130567.13526","131333.746595","132100.35422","132866.865383","133633.799804","134400.310039","138993.270536","Mapping"
"Mixed","Both","tile","33","M_cling.wav","None","735.718130483","140","142883.945965","135167.01629","135933.473348","136700.185164","137466.967781","138233.821198","138984.012654","139749.96916","129050.517355","129817.236591","130567.13526","131333.746595","132100.35422","132866.865383","133633.799804","134400.310039","139758.851088","Mapping"
"Mixed","Both","tile","33","F_gnash.wav","None","721.573456656","140","142883.945965","135167.01629","135933.473348","136700.185164","137466.967781","138233.821198","138984.012654","139749.96916","143650.066642","129817.236591","130567.13526","131333.746595","132100.35422","132866.865383","133633.799804","134400.310039","142893.057609","Mapping"
"Mixed","Both","tile","33","M_bluff.wav","None","727.355923038","140","142883.945965","135167.01629","135933.473348","136700.185164","137466.967781","138233.821198","138984.012654","139749.96916","143650.066642","144416.803811","130567.13526","131333.746595","132100.35422","132866.865383","133633.799804","134400.310039","143653.540512","Mapping"
"Mixed","Both","tile","33","F_tile.wav","None","719.792928197","140","142883.945965","135167.01629","135933.473348","136700.185164","137466.967781","138233.821198","138984.012654","139749.96916","143650.066642","144416.803811","145166.715155","131333.746595","132100.35422","132866.865383","133633.799804","134400.310039","144426.697044","Mapping"
"Mixed","Both","tile","33","F_romp.wav","space","327.725755982","140","142883.945965","135167.01629","135933.473348","136700.185164","137466.967781","138233.821198","138984.012654","139749.96916","143650.066642","144416.803811","145166.715155","145933.584032","132100.35422","132866.865383","133633.799804","134400.310039","145175.807939","Mapping"
"Mixed","Both","tile","33","M_knife.wav","None","735.01692561","140","142883.945965","135167.01629","135933.473348","136700.185164","137466.967781","138233.821198","138984.012654","139749.96916","143650.066642","144416.803811","145166.715155","145933.584032","146699.843837","132866.865383","133633.799804","134400.310039","145942.498732","Mapping"
"Mixed","Both","tile","33","F_cad.wav","None","734.709916753","140","142883.945965","135167.01629","135933.473348","136700.185164","137466.967781","138233.821198","138984.012654","139749.96916","143650.066642","144416.803811","145166.715155","145933.584032","146699.843837","147466.793098","133633.799804","134400.310039","146708.853144","Mapping"
"Mixed","Both","tile","33","M_tile.wav","None","732.467483496","140","142883.945965","135167.01629","135933.473348","136700.185164","137466.967781","138233.821198","138984.012654","139749.96916","143650.066642","144416.803811","145166.715155","145933.584032","146699.843837","147466.793098","148233.337033","134400.310039","147476.27544","Mapping"
"Mixed","Both","tile","33","M_dime.wav","space","357.050215593","140","142883.945965","135167.01629","135933.473348","136700.185164","137466.967781","138233.821198","138984.012654","139749.96916","143650.066642","144416.803811","145166.715155","145933.584032","146699.843837","147466.793098","148233.337033","149000.074202","148242.42116","Mapping"
"Mixed","Both","tile","33","M_tile.wav","None","729.092858033","140","142883.945965","149766.747371","135933.473348","136700.185164","137466.967781","138233.821198","138984.012654","139749.96916","143650.066642","144416.803811","145166.715155","145933.584032","146699.843837","147466.793098","148233.337033","149000.074202","149009.293128","Mapping"
"Mixed","Both","tile","33","M_ball.wav","space","591.658568825","140","142883.945965","149766.747371","150533.227617","136700.185164","137466.967781","138233.821198","138984.012654","139749.96916","143650.066642","144416.803811","145166.715155","145933.584032","146699.843837","147466.793098","148233.337033","149000.074202","149775.743384","Mapping"
"Mixed","Both","tile","33","F_tile.wav","None","726.946886745","140","142883.945965","149766.747371","150533.227617","151300.02662","137466.967781","138233.821198","138984.012654","139749.96916","143650.066642","144416.803811","145166.715155","145933.584032","146699.843837","147466.793098","148233.337033","149000.074202","150542.777359","Mapping"
"Mixed","Both","tile","33","F_cling.wav","space","362.292556325","140","142883.945965","149766.747371","150533.227617","151300.02662","152066.829024","138233.821198","138984.012654","139749.96916","143650.066642","144416.803811","145166.715155","145933.584032","146699.843837","147466.793098","148233.337033","149000.074202","151309.118476","Mapping"
"Mixed","Both","tile","33","M_ball.wav","None","728.621059679","140","142883.945965","149766.747371","150533.227617","151300.02662","152066.829024","152834.259049","138984.012654","139749.96916","143650.066642","144416.803811","145166.715155","145933.584032","146699.843837","147466.793098","148233.337033","149000.074202","152070.448205","Mapping"
"Mixed","Both","tile","33","F_greet.wav","None","720.307083218","140","142883.945965","149766.747371","150533.227617","151300.02662","152066.829024","152834.259049","153600.051694","139749.96916","143650.066642","144416.803811","145166.715155","145933.584032","146699.843837","147466.793098","148233.337033","149000.074202","152843.736445","Mapping"
"Mixed","Both","tile","33","F_knife.wav","None","726.081511122","140","142883.945965","149766.747371","150533.227617","151300.02662","152066.829024","152834.259049","153600.051694","154349.934285","143650.066642","144416.803811","145166.715155","145933.584032","146699.843837","147466.793098","148233.337033","149000.074202","153604.264488","Mapping"
"Mixed","Both","tile","35","M_lash.wav","None","735.24262209","140","157483.579038","149766.747371","150533.227617","151300.02662","152066.829024","152834.259049","153600.051694","154349.934285","143650.066642","144416.803811","145166.715155","145933.584032","146699.843837","147466.793098","148233.337033","149000.074202","154359.371797","Mapping"
"Mixed","Both","tile","35","M_tile.wav","None","727.920782403","140","157483.579038","149766.747371","150533.227617","151300.02662","152066.829024","152834.259049","153600.051694","154349.934285","158250.16935","144416.803811","145166.715155","145933.584032","146699.843837","147466.793098","148233.337033","149000.074202","157487.732471","Mapping"
"Mixed","Both","tile","35","M_jaw.wav","space","355.272778892","140","157483.579038","149766.747371","150533.227617","151300.02662","152066.829024","152834.259049","153600.051694","154349.934285","158250.16935","159016.780685","145166.715155","145933.584032","146699.843837","147466.793098","148233.337033","149000.074202","158259.949425","Mapping"
"Mixed","Both","tile","35","F_greet.wav","None","720.402308623","140","157483.579038","149766.747371","150533.227617","151300.02662","152066.829024","152834.259049","153600.051694","154349.934285","158250.16935","159016.780685","159766.704396","145933.584032","146699.843837","147466.793098","148233.337033","149000.074202","159026.12328","Mapping"
"Mixed","Both","tile","35","M_gnash.wav","None","736.571448622","140","157483.579038","149766.747371","150533.227617","151300.02662","152066.829024","152834.259049","153600.051694","154349.934285","158250.16935","159016.780685","159766.704396","160532.69553","146699.843837","147466.793098","148233.337033","149000.074202","159775.718959","Mapping"
"Mixed","Both","tile","35","M_done.wav","None","736.986668082","140","157483.579038","149766.747371","150533.227617","151300.02662","152066.829024","152834.259049","153600.051694","154349.934285","158250.16935","159016.780685","159766.704396","160532.69553","161299.824111","147466.793098","148233.337033","149000.074202","160541.666808","Mapping"
"Mixed","Both","tile","35","F_tile.wav","None","734.9717865","140","157483.579038","149766.747371","150533.227617","151300.02662","152066.829024","152834.259049","153600.051694","154349.934285","158250.16935","159016.780685","159766.704396","160532.69553","161299.824111","162066.412258","148233.337033","149000.074202","161308.863408","Mapping"
"Mixed","Both","tile","35","F_cling.wav","space","523.579866975","140","157483.579038","149766.747371","150533.227617","151300.02662","152066.829024","152834.259049","153600.051694","154349.934285","158250.16935","159016.780685","159766.704396","160532.69553","161299.824111","162066.412258","162833.046163","149000.074202","162075.587901","Mapping"
"Mixed","Both","tile","35","F_tile.wav","None","730.814952753","140","157483.579038","149766.747371","150533.227617","151300.02662","152066.829024","152834.259049","153600.051694","154349.934285","158250.16935","159016.780685","159766.704396","160532.69553","161299.824111","162066.412258","162833.046163","163599.718096","162842.201091","Mapping"
"Mixed","Both","tile","35","M_cave.wav","space","397.099275258","140","157483.579038","164366.494529","150533.227617","151300.02662","152066.829024","152834.259049","153600.051694","154349.934285","158250.16935","159016.780685","159766.704396","160532.69553","161299.824111","162066.412258","162833.046163","163599.718096","163610.001197","Mapping"
"Mixed","Both","tile","35","M_tile.wav","None","728.794196621","140","157483.579038","164366.494529","165132.988379","151300.02662","152066.829024","152834.259049","153600.051694","154349.934285","158250.16935","159016.780685","159766.704396","160532.69553","161299.824111","162066.412258","162833.046163","163599.718096","164375.571855","Mapping"
"Mixed","Both","tile","35","F_cave.wav","space","521.298787091","140","157483.579038","164366.494529","165132.988379","165899.714108","152066.829024","152834.259049","153600.051694","154349.934285","158250.16935","159016.780685","159766.704396","160532.69553","161299.824111","162066.412258","162833.046163","163599.718096","165141.825476","Mapping"
"Mixed","Both","tile","35","F_jaw.wav","None","733.42344712","140","157483.579038","164366.494529","165132.988379","165899.714108","166666.629669","152834.259049","153600.051694","154349.934285","158250.16935","159016.780685","159766.704396","160532.69553","161299.824111","162066.412258","162833.046163","163599.718096","165903.397288","Mapping"
"Mixed","Both","tile","35","M_romp.wav","None","726.535686525","140","157483.579038","164366.494529","165132.988379","165899.714108","166666.629669","167433.090127","153600.051694","154349.934285","158250.16935","159016.780685","159766.704396","160532.69553","161299.824111","162066.412258","162833.046163","163599.718096","166675.762954","Mapping"
"Mixed","Both","tile","35","F_gnash.wav","None","724.768761662","140","157483.579038","164366.494529","165132.988379","165899.714108","166666.629669","167433.090127","168200.114209","154349.934285","158250.16935","159016.780685","159766.704396","160532.69553","161299.824111","162066.412258","162833.046163","163599.718096","167442.366251","Mapping"
"Mixed","Both","tile","35","F_gnash.wav","None","722.938765539","140","157483.579038","164366.494529","165132.988379","165899.714108","166666.629669","167433.090127","168200.114209","168966.449452","158250.16935","159016.780685","159766.704396","160532.69553","161299.824111","162066.412258","162833.046163","163599.718096","168209.501016","Mapping"
"Mixed","Both","cave","16","M_jaw.wav","None","722.704412183","140","172099.898808","164366.494529","165132.988379","165899.714108","166666.629669","167433.090127","168200.114209","168966.449452","158250.16935","159016.780685","159766.704396","160532.69553","161299.824111","162066.412258","162833.046163","163599.718096","168975.735469","Mapping"
"Mixed","Both","cave","16","M_jolt.wav","None","720.798050286","140","172099.898808","164366.494529","165132.988379","165899.714108","166666.629669","167433.090127","168200.114209","168966.449452","172849.432652","159016.780685","159766.704396","160532.69553","161299.824111","162066.412258","162833.046163","163599.718096","172109.258717","Mapping"
"Mixed","Both","cave","16","F_bluff.wav","None","736.685533542","140","172099.898808","164366.494529","165132.988379","165899.714108","166666.629669","167433.090127","168200.114209","168966.449452","172849.432652","173616.460752","159766.704396","160532.69553","161299.824111","162066.412258","162833.046163","163599.718096","172858.22832","Mapping"
"Mixed","Both","cave","16","F_cave.wav","None","733.658727841","140","172099.898808","164366.494529","165132.988379","165899.714108","166666.629669","167433.090127","168200.114209","168966.449452","172849.432652","173616.460752","174382.917501","160532.69553","161299.824111","162066.412258","162833.046163","163599.718096","173625.583217","Mapping"
"Mixed","Both","cave","16","F_cad.wav","space","254.708321416","140","172099.898808","164366.494529","165132.988379","165899.714108","166666.629669","167433.090127","168200.114209","168966.449452","172849.432652","173616.460752","174382.917501","175149.517087","161299.824111","162066.412258","162833.046163","163599.718096","174392.231034","Mapping"
"Mixed","Both","cave","16","F_jaw.wav","None","731.474110042","140","172099.898808","164366.494529","165132.988379","165899.714108","166666.629669","167433.090127","168200.114209","168966.449452","172849.432652","173616.460752","174382.917501","175149.517087","175916.104925","162066.412258","162833.046163","163599.718096","175158.578953","Mapping"
"Mixed","Both","cave","16","F_cave.wav","None","729.938446777","140","172099.898808","164366.494529","165132.988379","165899.714108","166666.629669","167433.090127","168200.114209","168966.449452","172849.432652","173616.460752","174382.917501","175149.517087","175916.104925","176682.889706","162833.046163","163599.718096","175925.529451","Mapping"
"Mixed","Both","cave","16","F_reek.wav","space","386.970761116","140","172099.898808","164366.494529","165132.988379","165899.714108","166666.629669","167433.090127","168200.114209","168966.449452","172849.432652","173616.460752","174382.917501","175149.517087","175916.104925","176682.889706","177449.964801","163599.718096","176691.933022","Mapping"
"Mixed","Both","cave","16","M_cave.wav","None","724.594387924","140","172099.898808","164366.494529","165132.988379","165899.714108","166666.629669","167433.090127","168200.114209","168966.449452","172849.432652","173616.460752","174382.917501","175149.517087","175916.104925","176682.889706","177449.964801","178216.56686","177459.041198","Mapping"
"Mixed","Both","cave","16","M_cling.wav","space","476.904298179","140","172099.898808","178983.06813","165132.988379","165899.714108","166666.629669","167433.090127","168200.114209","168966.449452","172849.432652","173616.460752","174382.917501","175149.517087","175916.104925","176682.889706","177449.964801","178216.56686","178225.980875","Mapping"
"Mixed","Both","cave","16","M_dime.wav","None","721.020654892","140","172099.898808","178983.06813","179749.825085","165899.714108","166666.629669","167433.090127","168200.114209","168966.449452","172849.432652","173616.460752","174382.917501","175149.517087","175916.104925","176682.889706","177449.964801","178216.56686","178992.478125","Mapping"
"Mixed","Both","cave","16","F_dime.wav","None","720.238137641","140","172099.898808","178983.06813","179749.825085","180499.531448","166666.629669","167433.090127","168200.114209","168966.449452","172849.432652","173616.460752","174382.917501","175149.517087","175916.104925","176682.889706","177449.964801","178216.56686","179759.19798","Mapping"
"Mixed","Both","cave","16","M_cave.wav","None","736.493536853","140","172099.898808","178983.06813","179749.825085","180499.531448","181266.086204","167433.090127","168200.114209","168966.449452","172849.432652","173616.460752","174382.917501","175149.517087","175916.104925","176682.889706","177449.964801","178216.56686","180508.502418","Mapping"
"Mixed","Both","cave","16","F_ball.wav","space","440.940653207","140","172099.898808","178983.06813","179749.825085","180499.531448","181266.086204","182032.722273","168200.114209","168966.449452","172849.432652","173616.460752","174382.917501","175149.517087","175916.104925","176682.889706","177449.964801","178216.56686","181269.825345","Mapping"
"Mixed","Both","cave","16","M_bluff.wav","None","733.159722295","140","172099.898808","178983.06813","179749.825085","180499.531448","181266.086204","182032.722273","182799.382148","168966.449452","172849.432652","173616.460752","174382.917501","175149.517087","175916.104925","176682.889706","177449.964801","178216.56686","182042.065178","Mapping"
"Mixed","Both","cave","16","M_greet.wav","None","731.868305826","140","172099.898808","178983.06813","179749.825085","180499.531448","181266.086204","182032.722273","182799.382148","183565.921446","172849.432652","173616.460752","174382.917501","175149.517087","175916.104925","176682.889706","177449.964801","178216.56686","182808.624881","Mapping"
"Mixed","Both","tile","32","M_reek.wav","None","730.68726412","140","186699.445622","178983.06813","179749.825085","180499.531448","181266.086204","182032.722273","182799.382148","183565.921446","172849.432652","173616.460752","174382.917501","175149.517087","175916.104925","176682.889706","177449.964801","178216.56686","183575.442435","Mapping"
"Mixed","Both","tile","32","M_depth.wav","None","722.45800111","140","186699.445622","178983.06813","179749.825085","180499.531448","181266.086204","182032.722273","182799.382148","183565.921446","187466.177225","173616.460752","174382.917501","175149.517087","175916.104925","176682.889706","177449.964801","178216.56686","186708.87324","Mapping"
"Mixed","Both","tile","32","M_tile.wav","None","720.943052438","140","186699.445622","178983.06813","179749.825085","180499.531448","181266.086204","182032.722273","182799.382148","183565.921446","187466.177225","188215.741059","174382.917501","175149.517087","175916.104925","176682.889706","177449.964801","178216.56686","187475.278975","Mapping"
"Mixed","Both","tile","32","M_ball.wav","space","349.541944452","140","186699.445622","178983.06813","179749.825085","180499.531448","181266.086204","182032.722273","182799.382148","183565.921446","187466.177225","188215.741059","188982.672388","175149.517087","175916.104925","176682.889706","177449.964801","178216.56686","188225.158784","Mapping"
"Mixed","Both","tile","32","F_tile.wav","None","736.383780371","140","186699.445622","178983.06813","179749.825085","180499.531448","181266.086204","182032.722273","182799.382148","183565.921446","187466.177225","188215.741059","188982.672388","189749.310312","175916.104925","176682.889706","177449.964801","178216.56686","188991.918213","Mapping"
"Mixed","Both","tile","32","F_greet.wav","space","424.016821547","140","186699.445622","178983.06813","179749.825085","180499.531448","181266.086204","182032.722273","182799.382148","183565.921446","187466.177225","188215.741059","188982.672388","189749.310312","190515.846209","176682.889706","177449.964801","178216.56686","189758.652289","Mapping"
"Mixed","Both","tile","32","F_tile.wav","None","734.358386719","140","186699.445622","178983.06813","179749.825085","180499.531448","181266.086204","182032.722273","182799.382148","183565.921446","187466.177225","188215.741059","188982.672388","189749.310312","190515.846209","191282.535146","177449.964801","178216.56686","190524.757817","Mapping"
"Mixed","Both","tile","32","M_priest.wav","space","491.067213239","140","186699.445622","178983.06813","179749.825085","180499.531448","181266.086204","182032.722273","182799.382148","183565.921446","187466.177225","188215.741059","188982.672388","189749.310312","190515.846209","191282.535146","192049.468021","178216.56686","191291.586192","Mapping"
"Mixed","Both","tile","32","M_cave.wav","None","730.813406873","140","186699.445622","178983.06813","179749.825085","180499.531448","181266.086204","182032.722273","182799.382148","183565.921446","187466.177225","188215.741059","188982.672388","189749.310312","190515.846209","191282.535146","192049.468021","192815.938064","192058.642427","Mapping"
"Mixed","Both","tile","32","M_tile.wav","None","731.492351159","140","186699.445622","193582.533322","179749.825085","180499.531448","181266.086204","182032.722273","182799.382148","183565.921446","187466.177225","188215.741059","188982.672388","189749.310312","190515.846209","191282.535146","192049.468021","192815.938064","192825.294882","Mapping"
"Mixed","Both","tile","32","F_cling.wav","space","662.644426455","140","186699.445622","193582.533322","194349.149294","180499.531448","181266.086204","182032.722273","182799.382148","183565.921446","187466.177225","188215.741059","188982.672388","189749.310312","190515.846209","191282.535146","192049.468021","192815.938064","193591.97609","Mapping"
"Mixed","Both","tile","32","F_bluff.wav","None","729.525082163","140","186699.445622","193582.533322","194349.149294","195115.779798","181266.086204","182032.722273","182799.382148","183565.921446","187466.177225","188215.741059","188982.672388","189749.310312","190515.846209","191282.535146","192049.468021","192815.938064","194358.045753","Mapping"
"Mixed","Both","tile","32","M_cad.wav","None","728.70453645","140","186699.445622","193582.533322","194349.149294","195115.779798","195882.443383","182032.722273","182799.382148","183565.921446","187466.177225","188215.741059","188982.672388","189749.310312","190515.846209","191282.535146","192049.468021","192815.938064","195124.928233","Mapping"
"Mixed","Both","tile","32","F_romp.wav","None","727.58718452","140","186699.445622","193582.533322","194349.149294","195115.779798","195882.443383","196649.194155","182799.382148","183565.921446","187466.177225","188215.741059","188982.672388","189749.310312","190515.846209","191282.535146","192049.468021","192815.938064","195891.414353","Mapping"
"Mixed","Both","tile","32","F_cave.wav","None","732.174387318","140","186699.445622","193582.533322","194349.149294","195115.779798","195882.443383","196649.194155","197415.753549","183565.921446","187466.177225","188215.741059","188982.672388","189749.310312","190515.846209","191282.535146","192049.468021","192815.938064","196652.778091","Mapping"
"Mixed","Both","tile","32","F_jaw.wav","None","725.022592931","140","186699.445622","193582.533322","194349.149294","195115.779798","195882.443383","196649.194155","197415.753549","198182.599238","187466.177225","188215.741059","188982.672388","189749.310312","190515.846209","191282.535146","192049.468021","192815.938064","197424.674433","Mapping"
"Mixed","Both","ball","12","M_romp.wav","None","722.700392827","140","201315.99387","193582.533322","194349.149294","195115.779798","195882.443383","196649.194155","197415.753549","198182.599238","187466.177225","188215.741059","188982.672388","189749.310312","190515.846209","191282.535146","192049.468021","192815.938064","198191.555058","Mapping"
"Mixed","Both","ball","12","F_park.wav","None","721.987748751","140","201315.99387","193582.533322","194349.149294","195115.779798","195882.443383","196649.194155","197415.753549","198182.599238","202082.573051","188215.741059","188982.672388","189749.310312","190515.846209","191282.535146","192049.468021","192815.938064","201325.274322","Mapping"
"Mixed","Both","ball","12","F_ball.wav","None","720.434153453","140","201315.99387","193582.533322","194349.149294","195115.779798","195882.443383","196649.194155","197415.753549","198182.599238","202082.573051","202849.455221","188982.672388","189749.310312","190515.846209","191282.535146","192049.468021","192815.938064","202091.741273","Mapping"
"Mixed","Both","ball","12","M_reek.wav","space","363.625711179","140","201315.99387","193582.533322","194349.149294","195115.779798","195882.443383","196649.194155","197415.753549","198182.599238","202082.573051","202849.455221","203598.807272","189749.310312","190515.846209","191282.535146","192049.468021","192815.938064","202858.816058","Mapping"
"Mixed","Both","ball","12","M_park.wav","None","736.080172355","140","201315.99387","193582.533322","194349.149294","195115.779798","195882.443383","196649.194155","197415.753549","198182.599238","202082.573051","202849.455221","203598.807272","204365.781885","190515.846209","191282.535146","192049.468021","192815.938064","203607.707441","Mapping"
"Mixed","Both","ball","12","F_ball.wav","None","734.376937151","140","201315.99387","193582.533322","194349.149294","195115.779798","195882.443383","196649.194155","197415.753549","198182.599238","202082.573051","202849.455221","203598.807272","204365.781885","205132.52431","191282.535146","192049.468021","192815.938064","204375.084907","Mapping"
"Mixed","Both","ball","12","M_lash.wav","space","288.743962301","140","201315.99387","193582.533322","194349.149294","195115.779798","195882.443383","196649.194155","197415.753549","198182.599238","202082.573051","202849.455221","203598.807272","204365.781885","205132.52431","205898.961889","192049.468021","192815.938064","205141.58834","Mapping"
"Mixed","Both","ball","12","M_ball.wav","None","731.8290408","140","201315.99387","193582.533322","194349.149294","195115.779798","195882.443383","196649.194155","197415.753549","198182.599238","202082.573051","202849.455221","203598.807272","204365.781885","205132.52431","205898.961889","206665.59332","192815.938064","205908.115889","Mapping"
"Mixed","Both","ball","12","F_tile.wav","space","475.701614516","140","201315.99387","193582.533322","194349.149294","195115.779798","195882.443383","196649.194155","197415.753549","198182.599238","202082.573051","202849.455221","203598.807272","204365.781885","205132.52431","205898.961889","206665.59332","207432.626986","206674.65395","Mapping"
"Mixed","Both","ball","12","M_done.wav","None","728.35980833","140","201315.99387","208198.918017","194349.149294","195115.779798","195882.443383","196649.194155","197415.753549","198182.599238","202082.573051","202849.455221","203598.807272","204365.781885","205132.52431","205898.961889","206665.59332","207432.626986","207441.845912","Mapping"
"Mixed","Both","ball","12","F_gnash.wav","None","727.505253628","140","201315.99387","208198.918017","208965.955702","195115.779798","195882.443383","196649.194155","197415.753549","198182.599238","202082.573051","202849.455221","203598.807272","204365.781885","205132.52431","205898.961889","206665.59332","207432.626986","208208.478271","Mapping"
"Mixed","Both","ball","12","F_reek.wav","None","726.402741973","140","201315.99387","208198.918017","208965.955702","209732.187682","195882.443383","196649.194155","197415.753549","198182.599238","202082.573051","202849.455221","203598.807272","204365.781885","205132.52431","205898.961889","206665.59332","207432.626986","208975.377446","Mapping"
"Mixed","Both","ball","12","F_gnash.wav","None","725.770482793","140","201315.99387","208198.918017","208965.955702","209732.187682","210499.398504","196649.194155","197415.753549","198182.599238","202082.573051","202849.455221","203598.807272","204365.781885","205132.52431","205898.961889","206665.59332","207432.626986","209741.232853","Mapping"
"Mixed","Both","ball","12","M_romp.wav","None","724.023963441","140","201315.99387","208198.918017","208965.955702","209732.187682","210499.398504","211265.970264","197415.753549","198182.599238","202082.573051","202849.455221","203598.807272","204365.781885","205132.52431","205898.961889","206665.59332","207432.626986","210508.367309","Mapping"
"Mixed","Both","ball","12","M_ball.wav","None","723.043265985","140","201315.99387","208198.918017","208965.955702","209732.187682","210499.398504","211265.970264","212032.52131","198182.599238","202082.573051","202849.455221","203598.807272","204365.781885","205132.52431","205898.961889","206665.59332","207432.626986","211275.248243","Mapping"
"Mixed","Both","ball","12","F_cave.wav","space","396.441663732","140","201315.99387","208198.918017","208965.955702","209732.187682","210499.398504","211265.970264","212032.52131","212799.188915","202082.573051","202849.455221","203598.807272","204365.781885","205132.52431","205898.961889","206665.59332","207432.626986","212041.875346","Mapping"
"Mixed","Both","cave","21","F_jaw.wav","None","720.438790973","140","215915.94601","208198.918017","208965.955702","209732.187682","210499.398504","211265.970264","212032.52131","212799.188915","202082.573051","202849.455221","203598.807272","204365.781885","205132.52431","205898.961889","206665.59332","207432.626986","212808.53924","Mapping"
"Mixed","Both","cave","21","M_knife.wav","None","721.336011658","140","215915.94601","208198.918017","208965.955702","209732.187682","210499.398504","211265.970264","212032.52131","212799.188915","216682.251263","202849.455221","203598.807272","204365.781885","205132.52431","205898.961889","206665.59332","207432.626986","215925.483385","Mapping"
"Mixed","Both","cave","21","F_knife.wav","None","721.883557388","140","215915.94601","208198.918017","208965.955702","209732.187682","210499.398504","211265.970264","212032.52131","212799.188915","216682.251263","217448.922269","203598.807272","204365.781885","205132.52431","205898.961889","206665.59332","207432.626986","216691.112167","Mapping"
"Mixed","Both","cave","21","M_cave.wav","None","721.457516658","140","215915.94601","208198.918017","208965.955702","209732.187682","210499.398504","211265.970264","212032.52131","212799.188915","216682.251263","217448.922269","218198.721692","204365.781885","205132.52431","205898.961889","206665.59332","207432.626986","217457.830167","Mapping"
"Mixed","Both","cave","21","F_greet.wav","space","334.462949191","140","215915.94601","208198.918017","208965.955702","209732.187682","210499.398504","211265.970264","212032.52131","212799.188915","216682.251263","217448.922269","218198.721692","218965.440311","205132.52431","205898.961889","206665.59332","207432.626986","218207.739656","Mapping"
"Mixed","Both","cave","21","F_cave.wav","None","733.666766318","140","215915.94601","208198.918017","208965.955702","209732.187682","210499.398504","211265.970264","212032.52131","212799.188915","216682.251263","217448.922269","218198.721692","218965.440311","219732.108224","205898.961889","206665.59332","207432.626986","218974.649034","Mapping"
"Mixed","Both","cave","21","M_knife.wav","space","553.110235953","140","215915.94601","208198.918017","208965.955702","209732.187682","210499.398504","211265.970264","212032.52131","212799.188915","216682.251263","217448.922269","218198.721692","218965.440311","219732.108224","220498.991013","206665.59332","207432.626986","219741.038383","Mapping"
"Mixed","Both","cave","21","F_ball.wav","None","731.057035387","140","215915.94601","208198.918017","208965.955702","209732.187682","210499.398504","211265.970264","212032.52131","212799.188915","216682.251263","217448.922269","218198.721692","218965.440311","219732.108224","220498.991013","221265.517944","207432.626986","220508.162636","Mapping"
"Mixed","Both","cave","21","M_jaw.wav","None","729.695745744","140","215915.94601","208198.918017","208965.955702","209732.187682","210499.398504","211265.970264","212032.52131","212799.188915","216682.251263","217448.922269","218198.721692","218965.440311","219732.108224","220498.991013","221265.517944","222032.034054","221275.000595","Mapping"
"Mixed","Both","cave","21","M_cave.wav","None","729.979566764","140","215915.94601","222798.478435","208965.955702","209732.187682","210499.398504","211265.970264","212032.52131","212799.188915","216682.251263","217448.922269","218198.721692","218965.440311","219732.108224","220498.991013","221265.517944","222032.034054","222041.244014","Mapping"
"Mixed","Both","cave","21","M_lash.wav","space","478.64525253","140","215915.94601","222798.478435","223565.324432","209732.187682","210499.398504","211265.970264","212032.52131","212799.188915","216682.251263","217448.922269","218198.721692","218965.440311","219732.108224","220498.991013","221265.517944","222032.034054","222807.476612","Mapping"
"Mixed","Both","cave","21","F_cave.wav","None","728.182961233","140","215915.94601","222798.478435","223565.324432","224332.022954","210499.398504","211265.970264","212032.52131","212799.188915","216682.251263","217448.922269","218198.721692","218965.440311","219732.108224","220498.991013","221265.517944","222032.034054","223574.802755","Mapping"
"Mixed","Both","cave","21","M_knife.wav","space","424.923626473","140","215915.94601","222798.478435","223565.324432","224332.022954","225098.972834","211265.970264","212032.52131","212799.188915","216682.251263","217448.922269","218198.721692","218965.440311","219732.108224","220498.991013","221265.517944","222032.034054","224341.125322","Mapping"
"Mixed","Both","cave","21","F_cad.wav","None","724.500399316","140","215915.94601","222798.478435","223565.324432","224332.022954","225098.972834","225865.611376","212032.52131","212799.188915","216682.251263","217448.922269","218198.721692","218965.440311","219732.108224","220498.991013","221265.517944","222032.034054","225108.104883","Mapping"
"Mixed","Both","cave","21","F_dime.wav","None","722.357828985","140","215915.94601","222798.478435","223565.324432","224332.022954","225098.972834","225865.611376","226632.134597","212799.188915","216682.251263","217448.922269","218198.721692","218965.440311","219732.108224","220498.991013","221265.517944","222032.034054","225875.193272","Mapping"
"Mixed","Both","cave","21","M_lash.wav","None","721.881084028","140","215915.94601","222798.478435","223565.324432","224332.022954","225098.972834","225865.611376","226632.134597","227398.751188","216682.251263","217448.922269","218198.721692","218965.440311","219732.108224","220498.991013","221265.517944","222032.034054","226641.233873","Mapping"
"Mixed","Both","done","42","F_priest.wav","None","726.400887012","140","230532.127269","222798.478435","223565.324432","224332.022954","225098.972834","225865.611376","226632.134597","227398.751188","216682.251263","217448.922269","218198.721692","218965.440311","219732.108224","220498.991013","221265.517944","222032.034054","227402.44117","Mapping"
"Mixed","Both","done","42","F_greet.wav","None","721.630035318","140","230532.127269","222798.478435","223565.324432","224332.022954","225098.972834","225865.611376","226632.134597","227398.751188","231298.700267","217448.922269","218198.721692","218965.440311","219732.108224","220498.991013","221265.517944","222032.034054","230541.552414","Mapping"
"Mixed","Both","done","42","M_lash.wav","None","721.712275408","140","230532.127269","222798.478435","223565.324432","224332.022954","225098.972834","225865.611376","226632.134597","227398.751188","231298.700267","232065.55894","218198.721692","218965.440311","219732.108224","220498.991013","221265.517944","222032.034054","231307.794906","Mapping"
"Mixed","Both","done","42","F_priest.wav","None","720.769606298","140","230532.127269","222798.478435","223565.324432","224332.022954","225098.972834","225865.611376","226632.134597","227398.751188","231298.700267","232065.55894","232815.591172","218965.440311","219732.108224","220498.991013","221265.517944","222032.034054","232074.87402","Mapping"
"Mixed","Both","done","42","M_done.wav","None","736.357500777","140","230532.127269","222798.478435","223565.324432","224332.022954","225098.972834","225865.611376","226632.134597","227398.751188","231298.700267","232065.55894","232815.591172","233582.295259","219732.108224","220498.991013","221265.517944","222032.034054","232824.806079","Mapping"
"Mixed","Both","done","42","M_tile.wav","space","382.529178984","140","230532.127269","222798.478435","223565.324432","224332.022954","225098.972834","225865.611376","226632.134597","227398.751188","231298.700267","232065.55894","232815.591172","233582.295259","234348.72078","220498.991013","221265.517944","222032.034054","233591.365782","Mapping"
"Mixed","Both","done","42","M_done.wav","None","735.447913175","140","230532.127269","222798.478435","223565.324432","224332.022954","225098.972834","225865.611376","226632.134597","227398.751188","231298.700267","232065.55894","232815.591172","233582.295259","234348.72078","235115.302744","221265.517944","222032.034054","234357.722667","Mapping"
"Mixed","Both","done","42","F_dime.wav","space","521.224585595","140","230532.127269","222798.478435","223565.324432","224332.022954","225098.972834","225865.611376","226632.134597","227398.751188","231298.700267","232065.55894","232815.591172","233582.295259","234348.72078","235115.302744","235881.825965","222032.034054","235124.645649","Mapping"
"Mixed","Both","done","42","M_park.wav","None","731.622203952","140","230532.127269","222798.478435","223565.324432","224332.022954","225098.972834","225865.611376","226632.134597","227398.751188","231298.700267","232065.55894","232815.591172","233582.295259","234348.72078","235115.302744","235881.825965","236648.305592","235890.926787","Mapping"
"Mixed","Both","done","42","M_gnash.wav","None","732.855186681","140","230532.127269","237415.03905","223565.324432","224332.022954","225098.972834","225865.611376","226632.134597","227398.751188","231298.700267","232065.55894","232815.591172","233582.295259","234348.72078","235115.302744","235881.825965","236648.305592","236657.211635","Mapping"
"Mixed","Both","done","42","F_romp.wav","None","731.404855149","140","230532.127269","237415.03905","238181.552996","224332.022954","225098.972834","225865.611376","226632.134597","227398.751188","231298.700267","232065.55894","232815.591172","233582.295259","234348.72078","235115.302744","235881.825965","236648.305592","237424.127506","Mapping"
"Mixed","Both","done","42","F_done.wav","None","731.230172329","140","230532.127269","237415.03905","238181.552996","238948.468557","225098.972834","225865.611376","226632.134597","227398.751188","231298.700267","232065.55894","232815.591172","233582.295259","234348.72078","235115.302744","235881.825965","236648.305592","238190.664948","Mapping"
"Mixed","Both","done","42","M_depth.wav","space","352.153221262","140","230532.127269","237415.03905","238181.552996","238948.468557","239715.030115","225865.611376","226632.134597","227398.751188","231298.700267","232065.55894","232815.591172","233582.295259","234348.72078","235115.302744","235881.825965","236648.305592","238957.604007","Mapping"
"Mixed","Both","done","42","F_done.wav","None","727.116004564","140","230532.127269","237415.03905","238181.552996","238948.468557","239715.030115","240481.671131","226632.134597","227398.751188","231298.700267","232065.55894","232815.591172","233582.295259","234348.72078","235115.302744","235881.825965","236648.305592","239724.213796","Mapping"
"Mixed","Both","done","42","F_tile.wav","space","467.27293462","140","230532.127269","237415.03905","238181.552996","238948.468557","239715.030115","240481.671131","241248.420975","227398.751188","231298.700267","232065.55894","232815.591172","233582.295259","234348.72078","235115.302744","235881.825965","236648.305592","240490.526779","Mapping"
"Mixed","Both","done","42","M_knife.wav","None","725.231903023","140","230532.127269","237415.03905","238181.552996","238948.468557","239715.030115","240481.671131","241248.420975","242014.95007","231298.700267","232065.55894","232815.591172","233582.295259","234348.72078","235115.302744","235881.825965","236648.305592","241257.518397","Mapping"
"Mixed","Both","cave","19","F_romp.wav","None","725.09092011","140","245148.516602","237415.03905","238181.552996","238948.468557","239715.030115","240481.671131","241248.420975","242014.95007","231298.700267","232065.55894","232815.591172","233582.295259","234348.72078","235115.302744","235881.825965","236648.305592","242024.147045","Mapping"
"Mixed","Both","cave","19","M_tile.wav","None","720.873488579","140","245148.516602","237415.03905","238181.552996","238948.468557","239715.030115","240481.671131","241248.420975","242014.95007","245915.200593","232065.55894","232815.591172","233582.295259","234348.72078","235115.302744","235881.825965","236648.305592","245158.074383","Mapping"
"Mixed","Both","cave","19","M_jaw.wav","None","720.64500954","140","245148.516602","237415.03905","238181.552996","238948.468557","239715.030115","240481.671131","241248.420975","242014.95007","245915.200593","246682.224983","232815.591172","233582.295259","234348.72078","235115.302744","235881.825965","236648.305592","245924.69592","Mapping"
"Mixed","Both","cave","19","F_cave.wav","None","719.705432188","140","245148.516602","237415.03905","238181.552996","238948.468557","239715.030115","240481.671131","241248.420975","242014.95007","245915.200593","246682.224983","247448.474277","233582.295259","234348.72078","235115.302744","235881.825965","236648.305592","246691.541918","Mapping"
"Mixed","Both","cave","19","M_lash.wav","space","340.030849213","140","245148.516602","237415.03905","238181.552996","238948.468557","239715.030115","240481.671131","241248.420975","242014.95007","245915.200593","246682.224983","247448.474277","248198.111694","234348.72078","235115.302744","235881.825965","236648.305592","247457.622712","Mapping"
"Mixed","Both","cave","19","M_dime.wav","None","734.248630237","140","245148.516602","237415.03905","238181.552996","238948.468557","239715.030115","240481.671131","241248.420975","242014.95007","245915.200593","246682.224983","247448.474277","248198.111694","248964.845152","235115.302744","235881.825965","236648.305592","248208.1422","Mapping"
"Mixed","Both","cave","19","F_ball.wav","None","733.582052868","140","245148.516602","237415.03905","238181.552996","238948.468557","239715.030115","240481.671131","241248.420975","242014.95007","245915.200593","246682.224983","247448.474277","248198.111694","248964.845152","249731.932305","235881.825965","236648.305592","248973.946902","Mapping"
"Mixed","Both","cave","19","M_cave.wav","space","352.704167948","140","245148.516602","237415.03905","238181.552996","238948.468557","239715.030115","240481.671131","241248.420975","242014.95007","245915.200593","246682.224983","247448.474277","248198.111694","248964.845152","249731.932305","250498.290427","236648.305592","249740.946868","Mapping"
"Mixed","Both","cave","19","F_park.wav","space","602.151598083","140","245148.516602","237415.03905","238181.552996","238948.468557","239715.030115","240481.671131","241248.420975","242014.95007","245915.200593","246682.224983","247448.474277","248198.111694","248964.845152","249731.932305","250498.290427","251264.947519","250507.450301","Mapping"
"Mixed","Both","cave","19","M_cave.wav","None","728.087735944","140","245148.516602","252031.709422","238181.552996","238948.468557","239715.030115","240481.671131","241248.420975","242014.95007","245915.200593","246682.224983","247448.474277","248198.111694","248964.845152","249731.932305","250498.290427","251264.947519","251273.946315","Mapping"
"Mixed","Both","cave","19","M_jolt.wav","space","404.680511332","140","245148.516602","252031.709422","252798.301588","238948.468557","239715.030115","240481.671131","241248.420975","242014.95007","245915.200593","246682.224983","247448.474277","248198.111694","248964.845152","249731.932305","250498.290427","251264.947519","252040.852601","Mapping"
"Mixed","Both","cave","19","F_cave.wav","None","725.00868002","140","245148.516602","252031.709422","252798.301588","253564.939821","239715.030115","240481.671131","241248.420975","242014.95007","245915.200593","246682.224983","247448.474277","248198.111694","248964.845152","249731.932305","250498.290427","251264.947519","252807.706018","Mapping"
"Mixed","Both","cave","19","F_depth.wav","space","415.397691075","140","245148.516602","252031.709422","252798.301588","253564.939821","254331.742843","240481.671131","241248.420975","242014.95007","245915.200593","246682.224983","247448.474277","248198.111694","248964.845152","249731.932305","250498.290427","251264.947519","253574.162457","Mapping"
"Mixed","Both","cave","19","M_jaw.wav","None","723.767349613","140","245148.516602","252031.709422","252798.301588","253564.939821","254331.742843","255098.426525","241248.420975","242014.95007","245915.200593","246682.224983","247448.474277","248198.111694","248964.845152","249731.932305","250498.290427","251264.947519","254340.898389","Mapping"
"Mixed","Both","cave","19","F_knife.wav","None","723.932448076","140","245148.516602","252031.709422","252798.301588","253564.939821","254331.742843","255098.426525","255865.00416","242014.95007","245915.200593","246682.224983","247448.474277","248198.111694","248964.845152","249731.932305","250498.290427","251264.947519","255107.508178","Mapping"
"Mixed","Both","cave","19","F_ball.wav","None","728.714430006","140","245148.516602","252031.709422","252798.301588","253564.939821","254331.742843","255098.426525","255865.00416","256631.600036","245915.200593","246682.224983","247448.474277","248198.111694","248964.845152","249731.932305","250498.290427","251264.947519","255868.953229","Mapping"
"Mixed","Both","cave","17","M_park.wav","None","721.836253884","140","259748.360841","252031.709422","252798.301588","253564.939821","254331.742843","255098.426525","255865.00416","256631.600036","245915.200593","246682.224983","247448.474277","248198.111694","248964.845152","249731.932305","250498.290427","251264.947519","256640.906459","Mapping"
"Mixed","Both","cave","17","M_ball.wav","None","720.719211036","140","259748.360841","252031.709422","252798.301588","253564.939821","254331.742843","255098.426525","255865.00416","256631.600036","260514.992891","246682.224983","247448.474277","248198.111694","248964.845152","249731.932305","250498.290427","251264.947519","259757.422398","Mapping"
"Mixed","Both","cave","17","F_ball.wav","None","719.687190955","140","259748.360841","252031.709422","252798.301588","253564.939821","254331.742843","255098.426525","255865.00416","256631.600036","260514.992891","261265.106744","247448.474277","248198.111694","248964.845152","249731.932305","250498.290427","251264.947519","260524.489145","Mapping"
"Mixed","Both","cave","17","M_cave.wav","None","736.308342079","140","259748.360841","252031.709422","252798.301588","253564.939821","254331.742843","255098.426525","255865.00416","256631.600036","260514.992891","261265.106744","262031.595337","248198.111694","248964.845152","249731.932305","250498.290427","251264.947519","261274.268782","Mapping"
"Mixed","Both","cave","17","M_cling.wav","space","260.906625655","140","259748.360841","252031.709422","252798.301588","253564.939821","254331.742843","255098.426525","255865.00416","256631.600036","260514.992891","261265.106744","262031.595337","262797.832263","248964.845152","249731.932305","250498.290427","251264.947519","262040.517148","Mapping"
"Mixed","Both","cave","17","M_gnash.wav","None","735.604663845","140","259748.360841","252031.709422","252798.301588","253564.939821","254331.742843","255098.426525","255865.00416","256631.600036","260514.992891","261265.106744","262031.595337","262797.832263","263564.441125","249731.932305","250498.290427","251264.947519","262806.925665","Mapping"
"Mixed","Both","cave","17","M_romp.wav","None","734.767732094","140","259748.360841","252031.709422","252798.301588","253564.939821","254331.742843","255098.426525","255865.00416","256631.600036","260514.992891","261265.106744","262031.595337","262797.832263","263564.441125","264331.326696","250498.290427","251264.947519","263573.555551","Mapping"
"Mixed","Both","cave","17","M_cad.wav","None","733.658727841","140","259748.360841","252031.709422","252798.301588","253564.939821","254331.742843","255098.426525","255865.00416","256631.600036","260514.992891","261265.106744","262031.595337","262797.832263","263564.441125","264331.326696","265097.785918","251264.947519","264340.337549","Mapping"
"Mixed","Both","cave","17","F_cave.wav","space","281.882172218","140","259748.360841","252031.709422","252798.301588","253564.939821","254331.742843","255098.426525","255865.00416","256631.600036","260514.992891","261265.106744","262031.595337","262797.832263","263564.441125","264331.326696","265097.785918","265864.43559","265107.492411","Mapping"
"Mixed","Both","cave","17","F_priest.wav","space","611.709996709","140","259748.360841","266631.470493","252798.301588","253564.939821","254331.742843","255098.426525","255865.00416","256631.600036","260514.992891","261265.106744","262031.595337","262797.832263","263564.441125","264331.326696","265097.785918","265864.43559","265873.568567","Mapping"
"Mixed","Both","cave","17","M_cave.wav","None","729.996262118","140","259748.360841","266631.470493","267397.770799","253564.939821","254331.742843","255098.426525","255865.00416","256631.600036","260514.992891","261265.106744","262031.595337","262797.832263","263564.441125","264331.326696","265097.785918","265864.43559","266640.552455","Mapping"
"Mixed","Both","cave","17","F_dime.wav","space","500.061370898","140","259748.360841","266631.470493","267397.770799","268164.505495","254331.742843","255098.426525","255865.00416","256631.600036","260514.992891","261265.106744","262031.595337","262797.832263","263564.441125","264331.326696","265097.785918","265864.43559","267401.22581","Mapping"
"Mixed","Both","cave","17","F_lash.wav","None","729.462010902","140","259748.360841","266631.470493","267397.770799","268164.505495","268931.097042","255098.426525","255865.00416","256631.600036","260514.992891","261265.106744","262031.595337","262797.832263","263564.441125","264331.326696","265097.785918","265864.43559","268173.502744","Mapping"
"Mixed","Both","cave","17","F_cad.wav","None","728.715048288","140","259748.360841","266631.470493","267397.770799","268164.505495","268931.097042","269697.921707","255865.00416","256631.600036","260514.992891","261265.106744","262031.595337","262797.832263","263564.441125","264331.326696","265097.785918","265864.43559","268940.108204","Mapping"
"Mixed","Both","cave","17","F_cave.wav","None","727.561832289","140","259748.360841","266631.470493","267397.770799","268164.505495","268931.097042","269697.921707","270464.511709","256631.600036","260514.992891","261265.106744","262031.595337","262797.832263","263564.441125","264331.326696","265097.785918","265864.43559","269706.88742","Mapping"
"Mixed","Both","cave","17","F_done.wav","space","539.513726253","140","259748.360841","266631.470493","267397.770799","268164.505495","268931.097042","269697.921707","270464.511709","271231.2665","260514.992891","261265.106744","262031.595337","262797.832263","263564.441125","264331.326696","265097.785918","265864.43559","270473.725998","Mapping"
"Mixed","Both","tile","36","F_greet.wav","None","722.45058103","140","274364.892703","266631.470493","267397.770799","268164.505495","268931.097042","269697.921707","270464.511709","271231.2665","260514.992891","261265.106744","262031.595337","262797.832263","263564.441125","264331.326696","265097.785918","265864.43559","271240.621463","Mapping"
"Mixed","Both","tile","36","F_tile.wav","None","721.149580204","140","274364.892703","266631.470493","267397.770799","268164.505495","268931.097042","269697.921707","270464.511709","271231.2665","275131.302766","261265.106744","262031.595337","262797.832263","263564.441125","264331.326696","265097.785918","265864.43559","274373.941893","Mapping"
"Mixed","Both","tile","36","M_done.wav","None","721.266447566","140","274364.892703","266631.470493","267397.770799","268164.505495","268931.097042","269697.921707","270464.511709","271231.2665","275131.302766","275898.214927","262031.595337","262797.832263","263564.441125","264331.326696","265097.785918","265864.43559","275140.462022","Mapping"
"Mixed","Both","tile","36","F_romp.wav","None","719.638032373","140","274364.892703","266631.470493","267397.770799","268164.505495","268931.097042","269697.921707","270464.511709","271231.2665","275131.302766","275898.214927","276648.329707","262797.832263","263564.441125","264331.326696","265097.785918","265864.43559","275907.755703","Mapping"
"Mixed","Both","tile","36","F_tile.wav","space","171.672747587","140","274364.892703","266631.470493","267397.770799","268164.505495","268931.097042","269697.921707","270464.511709","271231.2665","275131.302766","275898.214927","276648.329707","277414.250658","263564.441125","264331.326696","265097.785918","265864.43559","276657.433312","Mapping"
"Mixed","Both","tile","36","M_romp.wav","space","578.211698914","140","274364.892703","266631.470493","267397.770799","268164.505495","268931.097042","269697.921707","270464.511709","271231.2665","275131.302766","275898.214927","276648.329707","277414.250658","278181.05028","264331.326696","265097.785918","265864.43559","277418.854247","Mapping"
"Mixed","Both","tile","36","F_dime.wav","None","733.551444719","140","274364.892703","266631.470493","267397.770799","268164.505495","268931.097042","269697.921707","270464.511709","271231.2665","275131.302766","275898.214927","276648.329707","277414.250658","278181.05028","278947.929668","265097.785918","265864.43559","278190.242618","Mapping"
"Mixed","Both","tile","36","M_cling.wav","None","732.049790444","140","274364.892703","266631.470493","267397.770799","268164.505495","268931.097042","269697.921707","270464.511709","271231.2665","275131.302766","275898.214927","276648.329707","277414.250658","278181.05028","278947.929668","279714.455053","265864.43559","278956.913932","Mapping"
"Mixed","Both","tile","36","M_knife.wav","None","730.534532573","140","274364.892703","266631.470493","267397.770799","268164.505495","268931.097042","269697.921707","270464.511709","271231.2665","275131.302766","275898.214927","276648.329707","277414.250658","278181.05028","278947.929668","279714.455053","280480.935298","279723.495586","Mapping"
"Mixed","Both","tile","36","F_gnash.wav","None","729.765618802","140","274364.892703","281247.793354","267397.770799","268164.505495","268931.097042","269697.921707","270464.511709","271231.2665","275131.302766","275898.214927","276648.329707","277414.250658","278181.05028","278947.929668","279714.455053","280480.935298","280489.916471","Mapping"
"Mixed","Both","tile","36","M_bluff.wav","None","728.231810615","140","274364.892703","281247.793354","282014.240208","268164.505495","268931.097042","269697.921707","270464.511709","271231.2665","275131.302766","275898.214927","276648.329707","277414.250658","278181.05028","278947.929668","279714.455053","280480.935298","281257.037014","Mapping"
"Mixed","Both","tile","36","M_jaw.wav","None","728.171831113","140","274364.892703","281247.793354","282014.240208","282780.844432","268931.097042","269697.921707","270464.511709","271231.2665","275131.302766","275898.214927","276648.329707","277414.250658","278181.05028","278947.929668","279714.455053","280480.935298","282023.585587","Mapping"
"Mixed","Both","tile","36","M_tile.wav","None","729.339269106","140","274364.892703","281247.793354","282014.240208","282780.844432","283547.850891","269697.921707","270464.511709","271231.2665","275131.302766","275898.214927","276648.329707","277414.250658","278181.05028","278947.929668","279714.455053","280480.935298","282789.643192","Mapping"
"Mixed","Both","tile","36","F_ball.wav","space","432.064909022","140","274364.892703","281247.793354","282014.240208","282780.844432","283547.850891","284314.431618","270464.511709","271231.2665","275131.302766","275898.214927","276648.329707","277414.250658","278181.05028","278947.929668","279714.455053","280480.935298","283556.923887","Mapping"
"Mixed","Both","tile","36","M_tile.wav","None","726.47447011","140","274364.892703","281247.793354","282014.240208","282780.844432","283547.850891","284314.431618","285080.889603","271231.2665","275131.302766","275898.214927","276648.329707","277414.250658","278181.05028","278947.929668","279714.455053","280480.935298","284323.574178","Mapping"
"Mixed","Both","tile","36","F_park.wav","space","419.070359436","140","274364.892703","281247.793354","282014.240208","282780.844432","283547.850891","284314.431618","285080.889603","285847.51485","275131.302766","275898.214927","276648.329707","277414.250658","278181.05028","278947.929668","279714.455053","280480.935298","285089.922407","Mapping"
"Mixed","Both","ball","2","F_jaw.wav","None","724.153506919","140","288980.92896","281247.793354","282014.240208","282780.844432","283547.850891","284314.431618","285080.889603","285847.51485","275131.302766","275898.214927","276648.329707","277414.250658","278181.05028","278947.929668","279714.455053","280480.935298","285856.608253","Mapping"
"Mixed","Both","ball","2","M_ball.wav","None","722.045254894","140","288980.92896","281247.793354","282014.240208","282780.844432","283547.850891","284314.431618","285080.889603","285847.51485","289747.817624","275898.214927","276648.329707","277414.250658","278181.05028","278947.929668","279714.455053","280480.935298","288989.960528","Mapping"
"Mixed","Both","ball","2","F_cad.wav","space","375.916582649","140","288980.92896","281247.793354","282014.240208","282780.844432","283547.850891","284314.431618","285080.889603","285847.51485","289747.817624","290497.596333","276648.329707","277414.250658","278181.05028","278947.929668","279714.455053","280480.935298","289756.861558","Mapping"
"Mixed","Both","ball","2","F_ball.wav","None","733.988615568","140","288980.92896","281247.793354","282014.240208","282780.844432","283547.850891","284314.431618","285080.889603","285847.51485","289747.817624","290497.596333","291264.158509","277414.250658","278181.05028","278947.929668","279714.455053","280480.935298","290507.09166","Mapping"
"Mixed","Both","ball","2","F_jaw.wav","space","531.648669159","140","288980.92896","281247.793354","282014.240208","282780.844432","283547.850891","284314.431618","285080.889603","285847.51485","289747.817624","290497.596333","291264.158509","292030.643702","278181.05028","278947.929668","279714.455053","280480.935298","291273.202753","Mapping"
"Mixed","Both","ball","2","F_done.wav","None","731.714646798","140","288980.92896","281247.793354","282014.240208","282780.844432","283547.850891","284314.431618","285080.889603","285847.51485","289747.817624","290497.596333","291264.158509","292030.643702","292797.409932","278947.929668","279714.455053","280480.935298","292040.010413","Mapping"
"Mixed","Both","ball","2","F_ball.wav","None","731.350131566","140","288980.92896","281247.793354","282014.240208","282780.844432","283547.850891","284314.431618","285080.889603","285847.51485","289747.817624","290497.596333","291264.158509","292030.643702","292797.409932","293564.131333","279714.455053","280480.935298","292806.606908","Mapping"
"Mixed","Both","ball","2","F_depth.wav","space","359.694264829","140","288980.92896","281247.793354","282014.240208","282780.844432","283547.850891","284314.431618","285080.889603","285847.51485","289747.817624","290497.596333","291264.158509","292030.643702","292797.409932","293564.131333","294330.796773","280480.935298","293573.151461","Mapping"
"Mixed","Both","ball","2","M_jolt.wav","None","726.856299094","140","288980.92896","281247.793354","282014.240208","282780.844432","283547.850891","284314.431618","285080.889603","285847.51485","289747.817624","290497.596333","291264.158509","292030.643702","292797.409932","293564.131333","294330.796773","295097.270835","294340.056511","Mapping"
"Mixed","Both","ball","2","M_ball.wav","None","725.77542963","140","288980.92896","295864.116524","282014.240208","282780.844432","283547.850891","284314.431618","285080.889603","285847.51485","289747.817624","290497.596333","291264.158509","292030.643702","292797.409932","293564.131333","294330.796773","295097.270835","295106.281379","Mapping"
"Mixed","Both","ball","2","F_cave.wav","space","387.536238995","140","288980.92896","295864.116524","296631.028684","282780.844432","283547.850891","284314.431618","285080.889603","285847.51485","289747.817624","290497.596333","291264.158509","292030.643702","292797.409932","293564.131333","294330.796773","295097.270835","295873.278871","Mapping"
"Mixed","Both","ball","2","M_jolt.wav","None","723.483219394","140","288980.92896","295864.116524","296631.028684","297397.991549","283547.850891","284314.431618","285080.889603","285847.51485","289747.817624","290497.596333","291264.158509","292030.643702","292797.409932","293564.131333","294330.796773","295097.270835","296640.505152","Mapping"
"Mixed","Both","ball","2","M_jaw.wav","None","724.32046046","140","288980.92896","295864.116524","296631.028684","297397.991549","298164.076362","284314.431618","285080.889603","285847.51485","289747.817624","290497.596333","291264.158509","292030.643702","292797.409932","293564.131333","294330.796773","295097.270835","297407.146477","Mapping"
"Mixed","Both","ball","2","M_reek.wav","None","724.634580431","140","288980.92896","295864.116524","296631.028684","297397.991549","298164.076362","298931.242045","285080.889603","285847.51485","289747.817624","290497.596333","291264.158509","292030.643702","292797.409932","293564.131333","294330.796773","295097.270835","298173.60879","Mapping"
"Mixed","Both","ball","2","M_dime.wav","None","723.112830077","140","288980.92896","295864.116524","296631.028684","297397.991549","298164.076362","298931.242045","299697.376634","285847.51485","289747.817624","290497.596333","291264.158509","292030.643702","292797.409932","293564.131333","294330.796773","295097.270835","298940.712947","Mapping"
"Mixed","Both","ball","2","M_cad.wav","None","722.582288668","140","288980.92896","295864.116524","296631.028684","297397.991549","298164.076362","298931.242045","299697.376634","300464.292814","289747.817624","290497.596333","291264.158509","292030.643702","292797.409932","293564.131333","294330.796773","295097.270835","299706.477457","Mapping"
"Mixed","Both","ball","5","M_knife.wav","None","721.155454405","140","303597.360341","295864.116524","296631.028684","297397.991549","298164.076362","298931.242045","299697.376634","300464.292814","289747.817624","290497.596333","291264.158509","292030.643702","292797.409932","293564.131333","294330.796773","295097.270835","300473.443104","Mapping"
"Mixed","Both","ball","5","M_ball.wav","None","720.705916639","140","303597.360341","295864.116524","296631.028684","297397.991549","298164.076362","298931.242045","299697.376634","300464.292814","304347.8384","290497.596333","291264.158509","292030.643702","292797.409932","293564.131333","294330.796773","295097.270835","303606.625953","Mapping"
"Mixed","Both","ball","5","F_park.wav","space","365.184562514","140","303597.360341","295864.116524","296631.028684","297397.991549","298164.076362","298931.242045","299697.376634","300464.292814","304347.8384","305113.777902","291264.158509","292030.643702","292797.409932","293564.131333","294330.796773","295097.270835","304351.484789","Mapping"
"Mixed","Both","ball","5","F_ball.wav","None","734.079821734","140","303597.360341","295864.116524","296631.028684","297397.991549","298164.076362","298931.242045","299697.376634","300464.292814","304347.8384","305113.777902","305880.620498","292030.643702","292797.409932","293564.131333","294330.796773","295097.270835","305122.753509","Mapping"
"Mixed","Both","ball","5","M_done.wav","space","378.233217401","140","303597.360341","295864.116524","296631.028684","297397.991549","298164.076362","298931.242045","299697.376634","300464.292814","304347.8384","305113.777902","305880.620498","306647.182675","292797.409932","293564.131333","294330.796773","295097.270835","305890.362855","Mapping"
"Mixed","Both","ball","5","F_depth.wav","None","729.422127479","140","303597.360341","295864.116524","296631.028684","297397.991549","298164.076362","298931.242045","299697.376634","300464.292814","304347.8384","305113.777902","305880.620498","306647.182675","307413.853371","293564.131333","294330.796773","295097.270835","306656.350278","Mapping"
"Mixed","Both","ball","5","M_knife.wav","None","727.779490175","140","303597.360341","295864.116524","296631.028684","297397.991549","298164.076362","298931.242045","299697.376634","300464.292814","304347.8384","305113.777902","305880.620498","306647.182675","307413.853371","308180.423586","294330.796773","295097.270835","307423.421663","Mapping"
"Mixed","Both","ball","5","F_ball.wav","None","732.976382598","140","303597.360341","295864.116524","296631.028684","297397.991549","298164.076362","298931.242045","299697.376634","300464.292814","304347.8384","305113.777902","305880.620498","306647.182675","307413.853371","308180.423586","308947.225681","295097.270835","308184.171383","Mapping"
"Mixed","Both","ball","5","M_tile.wav","space","280.367841944","140","303597.360341","295864.116524","296631.028684","297397.991549","298164.076362","298931.242045","299697.376634","300464.292814","304347.8384","305113.777902","305880.620498","306647.182675","307413.853371","308180.423586","308947.225681","309713.956357","309068.187222","Mapping"
"Mixed","Both","ball","5","F_priest.wav","None","683.786926442","140","303597.360341","310480.741138","296631.028684","297397.991549","298164.076362","298931.242045","299697.376634","300464.292814","304347.8384","305113.777902","305880.620498","306647.182675","307413.853371","308180.423586","308947.225681","309713.956357","309762.843441","Mapping"
"Mixed","Both","ball","5","M_ball.wav","None","722.174489289","140","303597.360341","310480.741138","311247.409051","297397.991549","298164.076362","298931.242045","299697.376634","300464.292814","304347.8384","305113.777902","305880.620498","306647.182675","307413.853371","308180.423586","308947.225681","309713.956357","310490.016643","Mapping"
"Mixed","Both","ball","5","F_dime.wav","space","547.560886247","140","303597.360341","310480.741138","311247.409051","312013.85436","298164.076362","298931.242045","299697.376634","300464.292814","304347.8384","305113.777902","305880.620498","306647.182675","307413.853371","308180.423586","308947.225681","309713.956357","311256.899432","Mapping"
"Mixed","Both","ball","5","F_greet.wav","None","489.603896509","140","303597.360341","310480.741138","311247.409051","312013.85436","312780.281737","298931.242045","299697.376634","300464.292814","304347.8384","305113.777902","305880.620498","306647.182675","307413.853371","308180.423586","308947.225681","309713.956357","312258.379135","Mapping"
"Mixed","Both","ball","5","M_tile.wav","None","726.525174687","140","303597.360341","310480.741138","311247.409051","312013.85436","312780.281737","313547.042403","299697.376634","300464.292814","304347.8384","305113.777902","305880.620498","306647.182675","307413.853371","308180.423586","308947.225681","309713.956357","312789.342985","Mapping"
"Mixed","Both","ball","5","F_priest.wav","None","729.090075474","140","303597.360341","310480.741138","311247.409051","312013.85436","312780.281737","313547.042403","314313.598087","300464.292814","304347.8384","305113.777902","305880.620498","306647.182675","307413.853371","308180.423586","308947.225681","309713.956357","313556.209079","Mapping"
"Mixed","Both","ball","5","M_cave.wav","None","665.978241013","140","303597.360341","310480.741138","311247.409051","312013.85436","312780.281737","313547.042403","314313.598087","315080.239721","304347.8384","305113.777902","305880.620498","306647.182675","307413.853371","308180.423586","308947.225681","309713.956357","314387.440395","Mapping"
"Mixed","Both","cave","14","M_tile.wav","None","725.926924497","140","318230.620947","310480.741138","311247.409051","312013.85436","312780.281737","313547.042403","314313.598087","315080.239721","304347.8384","305113.777902","305880.620498","306647.182675","307413.853371","308180.423586","308947.225681","309713.956357","315095.560489","Mapping"
"Mixed","Both","cave","14","M_jolt.wav","None","678.644139552","140","318230.620947","310480.741138","311247.409051","312013.85436","312780.281737","313547.042403","314313.598087","315080.239721","318997.508992","305113.777902","305880.620498","306647.182675","307413.853371","308180.423586","308947.225681","309713.956357","318282.572865","Mapping"
"Mixed","Both","cave","14","M_cave.wav","None","722.151919617","140","318230.620947","310480.741138","311247.409051","312013.85436","312780.281737","313547.042403","314313.598087","315080.239721","318997.508992","319763.970687","305880.620498","306647.182675","307413.853371","308180.423586","308947.225681","309713.956357","319007.371307","Mapping"
"Mixed","Both","cave","14","F_ball.wav","space","181.984910509","140","318230.620947","310480.741138","311247.409051","312013.85436","312780.281737","313547.042403","314313.598087","315080.239721","318997.508992","319763.970687","320531.497174","306647.182675","307413.853371","308180.423586","308947.225681","309713.956357","319950.360697","Mapping"
"Mixed","Both","cave","14","F_romp.wav","None","624.058065237","140","318230.620947","310480.741138","311247.409051","312013.85436","312780.281737","313547.042403","314313.598087","315080.239721","318997.508992","319763.970687","320531.497174","321297.67072","307413.853371","308180.423586","308947.225681","309713.956357","320637.713627","Mapping"
"Mixed","Both","cave","14","F_jolt.wav","None","653.600801132","140","318230.620947","310480.741138","311247.409051","312013.85436","312780.281737","313547.042403","314313.598087","315080.239721","318997.508992","319763.970687","320531.497174","321297.67072","322064.489819","308180.423586","308947.225681","309713.956357","321376.107342","Mapping"
"Mixed","Both","cave","14","M_cave.wav","None","644.094961928","140","318230.620947","310480.741138","311247.409051","312013.85436","312780.281737","313547.042403","314313.598087","315080.239721","318997.508992","319763.970687","320531.497174","321297.67072","322064.489819","322830.493938","308947.225681","309713.956357","322153.412051","Mapping"
"Mixed","Both","cave","14","F_knife.wav","space","257.771609467","140","318230.620947","310480.741138","311247.409051","312013.85436","312780.281737","313547.042403","314313.598087","315080.239721","318997.508992","319763.970687","320531.497174","321297.67072","322064.489819","322830.493938","323596.992116","309713.956357","322834.492784","Mapping"
"Mixed","Both","cave","14","F_cave.wav","None","731.961057871","140","318230.620947","310480.741138","311247.409051","312013.85436","312780.281737","313547.042403","314313.598087","315080.239721","318997.508992","319763.970687","320531.497174","321297.67072","322064.489819","322830.493938","323596.992116","324363.531104","323600.455783","Mapping"
"Mixed","Both","cave","14","F_knife.wav","space","499.568858068","140","318230.620947","325130.008876","311247.409051","312013.85436","312780.281737","313547.042403","314313.598087","315080.239721","318997.508992","319763.970687","320531.497174","321297.67072","322064.489819","322830.493938","323596.992116","324363.531104","324400.655076","Mapping"
"Mixed","Both","cave","14","F_cad.wav","None","727.721365634","140","318230.620947","325130.008876","325897.103449","312013.85436","312780.281737","313547.042403","314313.598087","315080.239721","318997.508992","319763.970687","320531.497174","321297.67072","322064.489819","322830.493938","323596.992116","324363.531104","325139.165041","Mapping"
"Mixed","Both","cave","14","F_cave.wav","None","693.992115441","140","318230.620947","325130.008876","325897.103449","326663.482904","312780.281737","313547.042403","314313.598087","315080.239721","318997.508992","319763.970687","320531.497174","321297.67072","322064.489819","322830.493938","323596.992116","324363.531104","325943.152633","Mapping"
"Mixed","Both","cave","14","M_jaw.wav","space","515.471799765","140","318230.620947","325130.008876","325897.103449","326663.482904","327430.140615","313547.042403","314313.598087","315080.239721","318997.508992","319763.970687","320531.497174","321297.67072","322064.489819","322830.493938","323596.992116","324363.531104","326672.802003","Mapping"
"Mixed","Both","cave","14","M_depth.wav","None","732.585278456","140","318230.620947","325130.008876","325897.103449","326663.482904","327430.140615","328197.049375","314313.598087","315080.239721","318997.508992","319763.970687","320531.497174","321297.67072","322064.489819","322830.493938","323596.992116","324363.531104","327439.216085","Mapping"
"Mixed","Both","cave","14","M_priest.wav","None","703.381396364","140","318230.620947","325130.008876","325897.103449","326663.482904","327430.140615","328197.049375","328980.883821","315080.239721","318997.508992","319763.970687","320531.497174","321297.67072","322064.489819","322830.493938","323596.992116","324363.531104","328239.274704","Mapping"
"Mixed","Both","cave","14","M_lash.wav","None","721.827287809","140","318230.620947","325130.008876","325897.103449","326663.482904","327430.140615","328197.049375","328980.883821","329747.0787","318997.508992","319763.970687","320531.497174","321297.67072","322064.489819","322830.493938","323596.992116","324363.531104","328990.192099","Mapping"
"Mixed","Both","ball","3","M_knife.wav","None","682.01350898","140","332880.29061","325130.008876","325897.103449","326663.482904","327430.140615","328197.049375","328980.883821","329747.0787","318997.508992","319763.970687","320531.497174","321297.67072","322064.489819","322830.493938","323596.992116","324363.531104","329799.83416","Mapping"
"Mixed","Both","ball","3","F_knife.wav","None","724.34241185","140","332880.29061","325130.008876","325897.103449","326663.482904","327430.140615","328197.049375","328980.883821","329747.0787","333647.259041","319763.970687","320531.497174","321297.67072","322064.489819","322830.493938","323596.992116","324363.531104","332889.372882","Mapping"
"Mixed","Both","ball","3","F_cave.wav","None","669.385020505","140","332880.29061","325130.008876","325897.103449","326663.482904","327430.140615","328197.049375","328980.883821","329747.0787","333647.259041","334414.197481","320531.497174","321297.67072","322064.489819","322830.493938","323596.992116","324363.531104","333709.661941","Mapping"
"Mixed","Both","ball","3","M_ball.wav","None","716.905250447","140","332880.29061","325130.008876","325897.103449","326663.482904","327430.140615","328197.049375","328980.883821","329747.0787","333647.259041","334414.197481","335180.123069","321297.67072","322064.489819","322830.493938","323596.992116","324363.531104","334427.919515","Mapping"
"Mixed","Both","ball","3","F_bluff.wav","space","279.034068808","140","332880.29061","325130.008876","325897.103449","326663.482904","327430.140615","328197.049375","328980.883821","329747.0787","333647.259041","334414.197481","335180.123069","335946.74739","322064.489819","322830.493938","323596.992116","324363.531104","335188.999432","Mapping"
"Mixed","Both","ball","3","M_ball.wav","None","675.285590929","140","332880.29061","325130.008876","325897.103449","326663.482904","327430.140615","328197.049375","328980.883821","329747.0787","333647.259041","334414.197481","335180.123069","335946.74739","336713.225471","322830.493938","323596.992116","324363.531104","336006.26354","Mapping"
"Mixed","Both","ball","3","M_priest.wav","space","313.978369581","140","332880.29061","325130.008876","325897.103449","326663.482904","327430.140615","328197.049375","328980.883821","329747.0787","333647.259041","334414.197481","335180.123069","335946.74739","336713.225471","337480.002523","323596.992116","324363.531104","336722.083592","Mapping"
"Mixed","Both","ball","3","F_ball.wav","None","724.736298434","140","332880.29061","325130.008876","325897.103449","326663.482904","327430.140615","328197.049375","328980.883821","329747.0787","333647.259041","334414.197481","335180.123069","335946.74739","336713.225471","337480.002523","338246.773082","324363.531104","337488.949995","Mapping"
"Mixed","Both","ball","3","M_priest.wav","space","251.68522587","140","332880.29061","325130.008876","325897.103449","326663.482904","327430.140615","328197.049375","328980.883821","329747.0787","333647.259041","334414.197481","335180.123069","335946.74739","336713.225471","337480.002523","338246.773082","339013.640722","338256.292216","Mapping"
"Mixed","Both","ball","3","F_dime.wav","None","721.045698039","140","332880.29061","339780.441271","325897.103449","326663.482904","327430.140615","328197.049375","328980.883821","329747.0787","333647.259041","334414.197481","335180.123069","335946.74739","336713.225471","337480.002523","338246.773082","339013.640722","339022.878198","Mapping"
"Mixed","Both","ball","3","M_reek.wav","None","670.451977174","140","332880.29061","339780.441271","340546.581116","326663.482904","327430.140615","328197.049375","328980.883821","329747.0787","333647.259041","334414.197481","335180.123069","335946.74739","336713.225471","337480.002523","338246.773082","339013.640722","339840.992842","Mapping"
"Mixed","Both","ball","3","M_knife.wav","None","725.869727437","140","332880.29061","339780.441271","340546.581116","341313.2042","327430.140615","328197.049375","328980.883821","329747.0787","333647.259041","334414.197481","335180.123069","335946.74739","336713.225471","337480.002523","338246.773082","339013.640722","340555.847346","Mapping"
"Mixed","Both","ball","3","F_ball.wav","None","725.703392178","140","332880.29061","339780.441271","340546.581116","341313.2042","342079.758956","328197.049375","328980.883821","329747.0787","333647.259041","334414.197481","335180.123069","335946.74739","336713.225471","337480.002523","338246.773082","339013.640722","341322.095094","Mapping"
"Mixed","Both","ball","3","F_knife.wav","space","250.511295162","140","332880.29061","339780.441271","340546.581116","341313.2042","342079.758956","342847.39149","328980.883821","329747.0787","333647.259041","334414.197481","335180.123069","335946.74739","336713.225471","337480.002523","338246.773082","339013.640722","342121.425301","Mapping"
"Mixed","Both","ball","3","F_cad.wav","None","723.074801615","140","332880.29061","339780.441271","340546.581116","341313.2042","342079.758956","342847.39149","343613.484342","329747.0787","333647.259041","334414.197481","335180.123069","335946.74739","336713.225471","337480.002523","338246.773082","339013.640722","342856.827147","Mapping"
"Mixed","Both","ball","3","M_jolt.wav","None","707.788660307","140","332880.29061","339780.441271","340546.581116","341313.2042","342079.758956","342847.39149","343613.484342","344380.310861","333647.259041","334414.197481","335180.123069","335946.74739","336713.225471","337480.002523","338246.773082","339013.640722","343637.669106","Mapping"
"Mixed","Both","done","40","M_greet.wav","None","678.204495227","140","347513.370659","339780.441271","340546.581116","341313.2042","342079.758956","342847.39149","343613.484342","344380.310861","333647.259041","334414.197481","335180.123069","335946.74739","336713.225471","337480.002523","338246.773082","339013.640722","344433.99415","Mapping"
"Mixed","Both","done","40","F_done.wav","None","718.985367799","140","347513.370659","339780.441271","340546.581116","341313.2042","342079.758956","342847.39149","343613.484342","344380.310861","348279.540185","334414.197481","335180.123069","335946.74739","336713.225471","337480.002523","338246.773082","339013.640722","347529.519703","Mapping"
"Mixed","Both","done","40","F_reek.wav","space","459.347588825","140","347513.370659","339780.441271","340546.581116","341313.2042","342079.758956","342847.39149","343613.484342","344380.310861","348279.540185","349046.697829","335180.123069","335946.74739","336713.225471","337480.002523","338246.773082","339013.640722","348288.472817","Mapping"
"Mixed","Both","done","40","M_done.wav","None","729.067815002","140","347513.370659","339780.441271","340546.581116","341313.2042","342079.758956","342847.39149","343613.484342","344380.310861","348279.540185","349046.697829","349813.179621","335946.74739","336713.225471","337480.002523","338246.773082","339013.640722","349055.58223","Mapping"
"Mixed","Both","done","40","M_gnash.wav","space","358.831980731","140","347513.370659","339780.441271","340546.581116","341313.2042","342079.758956","342847.39149","343613.484342","344380.310861","348279.540185","349046.697829","349813.179621","350579.52383","336713.225471","337480.002523","338246.773082","339013.640722","349820.980679","Mapping"
"Mixed","Both","done","40","F_jolt.wav","None","735.101948376","140","347513.370659","339780.441271","340546.581116","341313.2042","342079.758956","342847.39149","343613.484342","344380.310861","348279.540185","349046.697829","349813.179621","350579.52383","351346.291916","337480.002523","338246.773082","339013.640722","350588.663917","Mapping"
"Mixed","Both","done","40","F_gnash.wav","None","736.071824678","140","347513.370659","339780.441271","340546.581116","341313.2042","342079.758956","342847.39149","343613.484342","344380.310861","348279.540185","349046.697829","349813.179621","350579.52383","351346.291916","352129.601695","338246.773082","339013.640722","351354.728634","Mapping"
"Mixed","Both","done","40","M_cave.wav","None","718.153691851","140","347513.370659","339780.441271","340546.581116","341313.2042","342079.758956","342847.39149","343613.484342","344380.310861","348279.540185","349046.697829","349813.179621","350579.52383","351346.291916","352129.601695","352896.641544","339013.640722","352143.043","Mapping"
"Mixed","Both","done","40","M_romp.wav","None","722.869510646","140","347513.370659","339780.441271","340546.581116","341313.2042","342079.758956","342847.39149","343613.484342","344380.310861","348279.540185","349046.697829","349813.179621","350579.52383","351346.291916","352129.601695","352896.641544","353663.008323","352905.401967","Mapping"
"Mixed","Both","done","40","M_bluff.wav","None","729.017419741","140","347513.370659","354429.688295","340546.581116","341313.2042","342079.758956","342847.39149","343613.484342","344380.310861","348279.540185","349046.697829","349813.179621","350579.52383","351346.291916","352129.601695","352896.641544","353663.008323","353670.996122","Mapping"
"Mixed","Both","done","40","F_knife.wav","None","731.282113469","140","347513.370659","354429.688295","355196.674038","341313.2042","342079.758956","342847.39149","343613.484342","344380.310861","348279.540185","349046.697829","349813.179621","350579.52383","351346.291916","352129.601695","352896.641544","353663.008323","354438.534358","Mapping"
"Mixed","Both","done","40","F_knife.wav","None","735.46337185","140","347513.370659","354429.688295","355196.674038","355962.873555","342079.758956","342847.39149","343613.484342","344380.310861","348279.540185","349046.697829","349813.179621","350579.52383","351346.291916","352129.601695","352896.641544","353663.008323","355200.21469","Mapping"
"Mixed","Both","done","40","M_done.wav","None","727.020470076","140","347513.370659","354429.688295","355196.674038","355962.873555","356729.658954","342847.39149","343613.484342","344380.310861","348279.540185","349046.697829","349813.179621","350579.52383","351346.291916","352129.601695","352896.641544","353663.008323","355976.245914","Mapping"
"Mixed","Both","done","40","F_tile.wav","space","481.231795507","140","347513.370659","354429.688295","355196.674038","355962.873555","356729.658954","357496.208145","343613.484342","344380.310861","348279.540185","349046.697829","349813.179621","350579.52383","351346.291916","352129.601695","352896.641544","353663.008323","356738.456168","Mapping"
"Mixed","Both","done","40","F_done.wav","None","737.254102947","140","347513.370659","354429.688295","355196.674038","355962.873555","356729.658954","357496.208145","358262.878841","344380.310861","348279.540185","349046.697829","349813.179621","350579.52383","351346.291916","352129.601695","352896.641544","353663.008323","357499.270506","Mapping"
"Mixed","Both","done","40","M_romp.wav","space","339.940261561","140","347513.370659","354429.688295","355196.674038","355962.873555","356729.658954","357496.208145","358262.878841","359029.326005","348279.540185","349046.697829","349813.179621","350579.52383","351346.291916","352129.601695","352896.641544","353663.008323","358271.680384","Mapping"
"Mixed","Both","done","43","F_greet.wav","None","729.406050406","140","362163.237575","354429.688295","355196.674038","355962.873555","356729.658954","357496.208145","358262.878841","359029.326005","348279.540185","349046.697829","349813.179621","350579.52383","351346.291916","352129.601695","352896.641544","353663.008323","359038.091684","Mapping"
"Mixed","Both","done","43","F_jaw.wav","None","710.034185206","140","362163.237575","354429.688295","355196.674038","355962.873555","356729.658954","357496.208145","358262.878841","359029.326005","362929.489342","349046.697829","349813.179621","350579.52383","351346.291916","352129.601695","352896.641544","353663.008323","362184.31484","Mapping"
"Mixed","Both","done","43","F_done.wav","None","724.498853437","140","362163.237575","354429.688295","355196.674038","355962.873555","356729.658954","357496.208145","358262.878841","359029.326005","362929.489342","363696.608957","349813.179621","350579.52383","351346.291916","352129.601695","352896.641544","353663.008323","362938.526165","Mapping"
"Mixed","Both","done","43","M_dime.wav","space","431.851579575","140","362163.237575","354429.688295","355196.674038","355962.873555","356729.658954","357496.208145","358262.878841","359029.326005","362929.489342","363696.608957","364462.759006","350579.52383","351346.291916","352129.601695","352896.641544","353663.008323","363707.690652","Mapping"
"Mixed","Both","done","43","F_gnash.wav","None","727.623048588","140","362163.237575","354429.688295","355196.674038","355962.873555","356729.658954","357496.208145","358262.878841","359029.326005","362929.489342","363696.608957","364462.759006","365229.341897","351346.291916","352129.601695","352896.641544","353663.008323","364471.513864","Mapping"
"Mixed","Both","done","43","M_lash.wav","None","726.774677285","140","362163.237575","354429.688295","355196.674038","355962.873555","356729.658954","357496.208145","358262.878841","359029.326005","362929.489342","363696.608957","364462.759006","365229.341897","365996.427194","352129.601695","352896.641544","353663.008323","365238.407164","Mapping"
"Mixed","Both","done","43","F_romp.wav","None","725.72812601","140","362163.237575","354429.688295","355196.674038","355962.873555","356729.658954","357496.208145","358262.878841","359029.326005","362929.489342","363696.608957","364462.759006","365229.341897","365996.427194","366762.668449","352896.641544","353663.008323","366006.627437","Mapping"
"Mixed","Both","done","43","M_gnash.wav","None","727.984781261","140","362163.237575","354429.688295","355196.674038","355962.873555","356729.658954","357496.208145","358262.878841","359029.326005","362929.489342","363696.608957","364462.759006","365229.341897","365996.427194","366762.668449","367529.429115","353663.008323","366771.142887","Mapping"
"Mixed","Both","done","43","M_romp.wav","None","726.494566537","140","362163.237575","354429.688295","355196.674038","355962.873555","356729.658954","357496.208145","358262.878841","359029.326005","362929.489342","363696.608957","364462.759006","365229.341897","365996.427194","366762.668449","367529.429115","368296.170303","367538.103278","Mapping"
"Mixed","Both","done","43","M_done.wav","None","724.811427528","140","362163.237575","369062.670335","355196.674038","355962.873555","356729.658954","357496.208145","358262.878841","359029.326005","362929.489342","363696.608957","364462.759006","365229.341897","365996.427194","366762.668449","367529.429115","368296.170303","368305.335742","Mapping"
"Mixed","Both","done","43","M_cling.wav","space","363.968584337","140","362163.237575","369062.670335","369829.215198","355962.873555","356729.658954","357496.208145","358262.878841","359029.326005","362929.489342","363696.608957","364462.759006","365229.341897","365996.427194","366762.668449","367529.429115","368296.170303","369071.451163","Mapping"
"Mixed","Both","done","43","M_park.wav","None","724.42959866","140","362163.237575","369062.670335","369829.215198","370595.964733","356729.658954","357496.208145","358262.878841","359029.326005","362929.489342","363696.608957","364462.759006","365229.341897","365996.427194","366762.668449","367529.429115","368296.170303","369840.318535","Mapping"
"Mixed","Both","done","43","M_done.wav","None","729.288255447","140","362163.237575","369062.670335","369829.215198","370595.964733","371362.485171","357496.208145","358262.878841","359029.326005","362929.489342","363696.608957","364462.759006","365229.341897","365996.427194","366762.668449","367529.429115","368296.170303","370604.732576","Mapping"
"Mixed","Both","done","43","F_jaw.wav","space","376.079826034","140","362163.237575","369062.670335","369829.215198","370595.964733","371362.485171","372129.225741","358262.878841","359029.326005","362929.489342","363696.608957","364462.759006","365229.341897","365996.427194","366762.668449","367529.429115","368296.170303","371371.32938","Mapping"
"Mixed","Both","done","43","F_done.wav","None","727.193297935","140","362163.237575","369062.670335","369829.215198","370595.964733","371362.485171","372129.225741","372895.791936","359029.326005","362929.489342","363696.608957","364462.759006","365229.341897","365996.427194","366762.668449","367529.429115","368296.170303","372138.529381","Mapping"
"Mixed","Both","done","43","F_cad.wav","space","466.874101316","140","362163.237575","369062.670335","369829.215198","370595.964733","371362.485171","372129.225741","372895.791936","373662.516738","362929.489342","363696.608957","364462.759006","365229.341897","365996.427194","366762.668449","367529.429115","368296.170303","372904.580184","Mapping"
