"Condition","Talker","Target","Trial","current_stimulus","response_response","response_time_response","subject_nr","time_Audio1","time_Audio10","time_Audio11","time_Audio12","time_Audio13","time_Audio14","time_Audio15","time_Audio16","time_Audio2","time_Audio3","time_Audio4","time_Audio5","time_Audio6","time_Audio7","time_Audio8","time_Audio9","time_response"
"Mixed","both","ball","3","F_cad.wav","NA","NA","340","161367.988345","NA","NA","NA","NA","NA","NA","NA","NA","NA","NA","NA","NA","NA","NA","NA","NA"
"Mixed","both","ball","3","F_cad.wav","None","718.901261222","340","161367.988345","NA","NA","NA","NA","NA","NA","NA","162133.905008","NA","NA","NA","NA","NA","NA","NA","161382.410792"
"Mixed","both","ball","3","F_priest.wav","None","727.837186307","340","161367.988345","NA","NA","NA","NA","NA","NA","NA","162133.905008","162900.918604","NA","NA","NA","NA","NA","NA","162143.062299"
"Mixed","both","ball","3","M_lash.wav","None","727.007066365","340","161367.988345","NA","NA","NA","NA","NA","NA","NA","162133.905008","162900.918604","163667.479576","NA","NA","NA","NA","NA","162910.497293"
"Mixed","both","ball","3","M_jolt.wav","None","727.169998456","340","161367.988345","NA","NA","NA","NA","NA","NA","NA","162133.905008","162900.918604","163667.479576","164433.756421","NA","NA","NA","NA","163677.352594"
"Mixed","both","ball","3","M_ball.wav","None","729.489387944","340","161367.988345","NA","NA","NA","NA","NA","NA","NA","162133.905008","162900.918604","163667.479576","164433.756421","165200.407362","NA","NA","NA","164442.684308"
"Mixed","both","ball","3","F_gnash.wav","space","474.013378378","340","161367.988345","NA","NA","NA","NA","NA","NA","NA","162133.905008","162900.918604","163667.479576","164433.756421","165200.407362","165967.846375","NA","NA","165209.754791"
"Mixed","both","ball","3","F_gnash.wav","None","728.727594484","340","161367.988345","NA","NA","NA","NA","NA","NA","NA","162133.905008","162900.918604","163667.479576","164433.756421","165200.407362","165967.846375","166734.205768","NA","165977.239253"
"Mixed","both","ball","3","M_gnash.wav","None","729.494334664","340","161367.988345","NA","NA","NA","NA","NA","NA","NA","162133.905008","162900.918604","163667.479576","164433.756421","165200.407362","165967.846375","166734.205768","167500.837849","166743.310191"
"Mixed","both","ball","3","F_ball.wav","None","729.801958427","340","161367.988345","168267.673982","NA","NA","NA","NA","NA","NA","162133.905008","162900.918604","163667.479576","164433.756421","165200.407362","165967.846375","166734.205768","167500.837849","167510.131483"
"Mixed","both","ball","3","M_jolt.wav","space","462.28936268","340","161367.988345","168267.673982","169034.316884","NA","NA","NA","NA","NA","162133.905008","162900.918604","163667.479576","164433.756421","165200.407362","165967.846375","166734.205768","167500.837849","168277.371701"
"Mixed","both","ball","3","F_ball.wav","None","729.550294578","340","161367.988345","168267.673982","169034.316884","169800.644742","NA","NA","NA","NA","162133.905008","162900.918604","163667.479576","164433.756421","165200.407362","165967.846375","166734.205768","167500.837849","169043.820135"
"Mixed","both","ball","3","M_romp.wav","space","442.064423114","340","161367.988345","168267.673982","169034.316884","169800.644742","170567.730065","NA","NA","NA","162133.905008","162900.918604","163667.479576","164433.756421","165200.407362","165967.846375","166734.205768","167500.837849","169809.589015"
"Mixed","both","ball","3","M_ball.wav","None","730.175125878","340","161367.988345","168267.673982","169034.316884","169800.644742","170567.730065","171334.398319","NA","NA","162133.905008","162900.918604","163667.479576","164433.756421","165200.407362","165967.846375","166734.205768","167500.837849","170576.994637"
"Mixed","both","ball","3","M_romp.wav","space","491.494438611","340","161367.988345","168267.673982","169034.316884","169800.644742","170567.730065","171334.398319","172101.094398","NA","162133.905008","162900.918604","163667.479576","164433.756421","165200.407362","165967.846375","166734.205768","167500.837849","171344.04286"
"Mixed","both","ball","3","F_knife.wav","None","729.977257084","340","161367.988345","168267.673982","169034.316884","169800.644742","170567.730065","171334.398319","172101.094398","172867.261797","162133.905008","162900.918604","163667.479576","164433.756421","165200.407362","165967.846375","166734.205768","167500.837849","172110.789644"
"Mixed","both","ball","5","M_priest.wav","None","731.316888705","340","176017.940486","168267.673982","169034.316884","169800.644742","170567.730065","171334.398319","172101.094398","172867.261797","162133.905008","162900.918604","163667.479576","164433.756421","165200.407362","165967.846375","166734.205768","167500.837849","172876.331902"
"Mixed","both","ball","5","M_reek.wav","None","722.56832011","340","176017.940486","168267.673982","169034.316884","169800.644742","170567.730065","171334.398319","172101.094398","172867.261797","176784.465594","162900.918604","163667.479576","164433.756421","165200.407362","165967.846375","166734.205768","167500.837849","176028.055893"
"Mixed","both","ball","5","F_ball.wav","None","724.00286654","340","176017.940486","168267.673982","169034.316884","169800.644742","170567.730065","171334.398319","172101.094398","172867.261797","176784.465594","177550.711832","163667.479576","164433.756421","165200.407362","165967.846375","166734.205768","167500.837849","176793.812097"
"Mixed","both","ball","5","F_cad.wav","space","499.150711577","340","176017.940486","168267.673982","169034.316884","169800.644742","170567.730065","171334.398319","172101.094398","172867.261797","176784.465594","177550.711832","178318.358916","164433.756421","165200.407362","165967.846375","166734.205768","167500.837849","177560.239198"
"Mixed","both","ball","5","M_depth.wav","None","723.484389484","340","176017.940486","168267.673982","169034.316884","169800.644742","170567.730065","171334.398319","172101.094398","172867.261797","176784.465594","177550.711832","178318.358916","179083.706707","165200.407362","165967.846375","166734.205768","167500.837849","178328.047978"
"Mixed","both","ball","5","F_priest.wav","None","725.973512512","340","176017.940486","168267.673982","169034.316884","169800.644742","170567.730065","171334.398319","172101.094398","172867.261797","176784.465594","177550.711832","178318.358916","179083.706707","179850.827275","165967.846375","166734.205768","167500.837849","179092.583581"
"Mixed","both","ball","5","M_ball.wav","None","725.119587034","340","176017.940486","168267.673982","169034.316884","169800.644742","170567.730065","171334.398319","172101.094398","172867.261797","176784.465594","177550.711832","178318.358916","179083.706707","179850.827275","180617.065165","166734.205768","167500.837849","179859.877284"
"Mixed","both","ball","5","M_depth.wav","space","433.433339","340","176017.940486","168267.673982","169034.316884","169800.644742","170567.730065","171334.398319","172101.094398","172867.261797","176784.465594","177550.711832","178318.358916","179083.706707","179850.827275","180617.065165","181383.633557","167500.837849","180625.870003"
"Mixed","both","ball","5","M_ball.wav","None","727.121150121","340","176017.940486","168267.673982","169034.316884","169800.644742","170567.730065","171334.398319","172101.094398","172867.261797","176784.465594","177550.711832","178318.358916","179083.706707","179850.827275","180617.065165","181383.633557","182150.238122","181392.42541"
"Mixed","both","ball","5","F_cling.wav","space","435.791993048","340","176017.940486","182917.412177","169034.316884","169800.644742","170567.730065","171334.398319","172101.094398","172867.261797","176784.465594","177550.711832","178318.358916","179083.706707","179850.827275","180617.065165","181383.633557","182150.238122","182159.447044"
"Mixed","both","ball","5","F_priest.wav","None","726.750455797","340","176017.940486","182917.412177","183683.718394","169800.644742","170567.730065","171334.398319","172101.094398","172867.261797","176784.465594","177550.711832","178318.358916","179083.706707","179850.827275","180617.065165","181383.633557","182150.238122","182926.750022"
"Mixed","both","ball","5","F_ball.wav","None","727.236161008","340","176017.940486","182917.412177","183683.718394","184450.638311","170567.730065","171334.398319","172101.094398","172867.261797","176784.465594","177550.711832","178318.358916","179083.706707","179850.827275","180617.065165","181383.633557","182150.238122","183692.688636"
"Mixed","both","ball","5","M_greet.wav","space","471.109040082","340","176017.940486","182917.412177","183683.718394","184450.638311","185216.851158","171334.398319","172101.094398","172867.261797","176784.465594","177550.711832","178318.358916","179083.706707","179850.827275","180617.065165","181383.633557","182150.238122","184460.094569"
"Mixed","both","ball","5","F_cad.wav","None","728.140481282","340","176017.940486","182917.412177","183683.718394","184450.638311","185216.851158","185983.853315","172101.094398","172867.261797","176784.465594","177550.711832","178318.358916","179083.706707","179850.827275","180617.065165","181383.633557","182150.238122","185225.938268"
"Mixed","both","ball","5","F_dime.wav","None","727.826674934","340","176017.940486","182917.412177","183683.718394","184450.638311","185216.851158","185983.853315","186750.129233","172867.261797","176784.465594","177550.711832","178318.358916","179083.706707","179850.827275","180617.065165","181383.633557","182150.238122","185993.361822"
"Mixed","both","ball","5","M_park.wav","None","729.285336565","340","176017.940486","182917.412177","183683.718394","184450.638311","185216.851158","185983.853315","186750.129233","187517.25042","176784.465594","177550.711832","178318.358916","179083.706707","179850.827275","180617.065165","181383.633557","182150.238122","186759.15729"
"Mixed","both","tile","35","F_dime.wav","None","721.058027353","340","190650.69693","182917.412177","183683.718394","184450.638311","185216.851158","185983.853315","186750.129233","187517.25042","176784.465594","177550.711832","178318.358916","179083.706707","179850.827275","180617.065165","181383.633557","182150.238122","187534.439315"
"Mixed","both","tile","35","M_tile.wav","None","723.131318111","340","190650.69693","182917.412177","183683.718394","184450.638311","185216.851158","185983.853315","186750.129233","187517.25042","191417.626432","177550.711832","178318.358916","179083.706707","179850.827275","180617.065165","181383.633557","182150.238122","190660.684959"
"Mixed","both","tile","35","F_dime.wav","space","479.769495782","340","190650.69693","182917.412177","183683.718394","184450.638311","185216.851158","185983.853315","186750.129233","187517.25042","191417.626432","192183.811144","178318.358916","179083.706707","179850.827275","180617.065165","181383.633557","182150.238122","191427.192753"
"Mixed","both","tile","35","F_priest.wav","None","724.853391759","340","190650.69693","182917.412177","183683.718394","184450.638311","185216.851158","185983.853315","186750.129233","187517.25042","191417.626432","192183.811144","192950.439206","179083.706707","179850.827275","180617.065165","181383.633557","182150.238122","192193.317178"
"Mixed","both","tile","35","M_dime.wav","None","725.024053361","340","190650.69693","182917.412177","183683.718394","184450.638311","185216.851158","185983.853315","186750.129233","187517.25042","191417.626432","192183.811144","192950.439206","193716.538588","179850.827275","180617.065165","181383.633557","182150.238122","192959.970592"
"Mixed","both","tile","35","M_dime.wav","None","730.38845323","340","190650.69693","182917.412177","183683.718394","184450.638311","185216.851158","185983.853315","186750.129233","187517.25042","191417.626432","192183.811144","192950.439206","193716.538588","194483.309795","180617.065165","181383.633557","182150.238122","193726.474058"
"Mixed","both","tile","35","F_tile.wav","None","731.383051258","340","190650.69693","182917.412177","183683.718394","184450.638311","185216.851158","185983.853315","186750.129233","187517.25042","191417.626432","192183.811144","192950.439206","193716.538588","194483.309795","195249.909413","181383.633557","182150.238122","194492.566638"
"Mixed","both","tile","35","F_park.wav","space","519.86475708","340","190650.69693","182917.412177","183683.718394","184450.638311","185216.851158","185983.853315","186750.129233","187517.25042","191417.626432","192183.811144","192950.439206","193716.538588","194483.309795","195249.909413","196017.090579","182150.238122","195258.981991"
"Mixed","both","tile","35","M_tile.wav","None","731.54041823","340","190650.69693","182917.412177","183683.718394","184450.638311","185216.851158","185983.853315","186750.129233","187517.25042","191417.626432","192183.811144","192950.439206","193716.538588","194483.309795","195249.909413","196017.090579","196783.44348","196026.737285"
"Mixed","both","tile","35","F_park.wav","space","601.854027249","340","190650.69693","197549.785869","183683.718394","184450.638311","185216.851158","185983.853315","186750.129233","187517.25042","191417.626432","192183.811144","192950.439206","193716.538588","194483.309795","195249.909413","196017.090579","196783.44348","196792.941475"
"Mixed","both","tile","35","F_tile.wav","None","734.057367314","340","190650.69693","197549.785869","198316.836256","184450.638311","185216.851158","185983.853315","186750.129233","187517.25042","191417.626432","192183.811144","192950.439206","193716.538588","194483.309795","195249.909413","196017.090579","196783.44348","197559.002211"
"Mixed","both","tile","35","M_greet.wav","space","516.306525562","340","190650.69693","197549.785869","198316.836256","199083.256556","185216.851158","185983.853315","186750.129233","187517.25042","191417.626432","192183.811144","192950.439206","193716.538588","194483.309795","195249.909413","196017.090579","196783.44348","198326.465649"
"Mixed","both","tile","35","M_bluff.wav","None","734.57089765","340","190650.69693","197549.785869","198316.836256","199083.256556","199849.826185","185983.853315","186750.129233","187517.25042","191417.626432","192183.811144","192950.439206","193716.538588","194483.309795","195249.909413","196017.090579","196783.44348","199092.979936"
"Mixed","both","tile","35","M_knife.wav","None","736.241340172","340","190650.69693","197549.785869","198316.836256","199083.256556","199849.826185","200616.658298","186750.129233","187517.25042","191417.626432","192183.811144","192950.439206","193716.538588","194483.309795","195249.909413","196017.090579","196783.44348","199858.853624"
"Mixed","both","tile","35","M_depth.wav","None","734.958596062","340","190650.69693","197549.785869","198316.836256","199083.256556","199849.826185","200616.658298","201400.631386","187517.25042","191417.626432","192183.811144","192950.439206","193716.538588","194483.309795","195249.909413","196017.090579","196783.44348","200626.605826"
"Mixed","both","tile","35","F_priest.wav","None","718.451729044","340","190650.69693","197549.785869","198316.836256","199083.256556","199849.826185","200616.658298","201400.631386","202167.239351","191417.626432","192183.811144","192950.439206","193716.538588","194483.309795","195249.909413","196017.090579","196783.44348","201410.722677"
"Mixed","both","cave","18","M_gnash.wav","None","719.015035778","340","205283.725133","197549.785869","198316.836256","199083.256556","199849.826185","200616.658298","201400.631386","202167.239351","191417.626432","192183.811144","192950.439206","193716.538588","194483.309795","195249.909413","196017.090579","196783.44348","202177.446272"
"Mixed","both","cave","18","M_knife.wav","None","723.344026599","340","205283.725133","197549.785869","198316.836256","199083.256556","199849.826185","200616.658298","201400.631386","202167.239351","206050.595893","192183.811144","192950.439206","193716.538588","194483.309795","195249.909413","196017.090579","196783.44348","205293.499526"
"Mixed","both","cave","18","F_cad.wav","None","722.872851882","340","205283.725133","197549.785869","198316.836256","199083.256556","199849.826185","200616.658298","201400.631386","202167.239351","206050.595893","206816.651064","192950.439206","193716.538588","194483.309795","195249.909413","196017.090579","196783.44348","206060.929883"
"Mixed","both","cave","18","M_cave.wav","None","724.250511266","340","205283.725133","197549.785869","198316.836256","199083.256556","199849.826185","200616.658298","201400.631386","202167.239351","206050.595893","206816.651064","207583.222238","193716.538588","194483.309795","195249.909413","196017.090579","196783.44348","206826.538613"
"Mixed","both","cave","18","F_romp.wav","space","577.564127743","340","205283.725133","197549.785869","198316.836256","199083.256556","199849.826185","200616.658298","201400.631386","202167.239351","206050.595893","206816.651064","207583.222238","208349.93223","194483.309795","195249.909413","196017.090579","196783.44348","207592.911919"
"Mixed","both","cave","18","F_gnash.wav","None","724.295031745","340","205283.725133","197549.785869","198316.836256","199083.256556","199849.826185","200616.658298","201400.631386","202167.239351","206050.595893","206816.651064","207583.222238","208349.93223","209116.540195","195249.909413","196017.090579","196783.44348","208359.744342"
"Mixed","both","cave","18","F_cave.wav","None","723.433685489","340","205283.725133","197549.785869","198316.836256","199083.256556","199849.826185","200616.658298","201400.631386","202167.239351","206050.595893","206816.651064","207583.222238","208349.93223","209116.540195","209883.205976","196017.090579","196783.44348","209127.667823"
"Mixed","both","cave","18","M_bluff.wav","space","493.610703852","340","205283.725133","197549.785869","198316.836256","199083.256556","199849.826185","200616.658298","201400.631386","202167.239351","206050.595893","206816.651064","207583.222238","208349.93223","209116.540195","209883.205976","210649.937609","196783.44348","209892.814036"
"Mixed","both","cave","18","F_cave.wav","None","725.421336014","340","205283.725133","197549.785869","198316.836256","199083.256556","199849.826185","200616.658298","201400.631386","202167.239351","206050.595893","206816.651064","207583.222238","208349.93223","209116.540195","209883.205976","210649.937609","211416.505074","210659.461884"
"Mixed","both","cave","18","F_priest.wav","space","535.891484004","340","205283.725133","212183.122933","198316.836256","199083.256556","199849.826185","200616.658298","201400.631386","202167.239351","206050.595893","206816.651064","207583.222238","208349.93223","209116.540195","209883.205976","210649.937609","211416.505074","211426.47177"
"Mixed","both","cave","18","F_greet.wav","None","725.833149627","340","205283.725133","212183.122933","212949.752232","199083.256556","199849.826185","200616.658298","201400.631386","202167.239351","206050.595893","206816.651064","207583.222238","208349.93223","209116.540195","209883.205976","210649.937609","211416.505074","212192.93319"
"Mixed","both","cave","18","F_greet.wav","None","727.288410533","340","205283.725133","212183.122933","212949.752232","213716.451093","199849.826185","200616.658298","201400.631386","202167.239351","206050.595893","206816.651064","207583.222238","208349.93223","209116.540195","209883.205976","210649.937609","211416.505074","212958.836867"
"Mixed","both","cave","18","M_knife.wav","None","727.130115964","340","205283.725133","212183.122933","212949.752232","213716.451093","214483.097705","200616.658298","201400.631386","202167.239351","206050.595893","206816.651064","207583.222238","208349.93223","209116.540195","209883.205976","210649.937609","211416.505074","213726.162106"
"Mixed","both","cave","18","M_reek.wav","None","726.740871556","340","205283.725133","212183.122933","212949.752232","213716.451093","214483.097705","215249.69454","201400.631386","202167.239351","206050.595893","206816.651064","207583.222238","208349.93223","209116.540195","209883.205976","210649.937609","211416.505074","214493.37728"
"Mixed","both","cave","18","M_cave.wav","None","727.670235094","340","205283.725133","212183.122933","212949.752232","213716.451093","214483.097705","215249.69454","216016.355683","202167.239351","206050.595893","206816.651064","207583.222238","208349.93223","209116.540195","209883.205976","210649.937609","211416.505074","215259.978754"
"Mixed","both","cave","18","M_priest.wav","space","568.30913946","340","205283.725133","212183.122933","212949.752232","213716.451093","214483.097705","215249.69454","216016.355683","216782.737646","206050.595893","206816.651064","207583.222238","208349.93223","209116.540195","209883.205976","210649.937609","211416.505074","216025.922933"
"Mixed","both","ball","11","F_cling.wav","None","730.881887488","340","219915.752246","212183.122933","212949.752232","213716.451093","214483.097705","215249.69454","216016.355683","216782.737646","206050.595893","206816.651064","207583.222238","208349.93223","209116.540195","209883.205976","210649.937609","211416.505074","216790.847471"
"Mixed","both","ball","11","F_bluff.wav","None","724.790630396","340","219915.752246","212183.122933","212949.752232","213716.451093","214483.097705","215249.69454","216016.355683","216782.737646","220682.437504","206816.651064","207583.222238","208349.93223","209116.540195","209883.205976","210649.937609","211416.505074","219924.870891"
"Mixed","both","ball","11","M_romp.wav","None","725.317454897","340","219915.752246","212183.122933","212949.752232","213716.451093","214483.097705","215249.69454","216016.355683","216782.737646","220682.437504","221449.540759","207583.222238","208349.93223","209116.540195","209883.205976","210649.937609","211416.505074","220691.567897"
"Mixed","both","ball","11","F_ball.wav","None","730.713699013","340","219915.752246","212183.122933","212949.752232","213716.451093","214483.097705","215249.69454","216016.355683","216782.737646","220682.437504","221449.540759","222216.136049","208349.93223","209116.540195","209883.205976","210649.937609","211416.505074","221453.580986"
"Mixed","both","ball","11","M_gnash.wav","space","359.52204885","340","219915.752246","212183.122933","212949.752232","213716.451093","214483.097705","215249.69454","216016.355683","216782.737646","220682.437504","221449.540759","222216.136049","222982.669196","209116.540195","209883.205976","210649.937609","211416.505074","222226.520124"
"Mixed","both","ball","11","M_jaw.wav","None","726.199206896","340","219915.752246","212183.122933","212949.752232","213716.451093","214483.097705","215249.69454","216016.355683","216782.737646","220682.437504","221449.540759","222216.136049","222982.669196","223749.491107","209883.205976","210649.937609","211416.505074","222992.482853"
"Mixed","both","ball","11","M_greet.wav","None","726.57144675","340","219915.752246","212183.122933","212949.752232","213716.451093","214483.097705","215249.69454","216016.355683","216782.737646","220682.437504","221449.540759","222216.136049","222982.669196","223749.491107","224516.07774","210649.937609","211416.505074","223759.435852"
"Mixed","both","ball","11","M_gnash.wav","None","727.156086359","340","219915.752246","212183.122933","212949.752232","213716.451093","214483.097705","215249.69454","216016.355683","216782.737646","220682.437504","221449.540759","222216.136049","222982.669196","223749.491107","224516.07774","225282.737337","211416.505074","224525.915512"
"Mixed","both","ball","11","M_ball.wav","None","727.147120051","340","219915.752246","212183.122933","212949.752232","213716.451093","214483.097705","215249.69454","216016.355683","216782.737646","220682.437504","221449.540759","222216.136049","222982.669196","223749.491107","224516.07774","225282.737337","226049.415484","225292.532444"
"Mixed","both","ball","11","F_jaw.wav","space","423.405118752","340","219915.752246","226816.078482","212949.752232","213716.451093","214483.097705","215249.69454","216016.355683","216782.737646","220682.437504","221449.540759","222216.136049","222982.669196","223749.491107","224516.07774","225282.737337","226049.415484","226058.534747"
"Mixed","both","ball","11","M_ball.wav","None","727.731141262","340","219915.752246","226816.078482","227582.099644","213716.451093","214483.097705","215249.69454","216016.355683","216782.737646","220682.437504","221449.540759","222216.136049","222982.669196","223749.491107","224516.07774","225282.737337","226049.415484","226826.061255"
"Mixed","both","ball","11","F_reek.wav","space","610.897853039","340","219915.752246","226816.078482","227582.099644","228349.379744","214483.097705","215249.69454","216016.355683","216782.737646","220682.437504","221449.540759","222216.136049","222982.669196","223749.491107","224516.07774","225282.737337","226049.415484","227590.985793"
"Mixed","both","ball","11","F_lash.wav","None","728.95205114","340","219915.752246","226816.078482","227582.099644","228349.379744","229115.913818","215249.69454","216016.355683","216782.737646","220682.437504","221449.540759","222216.136049","222982.669196","223749.491107","224516.07774","225282.737337","226049.415484","228359.176088"
"Mixed","both","ball","11","F_ball.wav","None","729.347170331","340","219915.752246","226816.078482","227582.099644","228349.379744","229115.913818","229882.495504","216016.355683","216782.737646","220682.437504","221449.540759","222216.136049","222982.669196","223749.491107","224516.07774","225282.737337","226049.415484","229126.327573"
"Mixed","both","ball","11","F_cling.wav","space","493.386555929","340","219915.752246","226816.078482","227582.099644","228349.379744","229115.913818","229882.495504","230649.268257","216782.737646","220682.437504","221449.540759","222216.136049","222982.669196","223749.491107","224516.07774","225282.737337","226049.415484","229892.412115"
"Mixed","both","ball","11","M_reek.wav","None","730.541800614","340","219915.752246","226816.078482","227582.099644","228349.379744","229115.913818","229882.495504","230649.268257","231415.936511","220682.437504","221449.540759","222216.136049","222982.669196","223749.491107","224516.07774","225282.737337","226049.415484","230659.238355"
"Mixed","both","ball","10","M_gnash.wav","None","730.785735417","340","234549.154854","226816.078482","227582.099644","228349.379744","229115.913818","229882.495504","230649.268257","231415.936511","220682.437504","221449.540759","222216.136049","222982.669196","223749.491107","224516.07774","225282.737337","226049.415484","231426.199083"
"Mixed","both","ball","10","F_lash.wav","None","724.201662466","340","234549.154854","226816.078482","227582.099644","228349.379744","229115.913818","229882.495504","230649.268257","231415.936511","235315.426752","221449.540759","222216.136049","222982.669196","223749.491107","224516.07774","225282.737337","226049.415484","234558.825675"
"Mixed","both","ball","10","F_cad.wav","None","725.886636414","340","234549.154854","226816.078482","227582.099644","228349.379744","229115.913818","229882.495504","230649.268257","231415.936511","235315.426752","236082.356564","222216.136049","222982.669196","223749.491107","224516.07774","225282.737337","226049.415484","235324.502422"
"Mixed","both","ball","10","M_jolt.wav","None","725.697733462","340","234549.154854","226816.078482","227582.099644","228349.379744","229115.913818","229882.495504","230649.268257","231415.936511","235315.426752","236082.356564","236848.583942","222982.669196","223749.491107","224516.07774","225282.737337","226049.415484","236092.120136"
"Mixed","both","ball","10","M_romp.wav","None","727.60592727","340","234549.154854","226816.078482","227582.099644","228349.379744","229115.913818","229882.495504","230649.268257","231415.936511","235315.426752","236082.356564","236848.583942","237615.788605","223749.491107","224516.07774","225282.737337","226049.415484","236857.698258"
"Mixed","both","ball","10","F_ball.wav","None","727.5700639","340","234549.154854","226816.078482","227582.099644","228349.379744","229115.913818","229882.495504","230649.268257","231415.936511","235315.426752","236082.356564","236848.583942","237615.788605","238381.92385","224516.07774","225282.737337","226049.415484","237625.058124"
"Mixed","both","ball","10","F_park.wav","space","449.922583532","340","234549.154854","226816.078482","227582.099644","228349.379744","229115.913818","229882.495504","230649.268257","231415.936511","235315.426752","236082.356564","236848.583942","237615.788605","238381.92385","239148.697222","225282.737337","226049.415484","238391.665162"
"Mixed","both","ball","10","M_cad.wav","None","728.024234064","340","234549.154854","226816.078482","227582.099644","228349.379744","229115.913818","229882.495504","230649.268257","231415.936511","235315.426752","236082.356564","236848.583942","237615.788605","238381.92385","239148.697222","239915.619613","226049.415484","239158.62218"
"Mixed","both","ball","10","F_cad.wav","None","728.948341683","340","234549.154854","226816.078482","227582.099644","228349.379744","229115.913818","229882.495504","230649.268257","231415.936511","235315.426752","236082.356564","236848.583942","237615.788605","238381.92385","239148.697222","239915.619613","240682.258186","239925.117298"
"Mixed","both","ball","10","F_ball.wav","None","729.689420667","340","234549.154854","241448.570895","227582.099644","228349.379744","229115.913818","229882.495504","230649.268257","231415.936511","235315.426752","236082.356564","236848.583942","237615.788605","238381.92385","239148.697222","239915.619613","240682.258186","240691.712898"
"Mixed","both","ball","10","F_dime.wav","space","447.900615633","340","234549.154854","241448.570895","242215.294799","228349.379744","229115.913818","229882.495504","230649.268257","231415.936511","235315.426752","236082.356564","236848.583942","237615.788605","238381.92385","239148.697222","239915.619613","240682.258186","241457.589678"
"Mixed","both","ball","10","M_jolt.wav","None","730.37206661","340","234549.154854","241448.570895","242215.294799","242981.729939","229115.913818","229882.495504","230649.268257","231415.936511","235315.426752","236082.356564","236848.583942","237615.788605","238381.92385","239148.697222","239915.619613","240682.258186","242224.731888"
"Mixed","both","ball","10","M_ball.wav","None","731.804449111","340","234549.154854","241448.570895","242215.294799","242981.729939","243748.30235","229882.495504","230649.268257","231415.936511","235315.426752","236082.356564","236848.583942","237615.788605","238381.92385","239148.697222","239915.619613","240682.258186","242990.686579"
"Mixed","both","ball","10","M_cling.wav","space","418.667096179","340","234549.154854","241448.570895","242215.294799","242981.729939","243748.30235","244515.517525","230649.268257","231415.936511","235315.426752","236082.356564","236848.583942","237615.788605","238381.92385","239148.697222","239915.619613","240682.258186","243758.741457"
"Mixed","both","ball","10","M_ball.wav","None","731.101706624","340","234549.154854","241448.570895","242215.294799","242981.729939","243748.30235","244515.517525","245281.788496","231415.936511","235315.426752","236082.356564","236848.583942","237615.788605","238381.92385","239148.697222","239915.619613","240682.258186","244525.377558"
"Mixed","both","ball","10","F_lash.wav","space","438.307086937","340","234549.154854","241448.570895","242215.294799","242981.729939","243748.30235","244515.517525","245281.788496","246048.876602","235315.426752","236082.356564","236848.583942","237615.788605","238381.92385","239148.697222","239915.619613","240682.258186","245291.008857"
"Mixed","both","done","38","M_park.wav","None","731.969545595","340","249182.377526","241448.570895","242215.294799","242981.729939","243748.30235","244515.517525","245281.788496","246048.876602","235315.426752","236082.356564","236848.583942","237615.788605","238381.92385","239148.697222","239915.619613","240682.258186","246058.780846"
"Mixed","both","done","38","F_done.wav","None","723.054334987","340","249182.377526","241448.570895","242215.294799","242981.729939","243748.30235","244515.517525","245281.788496","246048.876602","249948.201128","236082.356564","236848.583942","237615.788605","238381.92385","239148.697222","239915.619613","240682.258186","249192.652463"
"Mixed","both","done","38","M_dime.wav","space","451.836652122","340","249182.377526","241448.570895","242215.294799","242981.729939","243748.30235","244515.517525","245281.788496","246048.876602","249948.201128","250715.366217","236848.583942","237615.788605","238381.92385","239148.697222","239915.619613","240682.258186","249957.401393"
"Mixed","both","done","38","M_cad.wav","None","725.626933854","340","249182.377526","241448.570895","242215.294799","242981.729939","243748.30235","244515.517525","245281.788496","246048.876602","249948.201128","250715.366217","251481.557422","237615.788605","238381.92385","239148.697222","239915.619613","240682.258186","250724.762805"
"Mixed","both","done","38","F_knife.wav","None","727.102600038","340","249182.377526","241448.570895","242215.294799","242981.729939","243748.30235","244515.517525","245281.788496","246048.876602","249948.201128","250715.366217","251481.557422","252248.5704","238381.92385","239148.697222","239915.619613","240682.258186","251490.689361"
"Mixed","both","done","38","M_reek.wav","None","727.844915353","340","249182.377526","241448.570895","242215.294799","242981.729939","243748.30235","244515.517525","245281.788496","246048.876602","249948.201128","250715.366217","251481.557422","252248.5704","253014.89764","239148.697222","239915.619613","240682.258186","252258.188044"
"Mixed","both","done","38","F_jaw.wav","None","729.028725531","340","249182.377526","241448.570895","242215.294799","242981.729939","243748.30235","244515.517525","245281.788496","246048.876602","249948.201128","250715.366217","251481.557422","252248.5704","253014.89764","253781.880628","239915.619613","240682.258186","253024.313396"
"Mixed","both","done","38","M_romp.wav","None","729.207734577","340","249182.377526","241448.570895","242215.294799","242981.729939","243748.30235","244515.517525","245281.788496","246048.876602","249948.201128","250715.366217","251481.557422","252248.5704","253014.89764","253781.880628","254548.554756","240682.258186","253791.59226"
"Mixed","both","done","38","F_priest.wav","None","730.118548032","340","249182.377526","241448.570895","242215.294799","242981.729939","243748.30235","244515.517525","245281.788496","246048.876602","249948.201128","250715.366217","251481.557422","252248.5704","253014.89764","253781.880628","254548.554756","255315.199513","254558.210119"
"Mixed","both","done","38","F_greet.wav","None","731.198477093","340","249182.377526","256081.79202","242215.294799","242981.729939","243748.30235","244515.517525","245281.788496","246048.876602","249948.201128","250715.366217","251481.557422","252248.5704","253014.89764","253781.880628","254548.554756","255315.199513","255324.621452"
"Mixed","both","done","38","M_done.wav","None","731.762402225","340","249182.377526","256081.79202","256848.520253","242981.729939","243748.30235","244515.517525","245281.788496","246048.876602","249948.201128","250715.366217","251481.557422","252248.5704","253014.89764","253781.880628","254548.554756","255315.199513","256091.49314"
"Mixed","both","done","38","F_romp.wav","space","494.659406599","340","249182.377526","256081.79202","256848.520253","257614.958485","243748.30235","244515.517525","245281.788496","246048.876602","249948.201128","250715.366217","251481.557422","252248.5704","253014.89764","253781.880628","254548.554756","255315.199513","256858.337311"
"Mixed","both","done","38","F_done.wav","None","736.444773618","340","249182.377526","256081.79202","256848.520253","257614.958485","258398.341367","244515.517525","245281.788496","246048.876602","249948.201128","250715.366217","251481.557422","252248.5704","253014.89764","253781.880628","254548.554756","255315.199513","257624.108973"
"Mixed","both","done","38","M_jaw.wav","space","441.464943811","340","249182.377526","256081.79202","256848.520253","257614.958485","258398.341367","259165.19976","245281.788496","246048.876602","249948.201128","250715.366217","251481.557422","252248.5704","253014.89764","253781.880628","254548.554756","255315.199513","258407.50546"
"Mixed","both","done","38","M_done.wav","None","719.288959634","340","249182.377526","256081.79202","256848.520253","257614.958485","258398.341367","259165.19976","259931.899859","246048.876602","249948.201128","250715.366217","251481.557422","252248.5704","253014.89764","253781.880628","254548.554756","255315.199513","259175.149452"
"Mixed","both","done","38","F_greet.wav","space","579.263014253","340","249182.377526","256081.79202","256848.520253","257614.958485","258398.341367","259165.19976","259931.899859","260698.641695","249948.201128","250715.366217","251481.557422","252248.5704","253014.89764","253781.880628","254548.554756","255315.199513","259941.668996"
"Mixed","both","ball","9","M_jolt.wav","None","720.217086375","340","263831.882916","256081.79202","256848.520253","257614.958485","258398.341367","259165.19976","259931.899859","260698.641695","249948.201128","250715.366217","251481.557422","252248.5704","253014.89764","253781.880628","254548.554756","255315.199513","260708.330139"
"Mixed","both","ball","9","F_lash.wav","None","722.725378349","340","263831.882916","256081.79202","256848.520253","257614.958485","258398.341367","259165.19976","259931.899859","260698.641695","264597.721977","250715.366217","251481.557422","252248.5704","253014.89764","253781.880628","254548.554756","255315.199513","263841.746659"
"Mixed","both","ball","9","M_ball.wav","None","725.083722733","340","263831.882916","256081.79202","256848.520253","257614.958485","258398.341367","259165.19976","259931.899859","260698.641695","264597.721977","265364.844401","251481.557422","252248.5704","253014.89764","253781.880628","254548.554756","255315.199513","264606.832583"
"Mixed","both","ball","9","F_cad.wav","space","465.638286434","340","263831.882916","256081.79202","256848.520253","257614.958485","258398.341367","259165.19976","259931.899859","260698.641695","264597.721977","265364.844401","266130.999743","252248.5704","253014.89764","253781.880628","254548.554756","255315.199513","265375.134489"
"Mixed","both","ball","9","F_ball.wav","None","725.795740262","340","263831.882916","256081.79202","256848.520253","257614.958485","258398.341367","259165.19976","259931.899859","260698.641695","264597.721977","265364.844401","266130.999743","266897.902656","253014.89764","253781.880628","254548.554756","255315.199513","266140.332951"
"Mixed","both","ball","9","M_reek.wav","space","517.566390801","340","263831.882916","256081.79202","256848.520253","257614.958485","258398.341367","259165.19976","259931.899859","260698.641695","264597.721977","265364.844401","266130.999743","266897.902656","267664.450024","253781.880628","254548.554756","255315.199513","266907.14806"
"Mixed","both","ball","9","F_ball.wav","None","727.148975246","340","263831.882916","256081.79202","256848.520253","257614.958485","258398.341367","259165.19976","259931.899859","260698.641695","264597.721977","265364.844401","266130.999743","266897.902656","267664.450024","268431.364995","254548.554756","255315.199513","267673.521366"
"Mixed","both","ball","9","M_priest.wav","space","423.547645565","340","263831.882916","256081.79202","256848.520253","257614.958485","258398.341367","259165.19976","259931.899859","260698.641695","264597.721977","265364.844401","266130.999743","266897.902656","267664.450024","268431.364995","269198.150424","255315.199513","268441.104452"
"Mixed","both","ball","9","F_knife.wav","None","727.097962517","340","263831.882916","256081.79202","256848.520253","257614.958485","258398.341367","259165.19976","259931.899859","260698.641695","264597.721977","265364.844401","266130.999743","266897.902656","267664.450024","268431.364995","269198.150424","269964.71727","269207.86051"
"Mixed","both","ball","9","M_jolt.wav","None","727.963636629","340","263831.882916","270731.317507","256848.520253","257614.958485","258398.341367","259165.19976","259931.899859","260698.641695","264597.721977","265364.844401","266130.999743","266897.902656","267664.450024","268431.364995","269198.150424","269964.71727","269974.316364"
"Mixed","both","ball","9","M_lash.wav","None","728.296921588","340","263831.882916","270731.317507","271498.072019","257614.958485","258398.341367","259165.19976","259931.899859","260698.641695","264597.721977","265364.844401","266130.999743","266897.902656","267664.450024","268431.364995","269198.150424","269964.71727","270741.736209"
"Mixed","both","ball","9","F_bluff.wav","None","729.537927546","340","263831.882916","270731.317507","271498.072019","272264.299706","258398.341367","259165.19976","259931.899859","260698.641695","264597.721977","265364.844401","266130.999743","266897.902656","267664.450024","268431.364995","269198.150424","269964.71727","271508.001924"
"Mixed","both","ball","9","M_cling.wav","None","731.925025117","340","263831.882916","270731.317507","271498.072019","272264.299706","273031.189016","259165.19976","259931.899859","260698.641695","264597.721977","265364.844401","266130.999743","266897.902656","267664.450024","268431.364995","269198.150424","269964.71727","272273.399491"
"Mixed","both","ball","9","F_priest.wav","None","732.08053736","340","263831.882916","270731.317507","271498.072019","272264.299706","273031.189016","273797.816769","259931.899859","260698.641695","264597.721977","265364.844401","266130.999743","266897.902656","267664.450024","268431.364995","269198.150424","269964.71727","273041.101299"
"Mixed","both","ball","9","M_ball.wav","None","732.970945537","340","263831.882916","270731.317507","271498.072019","272264.299706","273031.189016","273797.816769","274564.064552","260698.641695","264597.721977","265364.844401","266130.999743","266897.902656","267664.450024","268431.364995","269198.150424","269964.71727","273807.518198"
"Mixed","both","ball","9","F_depth.wav","space","443.438990973","340","263831.882916","270731.317507","271498.072019","272264.299706","273031.189016","273797.816769","274564.064552","275330.736825","264597.721977","265364.844401","266130.999743","266897.902656","267664.450024","268431.364995","269198.150424","269964.71727","274573.072204"
"Mixed","both","cave","17","M_bluff.wav","None","735.717916396","340","278464.834136","270731.317507","271498.072019","272264.299706","273031.189016","273797.816769","274564.064552","275330.736825","264597.721977","265364.844401","266130.999743","266897.902656","267664.450024","268431.364995","269198.150424","269964.71727","275339.719435"
"Mixed","both","cave","17","F_dime.wav","None","722.774536349","340","278464.834136","270731.317507","271498.072019","272264.299706","273031.189016","273797.816769","274564.064552","275330.736825","279231.054713","265364.844401","266130.999743","266897.902656","267664.450024","268431.364995","269198.150424","269964.71727","278474.944597"
"Mixed","both","cave","17","F_priest.wav","None","724.82371144","340","278464.834136","270731.317507","271498.072019","272264.299706","273031.189016","273797.816769","274564.064552","275330.736825","279231.054713","279997.805206","266130.999743","266897.902656","267664.450024","268431.364995","269198.150424","269964.71727","279240.559201"
"Mixed","both","cave","17","F_jolt.wav","None","725.567882415","340","278464.834136","270731.317507","271498.072019","272264.299706","273031.189016","273797.816769","274564.064552","275330.736825","279231.054713","279997.805206","280764.449035","266897.902656","267664.450024","268431.364995","269198.150424","269964.71727","280007.334118"
"Mixed","both","cave","17","M_cave.wav","None","726.133971475","340","278464.834136","270731.317507","271498.072019","272264.299706","273031.189016","273797.816769","274564.064552","275330.736825","279231.054713","279997.805206","280764.449035","281530.921584","267664.450024","268431.364995","269198.150424","269964.71727","280774.440774"
"Mixed","both","cave","17","F_romp.wav","space","450.574312825","340","278464.834136","270731.317507","271498.072019","272264.299706","273031.189016","273797.816769","274564.064552","275330.736825","279231.054713","279997.805206","280764.449035","281530.921584","282297.222545","268431.364995","269198.150424","269964.71727","281541.684702"
"Mixed","both","cave","17","F_greet.wav","None","729.141263291","340","278464.834136","270731.317507","271498.072019","272264.299706","273031.189016","273797.816769","274564.064552","275330.736825","279231.054713","279997.805206","280764.449035","281530.921584","282297.222545","283064.359809","269198.150424","269964.71727","282306.239473"
"Mixed","both","cave","17","M_cave.wav","None","729.000591207","340","278464.834136","270731.317507","271498.072019","272264.299706","273031.189016","273797.816769","274564.064552","275330.736825","279231.054713","279997.805206","280764.449035","281530.921584","282297.222545","283064.359809","283830.848744","269964.71727","283074.200364"
"Mixed","both","cave","17","F_reek.wav","space","495.454281103","340","278464.834136","270731.317507","271498.072019","272264.299706","273031.189016","273797.816769","274564.064552","275330.736825","279231.054713","279997.805206","280764.449035","281530.921584","282297.222545","283064.359809","283830.848744","284597.677457","283840.759481"
"Mixed","both","cave","17","F_cave.wav","None","730.924243573","340","278464.834136","285364.3386","271498.072019","272264.299706","273031.189016","273797.816769","274564.064552","275330.736825","279231.054713","279997.805206","280764.449035","281530.921584","282297.222545","283064.359809","283830.848744","284597.677457","284606.929044"
"Mixed","both","cave","17","M_romp.wav","None","730.688037816","340","278464.834136","285364.3386","286130.793218","272264.299706","273031.189016","273797.816769","274564.064552","275330.736825","279231.054713","279997.805206","280764.449035","281530.921584","282297.222545","283064.359809","283830.848744","284597.677457","285374.061671"
"Mixed","both","cave","17","F_cave.wav","space","0.0241152010858","340","278464.834136","285364.3386","286130.793218","286897.668615","273031.189016","273797.816769","274564.064552","275330.736825","279231.054713","279997.805206","280764.449035","281530.921584","282297.222545","283064.359809","283830.848744","284597.677457","286140.219795"
"Mixed","both","cave","17","M_romp.wav","space","508.6975554","340","278464.834136","285364.3386","286130.793218","286897.668615","287663.838178","273797.816769","274564.064552","275330.736825","279231.054713","279997.805206","280764.449035","281530.921584","282297.222545","283064.359809","283830.848744","284597.677457","286907.410545"
"Mixed","both","cave","17","M_dime.wav","None","732.839239296","340","278464.834136","285364.3386","286130.793218","286897.668615","287663.838178","288430.401932","274564.064552","275330.736825","279231.054713","279997.805206","280764.449035","281530.921584","282297.222545","283064.359809","283830.848744","284597.677457","287673.553519"
"Mixed","both","cave","17","M_depth.wav","None","734.705694951","340","278464.834136","285364.3386","286130.793218","286897.668615","287663.838178","288430.401932","289196.851912","275330.736825","279231.054713","279997.805206","280764.449035","281530.921584","282297.222545","283064.359809","283830.848744","284597.677457","288439.478221"
"Mixed","both","cave","17","M_romp.wav","None","736.011936329","340","278464.834136","285364.3386","286130.793218","286897.668615","287663.838178","288430.401932","289196.851912","289981.257837","279231.054713","279997.805206","280764.449035","281530.921584","282297.222545","283064.359809","283830.848744","284597.677457","289206.122978"
"Mixed","both","tile","27","F_dime.wav","None","719.13344739","340","293114.364261","285364.3386","286130.793218","286897.668615","287663.838178","288430.401932","289196.851912","289981.257837","279231.054713","279997.805206","280764.449035","281530.921584","282297.222545","283064.359809","283830.848744","284597.677457","289990.792624"
"Mixed","both","tile","27","F_tile.wav","None","722.404460423","340","293114.364261","285364.3386","286130.793218","286897.668615","287663.838178","288430.401932","289196.851912","289981.257837","293880.635541","279997.805206","280764.449035","281530.921584","282297.222545","283064.359809","283830.848744","284597.677457","293124.958262"
"Mixed","both","tile","27","M_cling.wav","space","445.777239744","340","293114.364261","285364.3386","286130.793218","286897.668615","287663.838178","288430.401932","289196.851912","289981.257837","293880.635541","294647.486823","280764.449035","281530.921584","282297.222545","283064.359809","283830.848744","284597.677457","293890.120551"
"Mixed","both","tile","27","M_gnash.wav","None","724.820929114","340","293114.364261","285364.3386","286130.793218","286897.668615","287663.838178","288430.401932","289196.851912","289981.257837","293880.635541","294647.486823","295414.018424","281530.921584","282297.222545","283064.359809","283830.848744","284597.677457","294657.114051"
"Mixed","both","tile","27","M_romp.wav","None","726.437576115","340","293114.364261","285364.3386","286130.793218","286897.668615","287663.838178","288430.401932","289196.851912","289981.257837","293880.635541","294647.486823","295414.018424","296180.602274","282297.222545","283064.359809","283830.848744","284597.677457","295423.410065"
"Mixed","both","tile","27","F_tile.wav","None","727.485969663","340","293114.364261","285364.3386","286130.793218","286897.668615","287663.838178","288430.401932","289196.851912","289981.257837","293880.635541","294647.486823","295414.018424","296180.602274","296947.264036","283064.359809","283830.848744","284597.677457","296190.054822"
"Mixed","both","tile","27","F_cling.wav","space","459.25733773","340","293114.364261","285364.3386","286130.793218","286897.668615","287663.838178","288430.401932","289196.851912","289981.257837","293880.635541","294647.486823","295414.018424","296180.602274","296947.264036","297713.884677","283830.848744","284597.677457","296956.554269"
"Mixed","both","tile","27","M_tile.wav","None","727.729904931","340","293114.364261","285364.3386","286130.793218","286897.668615","287663.838178","288430.401932","289196.851912","289981.257837","293880.635541","294647.486823","295414.018424","296180.602274","296947.264036","297713.884677","298480.585084","284597.677457","297723.611458"
"Mixed","both","tile","27","F_priest.wav","None","728.804577608","340","293114.364261","285364.3386","286130.793218","286897.668615","287663.838178","288430.401932","289196.851912","289981.257837","293880.635541","294647.486823","295414.018424","296180.602274","296947.264036","297713.884677","298480.585084","299247.225822","298490.198709"
"Mixed","both","tile","27","F_reek.wav","space","0.0355546362698","340","293114.364261","300013.892839","286130.793218","286897.668615","287663.838178","288430.401932","289196.851912","289981.257837","293880.635541","294647.486823","295414.018424","296180.602274","296947.264036","297713.884677","298480.585084","299247.225822","299256.904682"
"Mixed","both","tile","27","M_jolt.wav","None","730.216245167","340","293114.364261","300013.892839","300780.599739","286897.668615","287663.838178","288430.401932","289196.851912","289981.257837","293880.635541","294647.486823","295414.018424","296180.602274","296947.264036","297713.884677","298480.585084","299247.225822","300023.799248"
"Mixed","both","tile","27","M_tile.wav","None","731.741378549","340","293114.364261","300013.892839","300780.599739","301547.047864","287663.838178","288430.401932","289196.851912","289981.257837","293880.635541","294647.486823","295414.018424","296180.602274","296947.264036","297713.884677","298480.585084","299247.225822","300790.205944"
"Mixed","both","tile","27","F_priest.wav","space","475.47976952","340","293114.364261","300013.892839","300780.599739","301547.047864","302313.671598","288430.401932","289196.851912","289981.257837","293880.635541","294647.486823","295414.018424","296180.602274","296947.264036","297713.884677","298480.585084","299247.225822","301556.20701"
"Mixed","both","tile","27","M_gnash.wav","None","733.279187232","340","293114.364261","300013.892839","300780.599739","301547.047864","302313.671598","303079.782728","289196.851912","289981.257837","293880.635541","294647.486823","295414.018424","296180.602274","296947.264036","297713.884677","298480.585084","299247.225822","302323.778966"
"Mixed","both","tile","27","M_dime.wav","None","735.3246524","340","293114.364261","300013.892839","300780.599739","301547.047864","302313.671598","303079.782728","303863.561348","289981.257837","293880.635541","294647.486823","295414.018424","296180.602274","296947.264036","297713.884677","298480.585084","299247.225822","303089.461897"
"Mixed","both","tile","27","F_cad.wav","None","720.311074052","340","293114.364261","300013.892839","300780.599739","301547.047864","302313.671598","303079.782728","303863.561348","304630.686863","293880.635541","294647.486823","295414.018424","296180.602274","296947.264036","297713.884677","298480.585084","299247.225822","303872.711836"
"Mixed","both","ball","1","M_lash.wav","None","720.018290449","340","307763.917882","300013.892839","300780.599739","301547.047864","302313.671598","303079.782728","303863.561348","304630.686863","293880.635541","294647.486823","295414.018424","296180.602274","296947.264036","297713.884677","298480.585084","299247.225822","304640.807217"
"Mixed","both","ball","1","M_depth.wav","None","722.517307382","340","307763.917882","300013.892839","300780.599739","301547.047864","302313.671598","303079.782728","303863.561348","304630.686863","308530.203693","294647.486823","295414.018424","296180.602274","296947.264036","297713.884677","298480.585084","299247.225822","307774.410785"
"Mixed","both","ball","1","M_knife.wav","None","724.30306999","340","307763.917882","300013.892839","300780.599739","301547.047864","302313.671598","303079.782728","303863.561348","304630.686863","308530.203693","309297.062704","295414.018424","296180.602274","296947.264036","297713.884677","298480.585084","299247.225822","308539.966647"
"Mixed","both","ball","1","M_ball.wav","None","725.382689852","340","307763.917882","300013.892839","300780.599739","301547.047864","302313.671598","303079.782728","303863.561348","304630.686863","308530.203693","309297.062704","310063.265349","296180.602274","296947.264036","297713.884677","298480.585084","299247.225822","309306.828131"
"Mixed","both","ball","1","F_jaw.wav","space","454.493654892","340","307763.917882","300013.892839","300780.599739","301547.047864","302313.671598","303079.782728","303863.561348","304630.686863","308530.203693","309297.062704","310063.265349","310830.15775","296947.264036","297713.884677","298480.585084","299247.225822","310072.931532"
"Mixed","both","ball","1","M_priest.wav","None","727.30417829","340","307763.917882","300013.892839","300780.599739","301547.047864","302313.671598","303079.782728","303863.561348","304630.686863","308530.203693","309297.062704","310063.265349","310830.15775","311596.372762","297713.884677","298480.585084","299247.225822","310839.839702"
"Mixed","both","ball","1","F_bluff.wav","None","730.125659145","340","307763.917882","300013.892839","300780.599739","301547.047864","302313.671598","303079.782728","303863.561348","304630.686863","308530.203693","309297.062704","310063.265349","310830.15775","311596.372762","312363.509407","298480.585084","299247.225822","311605.235723"
"Mixed","both","ball","1","F_ball.wav","None","730.389689561","340","307763.917882","300013.892839","300780.599739","301547.047864","302313.671598","303079.782728","303863.561348","304630.686863","308530.203693","309297.062704","310063.265349","310830.15775","311596.372762","312363.509407","313130.019366","299247.225822","312373.061198"
"Mixed","both","ball","1","F_dime.wav","space","459.804876707","340","307763.917882","300013.892839","300780.599739","301547.047864","302313.671598","303079.782728","303863.561348","304630.686863","308530.203693","309297.062704","310063.265349","310830.15775","311596.372762","312363.509407","313130.019366","313896.764294","313139.520762"
"Mixed","both","ball","1","F_ball.wav","None","730.433900841","340","307763.917882","314663.453262","300780.599739","301547.047864","302313.671598","303079.782728","303863.561348","304630.686863","308530.203693","309297.062704","310063.265349","310830.15775","311596.372762","312363.509407","313130.019366","313896.764294","313906.447173"
"Mixed","both","ball","1","F_reek.wav","None","730.897036847","340","307763.917882","314663.453262","315429.761952","301547.047864","302313.671598","303079.782728","303863.561348","304630.686863","308530.203693","309297.062704","310063.265349","310830.15775","311596.372762","312363.509407","313130.019366","313896.764294","314673.820642"
"Mixed","both","ball","1","F_dime.wav","space","288.470885251","340","307763.917882","314663.453262","315429.761952","316196.635494","302313.671598","303079.782728","303863.561348","304630.686863","308530.203693","309297.062704","310063.265349","310830.15775","311596.372762","312363.509407","313130.019366","313896.764294","315438.808559"
"Mixed","both","ball","1","M_ball.wav","None","733.275786508","340","307763.917882","314663.453262","315429.761952","316196.635494","316963.200485","303079.782728","303863.561348","304630.686863","308530.203693","309297.062704","310063.265349","310830.15775","311596.372762","312363.509407","313130.019366","313896.764294","316206.320846"
"Mixed","both","ball","1","M_knife.wav","space","642.405004241","340","307763.917882","314663.453262","315429.761952","316196.635494","316963.200485","317729.741052","303863.561348","304630.686863","308530.203693","309297.062704","310063.265349","310830.15775","311596.372762","312363.509407","313130.019366","313896.764294","316972.793705"
"Mixed","both","ball","1","F_romp.wav","None","734.950248152","340","307763.917882","314663.453262","315429.761952","316196.635494","316963.200485","317729.741052","318513.714449","304630.686863","308530.203693","309297.062704","310063.265349","310830.15775","311596.372762","312363.509407","313130.019366","313896.764294","317738.899579"
"Mixed","both","ball","1","M_jaw.wav","None","718.628264498","340","307763.917882","314663.453262","315429.761952","316196.635494","316963.200485","317729.741052","318513.714449","319280.243267","308530.203693","309297.062704","310063.265349","310830.15775","311596.372762","312363.509407","313130.019366","313896.764294","318523.488532"
"Mixed","both","cave","15","M_jolt.wav","None","718.74358505","340","322413.575384","314663.453262","315429.761952","316196.635494","316963.200485","317729.741052","318513.714449","319280.243267","308530.203693","309297.062704","310063.265349","310830.15775","311596.372762","312363.509407","313130.019366","313896.764294","319291.083367"
"Mixed","both","cave","15","F_cave.wav","None","722.715794109","340","322413.575384","314663.453262","315429.761952","316196.635494","316963.200485","317729.741052","318513.714449","319280.243267","323179.738455","309297.062704","310063.265349","310830.15775","311596.372762","312363.509407","313130.019366","313896.764294","322423.602368"
"Mixed","both","cave","15","F_bluff.wav","space","481.380268931","340","322413.575384","314663.453262","315429.761952","316196.635494","316963.200485","317729.741052","318513.714449","319280.243267","323179.738455","323946.563458","310063.265349","310830.15775","311596.372762","312363.509407","313130.019366","313896.764294","323189.639298"
"Mixed","both","cave","15","M_lash.wav","None","724.657378159","340","322413.575384","314663.453262","315429.761952","316196.635494","316963.200485","317729.741052","318513.714449","319280.243267","323179.738455","323946.563458","324713.13185","310830.15775","311596.372762","312363.509407","313130.019366","313896.764294","323956.097935"
"Mixed","both","cave","15","F_cave.wav","None","725.719993934","340","322413.575384","314663.453262","315429.761952","316196.635494","316963.200485","317729.741052","318513.714449","319280.243267","323179.738455","323946.563458","324713.13185","325479.565443","311596.372762","312363.509407","313130.019366","313896.764294","324722.806999"
"Mixed","both","cave","15","F_cad.wav","space","461.634851061","340","322413.575384","314663.453262","315429.761952","316196.635494","316963.200485","317729.741052","318513.714449","319280.243267","323179.738455","323946.563458","324713.13185","325479.565443","326246.354892","312363.509407","313130.019366","313896.764294","325489.354677"
"Mixed","both","cave","15","M_cave.wav","None","728.034127504","340","322413.575384","314663.453262","315429.761952","316196.635494","316963.200485","317729.741052","318513.714449","319280.243267","323179.738455","323946.563458","324713.13185","325479.565443","326246.354892","327013.007378","313130.019366","313896.764294","326255.610807"
"Mixed","both","cave","15","F_priest.wav","space","568.379321136","340","322413.575384","314663.453262","315429.761952","316196.635494","316963.200485","317729.741052","318513.714449","319280.243267","323179.738455","323946.563458","324713.13185","325479.565443","326246.354892","327013.007378","327779.544543","313896.764294","327022.511557"
"Mixed","both","cave","15","M_greet.wav","None","728.29630319","340","322413.575384","314663.453262","315429.761952","316196.635494","316963.200485","317729.741052","318513.714449","319280.243267","323179.738455","323946.563458","324713.13185","325479.565443","326246.354892","327013.007378","327779.544543","328546.750443","327789.850708"
"Mixed","both","cave","15","M_priest.wav","None","729.173726402","340","322413.575384","329313.018632","315429.761952","316196.635494","316963.200485","317729.741052","318513.714449","319280.243267","323179.738455","323946.563458","324713.13185","325479.565443","326246.354892","327013.007378","327779.544543","328546.750443","328556.853483"
"Mixed","both","cave","15","M_depth.wav","None","731.021941174","340","322413.575384","329313.018632","330079.083386","316196.635494","316963.200485","317729.741052","318513.714449","319280.243267","323179.738455","323946.563458","324713.13185","325479.565443","326246.354892","327013.007378","327779.544543","328546.750443","329322.859496"
"Mixed","both","cave","15","F_reek.wav","None","733.507663477","340","322413.575384","329313.018632","330079.083386","330846.194989","316963.200485","317729.741052","318513.714449","319280.243267","323179.738455","323946.563458","324713.13185","325479.565443","326246.354892","327013.007378","327779.544543","328546.750443","330088.403919"
"Mixed","both","cave","15","M_jaw.wav","None","733.478911221","340","322413.575384","329313.018632","330079.083386","330846.194989","331612.436589","317729.741052","318513.714449","319280.243267","323179.738455","323946.563458","324713.13185","325479.565443","326246.354892","327013.007378","327779.544543","328546.750443","330855.994425"
"Mixed","both","cave","15","F_gnash.wav","None","735.743577126","340","322413.575384","329313.018632","330079.083386","330846.194989","331612.436589","332396.385252","318513.714449","319280.243267","323179.738455","323946.563458","324713.13185","325479.565443","326246.354892","327013.007378","327779.544543","328546.750443","331621.92129"
"Mixed","both","cave","15","M_cave.wav","None","720.108258538","340","322413.575384","329313.018632","330079.083386","330846.194989","331612.436589","332396.385252","333163.117195","319280.243267","323179.738455","323946.563458","324713.13185","325479.565443","326246.354892","327013.007378","327779.544543","328546.750443","332405.310975"
"Mixed","both","cave","15","F_park.wav","space","449.0275383","340","322413.575384","329313.018632","330079.083386","330846.194989","331612.436589","332396.385252","333163.117195","333929.904169","323179.738455","323946.563458","324713.13185","325479.565443","326246.354892","327013.007378","327779.544543","328546.750443","333173.680588"
"Mixed","both","tile","33","F_cling.wav","None","720.248930622","340","337063.148792","329313.018632","330079.083386","330846.194989","331612.436589","332396.385252","333163.117195","333929.904169","323179.738455","323946.563458","324713.13185","325479.565443","326246.354892","327013.007378","327779.544543","328546.750443","333940.139225"
"Mixed","both","tile","33","M_gnash.wav","None","722.920464352","340","337063.148792","329313.018632","330079.083386","330846.194989","331612.436589","332396.385252","333163.117195","333929.904169","337829.477268","323946.563458","324713.13185","325479.565443","326246.354892","327013.007378","327779.544543","328546.750443","337072.90247"
"Mixed","both","tile","33","M_jaw.wav","None","724.583796225","340","337063.148792","329313.018632","330079.083386","330846.194989","331612.436589","332396.385252","333163.117195","333929.904169","337829.477268","338596.098837","324713.13185","325479.565443","326246.354892","327013.007378","327779.544543","328546.750443","337839.199102"
"Mixed","both","tile","33","F_tile.wav","None","726.211573463","340","337063.148792","329313.018632","330079.083386","330846.194989","331612.436589","332396.385252","333163.117195","333929.904169","337829.477268","338596.098837","339362.261909","325479.565443","326246.354892","327013.007378","327779.544543","328546.750443","338605.531289"
"Mixed","both","tile","33","M_park.wav","space","426.933669485","340","337063.148792","329313.018632","330079.083386","330846.194989","331612.436589","332396.385252","333163.117195","333929.904169","337829.477268","338596.098837","339362.261909","340128.801857","326246.354892","327013.007378","327779.544543","328546.750443","339371.590479"
"Mixed","both","tile","33","M_tile.wav","None","729.656648822","340","337063.148792","329313.018632","330079.083386","330846.194989","331612.436589","332396.385252","333163.117195","333929.904169","337829.477268","338596.098837","339362.261909","340128.801857","340896.005283","327013.007378","327779.544543","328546.750443","340137.580415"
"Mixed","both","tile","33","F_cad.wav","space","540.960317478","340","337063.148792","329313.018632","330079.083386","330846.194989","331612.436589","332396.385252","333163.117195","333929.904169","337829.477268","338596.098837","339362.261909","340128.801857","340896.005283","341662.574293","327779.544543","328546.750443","340905.525539"
"Mixed","both","tile","33","F_cad.wav","None","729.613055941","340","337063.148792","329313.018632","330079.083386","330846.194989","331612.436589","332396.385252","333163.117195","333929.904169","337829.477268","338596.098837","339362.261909","340128.801857","340896.005283","341662.574293","342429.076832","328546.750443","341672.700521"
"Mixed","both","tile","33","M_jolt.wav","None","731.808159035","340","337063.148792","329313.018632","330079.083386","330846.194989","331612.436589","332396.385252","333163.117195","333929.904169","337829.477268","338596.098837","339362.261909","340128.801857","340896.005283","341662.574293","342429.076832","343196.037869","342438.738378"
"Mixed","both","tile","33","M_dime.wav","None","733.218899462","340","337063.148792","343962.445184","330079.083386","330846.194989","331612.436589","332396.385252","333163.117195","333929.904169","337829.477268","338596.098837","339362.261909","340128.801857","340896.005283","341662.574293","342429.076832","343196.037869","343205.592443"
"Mixed","both","tile","33","F_knife.wav","None","734.734448139","340","337063.148792","343962.445184","344746.234625","330846.194989","331612.436589","332396.385252","333163.117195","333929.904169","337829.477268","338596.098837","339362.261909","340128.801857","340896.005283","341662.574293","342429.076832","343196.037869","343972.057881"
"Mixed","both","tile","33","F_jaw.wav","None","718.354031444","340","337063.148792","343962.445184","344746.234625","345512.248367","331612.436589","332396.385252","333163.117195","333929.904169","337829.477268","338596.098837","339362.261909","340128.801857","340896.005283","341662.574293","342429.076832","343196.037869","344756.673423"
"Mixed","both","tile","33","M_tile.wav","None","721.675438806","340","337063.148792","343962.445184","344746.234625","345512.248367","346278.921567","332396.385252","333163.117195","333929.904169","337829.477268","338596.098837","339362.261909","340128.801857","340896.005283","341662.574293","342429.076832","343196.037869","345521.468109"
"Mixed","both","tile","33","M_dime.wav","space","486.208877061","340","337063.148792","343962.445184","344746.234625","345512.248367","346278.921567","347046.135505","333163.117195","333929.904169","337829.477268","338596.098837","339362.261909","340128.801857","340896.005283","341662.574293","342429.076832","343196.037869","346288.136363"
"Mixed","both","tile","33","F_tile.wav","None","721.38543753","340","337063.148792","343962.445184","344746.234625","345512.248367","346278.921567","347046.135505","347813.011211","333929.904169","337829.477268","338596.098837","339362.261909","340128.801857","340896.005283","341662.574293","342429.076832","343196.037869","347056.483098"
"Mixed","both","tile","33","F_gnash.wav","space","535.322921351","340","337063.148792","343962.445184","344746.234625","345512.248367","346278.921567","347046.135505","347813.011211","348578.854292","337829.477268","338596.098837","339362.261909","340128.801857","340896.005283","341662.574293","342429.076832","343196.037869","347822.953174"
"Mixed","both","cave","20","M_gnash.wav","None","724.338315427","340","351712.671496","343962.445184","344746.234625","345512.248367","346278.921567","347046.135505","347813.011211","348578.854292","337829.477268","338596.098837","339362.261909","340128.801857","340896.005283","341662.574293","342429.076832","343196.037869","348588.512746"
"Mixed","both","cave","20","M_reek.wav","None","722.544823308","340","351712.671496","343962.445184","344746.234625","345512.248367","346278.921567","347046.135505","347813.011211","348578.854292","352478.771187","338596.098837","339362.261909","340128.801857","340896.005283","341662.574293","342429.076832","343196.037869","351722.683331"
"Mixed","both","cave","20","F_cave.wav","None","724.72570464","340","351712.671496","343962.445184","344746.234625","345512.248367","346278.921567","347046.135505","347813.011211","348578.854292","352478.771187","353245.10863","339362.261909","340128.801857","340896.005283","341662.574293","342429.076832","343196.037869","352488.733864"
"Mixed","both","cave","20","F_gnash.wav","space","407.893776894","340","351712.671496","343962.445184","344746.234625","345512.248367","346278.921567","347046.135505","347813.011211","348578.854292","352478.771187","353245.10863","354011.798525","340128.801857","340896.005283","341662.574293","342429.076832","343196.037869","353254.173479"
"Mixed","both","cave","20","M_cave.wav","None","731.833820231","340","351712.671496","343962.445184","344746.234625","345512.248367","346278.921567","347046.135505","347813.011211","348578.854292","352478.771187","353245.10863","354011.798525","354778.769765","340896.005283","341662.574293","342429.076832","343196.037869","354020.826892"
"Mixed","both","cave","20","F_depth.wav","space","514.008778147","340","351712.671496","343962.445184","344746.234625","345512.248367","346278.921567","347046.135505","347813.011211","348578.854292","352478.771187","353245.10863","354011.798525","354778.769765","355545.558286","341662.574293","342429.076832","343196.037869","354788.041448"
"Mixed","both","cave","20","F_cave.wav","None","731.556803919","340","351712.671496","343962.445184","344746.234625","345512.248367","346278.921567","347046.135505","347813.011211","348578.854292","352478.771187","353245.10863","354011.798525","354778.769765","355545.558286","356312.11462","342429.076832","343196.037869","355555.574449"
"Mixed","both","cave","20","F_dime.wav","space","484.392507002","340","351712.671496","343962.445184","344746.234625","345512.248367","346278.921567","347046.135505","347813.011211","348578.854292","352478.771187","353245.10863","354011.798525","354778.769765","355545.558286","356312.11462","357078.610048","343196.037869","356321.64817"
"Mixed","both","cave","20","M_greet.wav","None","733.729338273","340","351712.671496","343962.445184","344746.234625","345512.248367","346278.921567","347046.135505","347813.011211","348578.854292","352478.771187","353245.10863","354011.798525","354778.769765","355545.558286","356312.11462","357078.610048","357862.541088","357088.524186"
"Mixed","both","cave","20","M_priest.wav","None","717.854413204","340","351712.671496","358629.163585","344746.234625","345512.248367","346278.921567","347046.135505","347813.011211","348578.854292","352478.771187","353245.10863","354011.798525","354778.769765","355545.558286","356312.11462","357078.610048","357862.541088","357872.59899"
"Mixed","both","cave","20","M_cave.wav","None","719.527020119","340","351712.671496","358629.163585","359395.896455","345512.248367","346278.921567","347046.135505","347813.011211","348578.854292","352478.771187","353245.10863","354011.798525","354778.769765","355545.558286","356312.11462","357078.610048","357862.541088","358638.845846"
"Mixed","both","cave","20","M_gnash.wav","space","368.093772326","340","351712.671496","358629.163585","359395.896455","360162.469794","346278.921567","347046.135505","347813.011211","348578.854292","352478.771187","353245.10863","354011.798525","354778.769765","355545.558286","356312.11462","357078.610048","357862.541088","359405.83378"
"Mixed","both","cave","20","F_romp.wav","None","719.460548833","340","351712.671496","358629.163585","359395.896455","360162.469794","360928.985009","347046.135505","347813.011211","348578.854292","352478.771187","353245.10863","354011.798525","354778.769765","355545.558286","356312.11462","357078.610048","357862.541088","360173.093166"
"Mixed","both","cave","20","F_cling.wav","None","721.794468816","340","351712.671496","358629.163585","359395.896455","360162.469794","360928.985009","361695.686034","347813.011211","348578.854292","352478.771187","353245.10863","354011.798525","354778.769765","355545.558286","356312.11462","357078.610048","357862.541088","360938.924189"
"Mixed","both","cave","20","F_jaw.wav","None","723.063918762","340","351712.671496","358629.163585","359395.896455","360162.469794","360928.985009","361695.686034","362462.027805","348578.854292","352478.771187","353245.10863","354011.798525","354778.769765","355545.558286","356312.11462","357078.610048","357862.541088","361705.820301"
"Mixed","both","cave","20","M_jolt.wav","None","724.565554876","340","351712.671496","358629.163585","359395.896455","360162.469794","360928.985009","361695.686034","362462.027805","363228.421517","352478.771187","353245.10863","354011.798525","354778.769765","355545.558286","356312.11462","357078.610048","357862.541088","362472.258223"
"Mixed","both","done","46","F_jolt.wav","None","726.619676687","340","366362.193891","358629.163585","359395.896455","360162.469794","360928.985009","361695.686034","362462.027805","363228.421517","352478.771187","353245.10863","354011.798525","354778.769765","355545.558286","356312.11462","357078.610048","357862.541088","363238.238575"
"Mixed","both","done","46","M_greet.wav","None","722.661689389","340","366362.193891","358629.163585","359395.896455","360162.469794","360928.985009","361695.686034","362462.027805","363228.421517","367128.008528","353245.10863","354011.798525","354778.769765","355545.558286","356312.11462","357078.610048","357862.541088","366372.276217"
"Mixed","both","done","46","F_done.wav","None","725.830058102","340","366362.193891","358629.163585","359395.896455","360162.469794","360928.985009","361695.686034","362462.027805","363228.421517","367128.008528","367895.201751","354011.798525","354778.769765","355545.558286","356312.11462","357078.610048","357862.541088","367137.212503"
"Mixed","both","done","46","M_bluff.wav","space","452.836506069","340","366362.193891","358629.163585","359395.896455","360162.469794","360928.985009","361695.686034","362462.027805","363228.421517","367128.008528","367895.201751","368661.829813","354778.769765","355545.558286","356312.11462","357078.610048","357862.541088","367904.848148"
"Mixed","both","done","46","M_lash.wav","None","726.09006986","340","366362.193891","358629.163585","359395.896455","360162.469794","360928.985009","361695.686034","362462.027805","363228.421517","367128.008528","367895.201751","368661.829813","369428.234345","355545.558286","356312.11462","357078.610048","357862.541088","368671.779505"
"Mixed","both","done","46","F_dime.wav","None","727.86872182","340","366362.193891","358629.163585","359395.896455","360162.469794","360928.985009","361695.686034","362462.027805","363228.421517","367128.008528","367895.201751","368661.829813","369428.234345","370195.144988","356312.11462","357078.610048","357862.541088","369437.834057"
"Mixed","both","done","46","F_done.wav","space","424.640250392","340","366362.193891","358629.163585","359395.896455","360162.469794","360928.985009","361695.686034","362462.027805","363228.421517","367128.008528","367895.201751","368661.829813","369428.234345","370195.144988","370961.958551","357078.610048","357862.541088","370204.937622"
"Mixed","both","done","46","M_gnash.wav","space","721.753658727","340","366362.193891","358629.163585","359395.896455","360162.469794","360928.985009","361695.686034","362462.027805","363228.421517","367128.008528","367895.201751","368661.829813","369428.234345","370195.144988","370961.958551","371728.261367","357862.541088","370971.815183"
"Mixed","both","done","46","M_done.wav","None","729.086540174","340","366362.193891","358629.163585","359395.896455","360162.469794","360928.985009","361695.686034","362462.027805","363228.421517","367128.008528","367895.201751","368661.829813","369428.234345","370195.144988","370961.958551","371728.261367","372495.014333","371738.248159"
"Mixed","both","done","46","F_reek.wav","None","730.670415331","340","366362.193891","373261.644559","359395.896455","360162.469794","360928.985009","361695.686034","362462.027805","363228.421517","367128.008528","367895.201751","368661.829813","369428.234345","370195.144988","370961.958551","371728.261367","372495.014333","372504.684227"
"Mixed","both","done","46","F_bluff.wav","space","0.0361730344594","340","366362.193891","373261.644559","374028.057438","360162.469794","360928.985009","361695.686034","362462.027805","363228.421517","367128.008528","367895.201751","368661.829813","369428.234345","370195.144988","370961.958551","371728.261367","372495.014333","373271.27797"
"Mixed","both","done","46","M_done.wav","None","732.916531619","340","366362.193891","373261.644559","374028.057438","374794.60388","360928.985009","361695.686034","362462.027805","363228.421517","367128.008528","367895.201751","368661.829813","369428.234345","370195.144988","370961.958551","371728.261367","372495.014333","374037.677247"
"Mixed","both","done","46","F_depth.wav","space","625.182409771","340","366362.193891","373261.644559","374028.057438","374794.60388","375561.535546","361695.686034","362462.027805","363228.421517","367128.008528","367895.201751","368661.829813","369428.234345","370195.144988","370961.958551","371728.261367","372495.014333","374804.339008"
"Mixed","both","done","46","F_knife.wav","None","734.418786131","340","366362.193891","373261.644559","374028.057438","374794.60388","375561.535546","376344.60895","362462.027805","363228.421517","367128.008528","367895.201751","368661.829813","369428.234345","370195.144988","370961.958551","371728.261367","372495.014333","375571.170812"
"Mixed","both","done","46","M_park.wav","None","720.226670615","340","366362.193891","373261.644559","374028.057438","374794.60388","375561.535546","376344.60895","377111.937899","363228.421517","367128.008528","367895.201751","368661.829813","369428.234345","370195.144988","370961.958551","371728.261367","372495.014333","376353.725739"
"Mixed","both","done","46","M_cling.wav","None","720.355903264","340","366362.193891","373261.644559","374028.057438","374794.60388","375561.535546","376344.60895","377111.937899","377877.995543","367128.008528","367895.201751","368661.829813","369428.234345","370195.144988","370961.958551","371728.261367","372495.014333","377122.637018"
"Mixed","both","tile","26","F_romp.wav","None","724.252366461","340","381011.793888","373261.644559","374028.057438","374794.60388","375561.535546","376344.60895","377111.937899","377877.995543","367128.008528","367895.201751","368661.829813","369428.234345","370195.144988","370961.958551","371728.261367","372495.014333","377886.914773"
"Mixed","both","tile","26","M_tile.wav","None","723.239527084","340","381011.793888","373261.644559","374028.057438","374794.60388","375561.535546","376344.60895","377111.937899","377877.995543","381777.73683","367895.201751","368661.829813","369428.234345","370195.144988","370961.958551","371728.261367","372495.014333","381021.517267"
"Mixed","both","tile","26","F_depth.wav","space","514.44996288","340","381011.793888","373261.644559","374028.057438","374794.60388","375561.535546","376344.60895","377111.937899","377877.995543","381777.73683","382544.740533","368661.829813","369428.234345","370195.144988","370961.958551","371728.261367","372495.014333","381786.820847"
"Mixed","both","tile","26","F_knife.wav","None","725.207391195","340","381011.793888","373261.644559","374028.057438","374794.60388","375561.535546","376344.60895","377111.937899","377877.995543","381777.73683","382544.740533","383311.410641","369428.234345","370195.144988","370961.958551","371728.261367","372495.014333","382554.739382"
"Mixed","both","tile","26","M_gnash.wav","None","727.70084301","340","381011.793888","373261.644559","374028.057438","374794.60388","375561.535546","376344.60895","377111.937899","377877.995543","381777.73683","382544.740533","383311.410641","384077.437368","370195.144988","370961.958551","371728.261367","372495.014333","383320.924095"
"Mixed","both","tile","26","F_tile.wav","None","731.010810938","340","381011.793888","373261.644559","374028.057438","374794.60388","375561.535546","376344.60895","377111.937899","377877.995543","381777.73683","382544.740533","383311.410641","384077.437368","384844.177659","370961.958551","371728.261367","372495.014333","384086.439147"
"Mixed","both","tile","26","F_depth.wav","space","463.823461905","340","381011.793888","373261.644559","374028.057438","374794.60388","375561.535546","376344.60895","377111.937899","377877.995543","381777.73683","382544.740533","383311.410641","384077.437368","384844.177659","385611.247523","371728.261367","372495.014333","384853.308051"
"Mixed","both","tile","26","M_romp.wav","None","731.82454519","340","381011.793888","373261.644559","374028.057438","374794.60388","375561.535546","376344.60895","377111.937899","377877.995543","381777.73683","382544.740533","383311.410641","384077.437368","384844.177659","385611.247523","386377.348451","372495.014333","385621.204944"
"Mixed","both","tile","26","M_tile.wav","None","735.043617431","340","381011.793888","373261.644559","374028.057438","374794.60388","375561.535546","376344.60895","377111.937899","377877.995543","381777.73683","382544.740533","383311.410641","384077.437368","384844.177659","385611.247523","386377.348451","387144.768605","386386.609623"
"Mixed","both","tile","26","M_jolt.wav","space","522.418805864","340","381011.793888","387928.256606","374028.057438","374794.60388","375561.535546","376344.60895","377111.937899","377877.995543","381777.73683","382544.740533","383311.410641","384077.437368","384844.177659","385611.247523","386377.348451","387144.768605","387154.680269"
"Mixed","both","tile","26","F_jaw.wav","None","718.766463455","340","381011.793888","387928.256606","388694.997205","374794.60388","375561.535546","376344.60895","377111.937899","377877.995543","381777.73683","382544.740533","383311.410641","384077.437368","384844.177659","385611.247523","386377.348451","387144.768605","387938.241543"
"Mixed","both","tile","26","M_priest.wav","None","720.202246215","340","381011.793888","387928.256606","388694.997205","389461.430181","375561.535546","376344.60895","377111.937899","377877.995543","381777.73683","382544.740533","383311.410641","384077.437368","384844.177659","385611.247523","386377.348451","387144.768605","388705.625215"
"Mixed","both","tile","26","F_dime.wav","None","727.876450866","340","381011.793888","387928.256606","388694.997205","389461.430181","390228.172944","376344.60895","377111.937899","377877.995543","381777.73683","382544.740533","383311.410641","384077.437368","384844.177659","385611.247523","386377.348451","387144.768605","389466.339174"
"Mixed","both","tile","26","M_dime.wav","None","724.344808143","340","381011.793888","387928.256606","388694.997205","389461.430181","390228.172944","390994.431857","377111.937899","377877.995543","381777.73683","382544.740533","383311.410641","384077.437368","384844.177659","385611.247523","386377.348451","387144.768605","390237.725353"
"Mixed","both","tile","26","F_tile.wav","None","726.661414839","340","381011.793888","387928.256606","388694.997205","389461.430181","390228.172944","390994.431857","391760.723543","377877.995543","381777.73683","382544.740533","383311.410641","384077.437368","384844.177659","385611.247523","386377.348451","387144.768605","391003.871729"
"Mixed","both","tile","26","M_jolt.wav","space","555.091526359","340","381011.793888","387928.256606","388694.997205","389461.430181","390228.172944","390994.431857","391760.723543","392527.384686","381777.73683","382544.740533","383311.410641","384077.437368","384844.177659","385611.247523","386377.348451","387144.768605","391769.909895"
"Mixed","both","cave","16","F_bluff.wav","None","728.639790323","340","395661.409343","387928.256606","388694.997205","389461.430181","390228.172944","390994.431857","391760.723543","392527.384686","381777.73683","382544.740533","383311.410641","384077.437368","384844.177659","385611.247523","386377.348451","387144.768605","392536.593298"
"Mixed","both","cave","16","M_knife.wav","None","722.500303295","340","395661.409343","387928.256606","388694.997205","389461.430181","390228.172944","390994.431857","391760.723543","392527.384686","396427.435142","382544.740533","383311.410641","384077.437368","384844.177659","385611.247523","386377.348451","387144.768605","395671.496615"
"Mixed","both","cave","16","F_cad.wav","None","725.032401271","340","395661.409343","387928.256606","388694.997205","389461.430181","390228.172944","390994.431857","391760.723543","392527.384686","396427.435142","397194.244377","383311.410641","384077.437368","384844.177659","385611.247523","386377.348451","387144.768605","396437.31187"
"Mixed","both","cave","16","F_cave.wav","None","726.975221653","340","395661.409343","387928.256606","388694.997205","389461.430181","390228.172944","390994.431857","391760.723543","392527.384686","396427.435142","397194.244377","397960.541628","384077.437368","384844.177659","385611.247523","386377.348451","387144.768605","397203.737735"
"Mixed","both","cave","16","F_jolt.wav","space","563.410040457","340","395661.409343","387928.256606","388694.997205","389461.430181","390228.172944","390994.431857","391760.723543","392527.384686","396427.435142","397194.244377","397960.541628","398727.43372","384844.177659","385611.247523","386377.348451","387144.768605","397969.371199"
"Mixed","both","cave","16","M_jaw.wav","None","728.315471206","340","395661.409343","387928.256606","388694.997205","389461.430181","390228.172944","390994.431857","391760.723543","392527.384686","396427.435142","397194.244377","397960.541628","398727.43372","399494.186377","385611.247523","386377.348451","387144.768605","398737.247068"
"Mixed","both","cave","16","M_cad.wav","None","729.720646981","340","395661.409343","387928.256606","388694.997205","389461.430181","390228.172944","390994.431857","391760.723543","392527.384686","396427.435142","397194.244377","397960.541628","398727.43372","399494.186377","400260.83639","386377.348451","387144.768605","399504.151837"
"Mixed","both","cave","16","M_cave.wav","None","731.410876382","340","395661.409343","387928.256606","388694.997205","389461.430181","390228.172944","390994.431857","391760.723543","392527.384686","396427.435142","397194.244377","397960.541628","398727.43372","399494.186377","400260.83639","401027.293172","387144.768605","400270.748363"
"Mixed","both","cave","16","M_dime.wav","space","575.524536893","340","395661.409343","387928.256606","388694.997205","389461.430181","390228.172944","390994.431857","391760.723543","392527.384686","396427.435142","397194.244377","397960.541628","398727.43372","399494.186377","400260.83639","401027.293172","401793.604953","401037.168663"
"Mixed","both","cave","16","F_romp.wav","None","735.154918861","340","395661.409343","402560.65534","388694.997205","389461.430181","390228.172944","390994.431857","391760.723543","392527.384686","396427.435142","397194.244377","397960.541628","398727.43372","399494.186377","400260.83639","401027.293172","401793.604953","401802.705047"
"Mixed","both","cave","16","F_cave.wav","None","736.485584173","340","395661.409343","402560.65534","403344.390676","389461.430181","390228.172944","390994.431857","391760.723543","392527.384686","396427.435142","397194.244377","397960.541628","398727.43372","399494.186377","400260.83639","401027.293172","401793.604953","402569.739976"
"Mixed","both","cave","16","F_cling.wav","space","506.34292094","340","395661.409343","402560.65534","403344.390676","404111.145188","390228.172944","390994.431857","391760.723543","392527.384686","396427.435142","397194.244377","397960.541628","398727.43372","399494.186377","400260.83639","401027.293172","401793.604953","403354.289355"
"Mixed","both","cave","16","F_dime.wav","None","719.903588761","340","395661.409343","402560.65534","403344.390676","404111.145188","404877.660403","390994.431857","391760.723543","392527.384686","396427.435142","397194.244377","397960.541628","398727.43372","399494.186377","400260.83639","401027.293172","401793.604953","404121.139401"
"Mixed","both","cave","16","M_jaw.wav","None","720.904988702","340","395661.409343","402560.65534","403344.390676","404111.145188","404877.660403","405644.396365","391760.723543","392527.384686","396427.435142","397194.244377","397960.541628","398727.43372","399494.186377","400260.83639","401027.293172","401793.604953","404887.798998"
"Mixed","both","cave","16","M_cave.wav","None","722.47556923","340","395661.409343","402560.65534","403344.390676","404111.145188","404877.660403","405644.396365","406410.583551","392527.384686","396427.435142","397194.244377","397960.541628","398727.43372","399494.186377","400260.83639","401027.293172","401793.604953","405654.645024"
"Mixed","both","cave","16","M_greet.wav","space","504.623938818","340","395661.409343","402560.65534","403344.390676","404111.145188","404877.660403","405644.396365","406410.583551","407177.190898","396427.435142","397194.244377","397960.541628","398727.43372","399494.186377","400260.83639","401027.293172","401793.604953","406419.865746"
"Mixed","both","done","45","F_greet.wav","None","726.679964922","340","410310.962964","402560.65534","403344.390676","404111.145188","404877.660403","405644.396365","406410.583551","407177.190898","396427.435142","397194.244377","397960.541628","398727.43372","399494.186377","400260.83639","401027.293172","401793.604953","407186.721975"
"Mixed","both","done","45","M_knife.wav","None","722.718576435","340","410310.962964","402560.65534","403344.390676","404111.145188","404877.660403","405644.396365","406410.583551","407177.190898","411076.922601","397194.244377","397960.541628","398727.43372","399494.186377","400260.83639","401027.293172","401793.604953","410320.950993"
"Mixed","both","done","45","F_gnash.wav","None","726.224558428","340","410310.962964","402560.65534","403344.390676","404111.145188","404877.660403","405644.396365","406410.583551","407177.190898","411076.922601","411843.504597","397960.541628","398727.43372","399494.186377","400260.83639","401027.293172","401793.604953","411086.062269"
"Mixed","both","done","45","M_done.wav","None","728.540547192","340","410310.962964","402560.65534","403344.390676","404111.145188","404877.660403","405644.396365","406410.583551","407177.190898","411076.922601","411843.504597","412610.51912","398727.43372","399494.186377","400260.83639","401027.293172","401793.604953","411852.34437"
"Mixed","both","done","45","M_reek.wav","space","551.413955633","340","410310.962964","402560.65534","403344.390676","404111.145188","404877.660403","405644.396365","406410.583551","407177.190898","411076.922601","411843.504597","412610.51912","413377.256318","399494.186377","400260.83639","401027.293172","401793.604953","412620.897939"
"Mixed","both","done","45","F_greet.wav","None","728.446559049","340","410310.962964","402560.65534","403344.390676","404111.145188","404877.660403","405644.396365","406410.583551","407177.190898","411076.922601","411843.504597","412610.51912","413377.256318","414143.80276","400260.83639","401027.293172","401793.604953","413386.89715"
"Mixed","both","done","45","F_done.wav","None","698.671374936","340","410310.962964","402560.65534","403344.390676","404111.145188","404877.660403","405644.396365","406410.583551","407177.190898","411076.922601","411843.504597","412610.51912","413377.256318","414143.80276","414910.025809","401027.293172","401793.604953","414184.875924"
"Mixed","both","done","45","F_bluff.wav","space","457.627705764","340","410310.962964","402560.65534","403344.390676","404111.145188","404877.660403","405644.396365","406410.583551","407177.190898","411076.922601","411843.504597","412610.51912","413377.256318","414143.80276","414910.025809","415676.984991","401793.604953","414954.642674"
"Mixed","both","done","45","F_jolt.wav","None","732.302830089","340","410310.962964","402560.65534","403344.390676","404111.145188","404877.660403","405644.396365","406410.583551","407177.190898","411076.922601","411843.504597","412610.51912","413377.256318","414143.80276","414910.025809","415676.984991","416443.059949","415686.470002"
"Mixed","both","done","45","F_done.wav","None","735.509536229","340","410310.962964","417226.777972","403344.390676","404111.145188","404877.660403","405644.396365","406410.583551","407177.190898","411076.922601","411843.504597","412610.51912","413377.256318","414143.80276","414910.025809","415676.984991","416443.059949","416452.221877"
"Mixed","both","done","45","M_romp.wav","space","552.532221656","340","410310.962964","417226.777972","417993.678102","404111.145188","404877.660403","405644.396365","406410.583551","407177.190898","411076.922601","411843.504597","412610.51912","413377.256318","414143.80276","414910.025809","415676.984991","416443.059949","417235.691328"
"Mixed","both","done","45","M_priest.wav","None","724.4582735","340","410310.962964","417226.777972","417993.678102","418760.362742","404877.660403","405644.396365","406410.583551","407177.190898","411076.922601","411843.504597","412610.51912","413377.256318","414143.80276","414910.025809","415676.984991","416443.059949","418003.310586"
"Mixed","both","done","45","M_done.wav","None","726.151594426","340","410310.962964","417226.777972","417993.678102","418760.362742","419526.406783","405644.396365","406410.583551","407177.190898","411076.922601","411843.504597","412610.51912","413377.256318","414143.80276","414910.025809","415676.984991","416443.059949","418770.023361"
"Mixed","both","done","45","M_gnash.wav","space","612.943318207","340","410310.962964","417226.777972","417993.678102","418760.362742","419526.406783","420293.616392","406410.583551","407177.190898","411076.922601","411843.504597","412610.51912","413377.256318","414143.80276","414910.025809","415676.984991","416443.059949","419535.183486"
"Mixed","both","done","45","M_park.wav","None","728.724502958","340","410310.962964","417226.777972","417993.678102","418760.362742","419526.406783","420293.616392","421060.134699","407177.190898","411076.922601","411843.504597","412610.51912","413377.256318","414143.80276","414910.025809","415676.984991","416443.059949","420302.664855"
"Mixed","both","done","45","F_lash.wav","None","730.145754758","340","410310.962964","417226.777972","417993.678102","418760.362742","419526.406783","420293.616392","421060.134699","421826.77791","411076.922601","411843.504597","412610.51912","413377.256318","414143.80276","414910.025809","415676.984991","416443.059949","421069.493877"
"Mixed","both","done","43","M_jolt.wav","None","731.81619728","340","424960.507619","417226.777972","417993.678102","418760.362742","419526.406783","420293.616392","421060.134699","421826.77791","411076.922601","411843.504597","412610.51912","413377.256318","414143.80276","414910.025809","415676.984991","416443.059949","421836.283944"
"Mixed","both","done","43","F_done.wav","None","723.831587005","340","424960.507619","417226.777972","417993.678102","418760.362742","419526.406783","420293.616392","421060.134699","421826.77791","425726.708718","411843.504597","412610.51912","413377.256318","414143.80276","414910.025809","415676.984991","416443.059949","424970.025401"
"Mixed","both","done","43","F_bluff.wav","space","515.746928751","340","424960.507619","417226.777972","417993.678102","418760.362742","419526.406783","420293.616392","421060.134699","421826.77791","425726.708718","426493.421183","412610.51912","413377.256318","414143.80276","414910.025809","415676.984991","416443.059949","425736.172395"
"Mixed","both","done","43","M_park.wav","None","725.703608245","340","424960.507619","417226.777972","417993.678102","418760.362742","419526.406783","420293.616392","421060.134699","421826.77791","425726.708718","426493.421183","427259.614861","413377.256318","414143.80276","414910.025809","415676.984991","416443.059949","426503.077473"
"Mixed","both","done","43","F_gnash.wav","None","729.091177694","340","424960.507619","417226.777972","417993.678102","418760.362742","419526.406783","420293.616392","421060.134699","421826.77791","425726.708718","426493.421183","427259.614861","428026.766656","414143.80276","414910.025809","415676.984991","416443.059949","427268.676"
"Mixed","both","done","43","F_done.wav","None","729.890998919","340","424960.507619","417226.777972","417993.678102","418760.362742","419526.406783","420293.616392","421060.134699","421826.77791","425726.708718","426493.421183","427259.614861","428026.766656","428793.348961","414910.025809","415676.984991","416443.059949","428036.382445"
"Mixed","both","done","43","F_romp.wav","space","513.082815334","340","424960.507619","417226.777972","417993.678102","418760.362742","419526.406783","420293.616392","421060.134699","421826.77791","425726.708718","426493.421183","427259.614861","428026.766656","428793.348961","429559.538311","415676.984991","416443.059949","428802.762243"
"Mixed","both","done","43","F_knife.wav","None","731.096141972","340","424960.507619","417226.777972","417993.678102","418760.362742","419526.406783","420293.616392","421060.134699","421826.77791","425726.708718","426493.421183","427259.614861","428026.766656","428793.348961","429559.538311","430326.246757","416443.059949","429569.839219"
