"Condition","Talker","Target","Trial","current_stimulus","response_response","response_time_response","subject_nr","time_Audio1","time_Audio10","time_Audio11","time_Audio12","time_Audio13","time_Audio14","time_Audio15","time_Audio16","time_Audio2","time_Audio3","time_Audio4","time_Audio5","time_Audio6","time_Audio7","time_Audio8","time_Audio9","time_response"
"Blocked","Female","cave","9","F_dime.wav","NA","NA","418","124292.581265","NA","NA","NA","NA","NA","NA","NA","NA","NA","NA","NA","NA","NA","NA","NA","NA"
"Blocked","Female","cave","9","F_cave.wav","None","739.585038038","418","124292.581265","NA","NA","NA","NA","NA","NA","NA","125059.252101","NA","NA","NA","NA","NA","NA","NA","124299.889769"
"Blocked","Female","cave","9","F_cling.wav","space","524.706712989","418","124292.581265","NA","NA","NA","NA","NA","NA","NA","125059.252101","125825.909494","NA","NA","NA","NA","NA","NA","125064.430504"
"Blocked","Female","cave","9","F_lash.wav","None","736.457247192","418","124292.581265","NA","NA","NA","NA","NA","NA","NA","125059.252101","125825.909494","126592.613644","NA","NA","NA","NA","NA","125831.099879"
"Blocked","Female","cave","9","F_cave.wav","None","733.80726052","418","124292.581265","NA","NA","NA","NA","NA","NA","NA","125059.252101","125825.909494","126592.613644","127359.241814","NA","NA","NA","NA","126597.792632"
"Blocked","Female","cave","9","F_depth.wav","space","488.632059813","418","124292.581265","NA","NA","NA","NA","NA","NA","NA","125059.252101","125825.909494","126592.613644","127359.241814","128126.401559","NA","NA","NA","127364.481879"
"Blocked","Female","cave","9","F_reek.wav","None","727.29918782","418","124292.581265","NA","NA","NA","NA","NA","NA","NA","125059.252101","125825.909494","126592.613644","127359.241814","128126.401559","128875.945672","NA","NA","128132.42306"
"Blocked","Female","cave","9","F_cave.wav","None","742.621943806","418","124292.581265","NA","NA","NA","NA","NA","NA","NA","125059.252101","125825.909494","126592.613644","127359.241814","128126.401559","128875.945672","129642.653914","NA","128881.210285"
"Blocked","Female","cave","9","F_greet.wav","space","549.248605455","418","124292.581265","NA","NA","NA","NA","NA","NA","NA","125059.252101","125825.909494","126592.613644","127359.241814","128126.401559","128875.945672","129642.653914","130409.36917","129647.839916"
"Blocked","Female","cave","9","F_park.wav","None","737.281642034","418","124292.581265","131176.014581","NA","NA","NA","NA","NA","NA","125059.252101","125825.909494","126592.613644","127359.241814","128126.401559","128875.945672","129642.653914","130409.36917","130414.658331"
"Blocked","Female","cave","9","F_jaw.wav","None","735.055103825","418","124292.581265","131176.014581","131942.684833","NA","NA","NA","NA","NA","125059.252101","125825.909494","126592.613644","127359.241814","128126.401559","128875.945672","129642.653914","130409.36917","131181.24851"
"Blocked","Female","cave","9","F_priest.wav","None","732.958610179","418","124292.581265","131176.014581","131942.684833","132709.396289","NA","NA","NA","NA","125059.252101","125825.909494","126592.613644","127359.241814","128126.401559","128875.945672","129642.653914","130409.36917","131947.69374"
"Blocked","Female","cave","9","F_reek.wav","None","730.235564763","418","124292.581265","131176.014581","131942.684833","132709.396289","133476.349716","NA","NA","NA","125059.252101","125825.909494","126592.613644","127359.241814","128126.401559","128875.945672","129642.653914","130409.36917","132714.593104"
"Blocked","Female","cave","9","F_bluff.wav","None","727.076797011","418","124292.581265","131176.014581","131942.684833","132709.396289","133476.349716","134226.124988","NA","NA","125059.252101","125825.909494","126592.613644","127359.241814","128126.401559","128875.945672","129642.653914","130409.36917","133481.835259"
"Blocked","Female","cave","9","F_cave.wav","None","741.509113055","418","124292.581265","131176.014581","131942.684833","132709.396289","133476.349716","134226.124988","134992.764262","NA","125059.252101","125825.909494","126592.613644","127359.241814","128126.401559","128875.945672","129642.653914","130409.36917","134231.488961"
"Blocked","Female","cave","9","F_jolt.wav","space","503.12691414","418","124292.581265","131176.014581","131942.684833","132709.396289","133476.349716","134226.124988","134992.764262","135759.578293","125059.252101","125825.909494","126592.613644","127359.241814","128126.401559","128875.945672","129642.653914","130409.36917","134997.952894"
"Blocked","Female","ball","2","F_depth.wav","None","736.659181553","418","138876.198748","131176.014581","131942.684833","132709.396289","133476.349716","134226.124988","134992.764262","135759.578293","125059.252101","125825.909494","126592.613644","127359.241814","128126.401559","128875.945672","129642.653914","130409.36917","135764.74267"
"Blocked","Female","ball","2","F_bluff.wav","None","742.044195278","418","138876.198748","131176.014581","131942.684833","132709.396289","133476.349716","134226.124988","134992.764262","135759.578293","139642.911373","125825.909494","126592.613644","127359.241814","128126.401559","128875.945672","129642.653914","130409.36917","138881.363124"
"Blocked","Female","ball","2","F_jaw.wav","None","739.338391726","418","138876.198748","131176.014581","131942.684833","132709.396289","133476.349716","134226.124988","134992.764262","135759.578293","139642.911373","140409.580164","126592.613644","127359.241814","128126.401559","128875.945672","129642.653914","130409.36917","139648.316843"
"Blocked","Female","ball","2","F_ball.wav","None","737.201569653","418","138876.198748","131176.014581","131942.684833","132709.396289","133476.349716","134226.124988","134992.764262","135759.578293","139642.911373","140409.580164","141176.285191","127359.241814","128126.401559","128875.945672","129642.653914","130409.36917","140414.621217"
"Blocked","Female","ball","2","F_gnash.wav","space","511.611664149","418","138876.198748","131176.014581","131942.684833","132709.396289","133476.349716","134226.124988","134992.764262","135759.578293","139642.911373","140409.580164","141176.285191","141942.940538","128126.401559","128875.945672","129642.653914","130409.36917","141181.372125"
"Blocked","Female","ball","2","F_romp.wav","None","731.979915274","418","138876.198748","131176.014581","131942.684833","132709.396289","133476.349716","134226.124988","134992.764262","135759.578293","139642.911373","140409.580164","141176.285191","141942.940538","142709.625986","128875.945672","129642.653914","130409.36917","141948.30831"
"Blocked","Female","ball","2","F_ball.wav","None","729.692592195","418","138876.198748","131176.014581","131942.684833","132709.396289","133476.349716","134226.124988","134992.764262","135759.578293","139642.911373","140409.580164","141176.285191","141942.940538","142709.625986","143476.560126","129642.653914","130409.36917","142714.784518"
"Blocked","Female","ball","2","F_cad.wav","space","578.719625097","418","138876.198748","131176.014581","131942.684833","132709.396289","133476.349716","134226.124988","134992.764262","135759.578293","139642.911373","140409.580164","141176.285191","141942.940538","142709.625986","143476.560126","144226.335981","130409.36917","143482.232699"
"Blocked","Female","ball","2","F_dime.wav","None","741.609057413","418","138876.198748","131176.014581","131942.684833","132709.396289","133476.349716","134226.124988","134992.764262","135759.578293","139642.911373","140409.580164","141176.285191","141942.940538","142709.625986","143476.560126","144226.335981","144993.018799","144231.287318"
"Blocked","Female","ball","2","F_park.wav","None","738.793957984","418","138876.198748","145759.684082","131942.684833","132709.396289","133476.349716","134226.124988","134992.764262","135759.578293","139642.911373","140409.580164","141176.285191","141942.940538","142709.625986","143476.560126","144226.335981","144993.018799","144998.40615"
"Blocked","Female","ball","2","F_ball.wav","None","736.358471775","418","138876.198748","145759.684082","146526.410443","132709.396289","133476.349716","134226.124988","134992.764262","135759.578293","139642.911373","140409.580164","141176.285191","141942.940538","142709.625986","143476.560126","144226.335981","144993.018799","145765.035489"
"Blocked","Female","ball","2","F_lash.wav","space","577.414503739","418","138876.198748","145759.684082","146526.410443","147293.109041","133476.349716","134226.124988","134992.764262","135759.578293","139642.911373","140409.580164","141176.285191","141942.940538","142709.625986","143476.560126","144226.335981","144993.018799","146531.554363"
"Blocked","Female","ball","2","F_romp.wav","None","731.58422913","418","138876.198748","145759.684082","146526.410443","147293.109041","148059.736334","134226.124988","134992.764262","135759.578293","139642.911373","140409.580164","141176.285191","141942.940538","142709.625986","143476.560126","144226.335981","144993.018799","147298.282477"
"Blocked","Female","ball","2","F_ball.wav","None","729.586218666","418","138876.198748","145759.684082","146526.410443","147293.109041","148059.736334","148809.796534","134992.764262","135759.578293","139642.911373","140409.580164","141176.285191","141942.940538","142709.625986","143476.560126","144226.335981","144993.018799","148064.730922"
"Blocked","Female","ball","2","F_cad.wav","space","533.83174981","418","138876.198748","145759.684082","146526.410443","147293.109041","148059.736334","148809.796534","149576.453635","135759.578293","139642.911373","140409.580164","141176.285191","141942.940538","142709.625986","143476.560126","144226.335981","144993.018799","148815.101768"
"Blocked","Female","ball","2","F_dime.wav","None","741.188823533","418","138876.198748","145759.684082","146526.410443","147293.109041","148059.736334","148809.796534","149576.453635","150343.160124","139642.911373","140409.580164","141176.285191","141942.940538","142709.625986","143476.560126","144226.335981","144993.018799","149581.544953"
"Blocked","Female","tile","16","F_cad.wav","None","738.852112741","418","153443.200335","145759.684082","146526.410443","147293.109041","148059.736334","148809.796534","149576.453635","150343.160124","139642.911373","140409.580164","141176.285191","141942.940538","142709.625986","143476.560126","144226.335981","144993.018799","150348.328591"
"Blocked","Female","tile","16","F_lash.wav","None","742.007665907","418","153443.200335","145759.684082","146526.410443","147293.109041","148059.736334","148809.796534","149576.453635","150343.160124","154209.951244","140409.580164","141176.285191","141942.940538","142709.625986","143476.560126","144226.335981","144993.018799","153448.327305"
"Blocked","Female","tile","16","F_dime.wav","None","739.600234256","418","153443.200335","145759.684082","146526.410443","147293.109041","148059.736334","148809.796534","149576.453635","150343.160124","154209.951244","154976.546683","141176.285191","141942.940538","142709.625986","143476.560126","144226.335981","144993.018799","154215.023274"
"Blocked","Female","tile","16","F_tile.wav","None","737.645766802","418","153443.200335","145759.684082","146526.410443","147293.109041","148059.736334","148809.796534","149576.453635","150343.160124","154209.951244","154976.546683","155743.301098","141942.940538","142709.625986","143476.560126","144226.335981","144993.018799","154981.807789"
"Blocked","Female","tile","16","F_romp.wav","space","624.479237289","418","153443.200335","145759.684082","146526.410443","147293.109041","148059.736334","148809.796534","149576.453635","150343.160124","154209.951244","154976.546683","155743.301098","156509.958783","142709.625986","143476.560126","144226.335981","144993.018799","155748.380142"
"Blocked","Female","tile","16","F_lash.wav","None","732.79349742","418","153443.200335","145759.684082","146526.410443","147293.109041","148059.736334","148809.796534","149576.453635","150343.160124","154209.951244","154976.546683","155743.301098","156509.958783","157276.639263","143476.560126","144226.335981","144993.018799","156514.986101"
"Blocked","Female","tile","16","F_reek.wav","None","730.501790815","418","153443.200335","145759.684082","146526.410443","147293.109041","148059.736334","148809.796534","149576.453635","150343.160124","154209.951244","154976.546683","155743.301098","156509.958783","157276.639263","158043.747282","144226.335981","144993.018799","157281.918195"
"Blocked","Female","tile","16","F_tile.wav","None","727.744846143","418","153443.200335","145759.684082","146526.410443","147293.109041","148059.736334","148809.796534","149576.453635","150343.160124","154209.951244","154976.546683","155743.301098","156509.958783","157276.639263","158043.747282","158793.313898","144993.018799","158049.198049"
"Blocked","Female","tile","16","F_jaw.wav","space","702.464183683","418","153443.200335","145759.684082","146526.410443","147293.109041","148059.736334","148809.796534","149576.453635","150343.160124","154209.951244","154976.546683","155743.301098","156509.958783","157276.639263","158043.747282","158793.313898","159560.027984","158798.390311"
"Blocked","Female","tile","16","F_tile.wav","None","740.167462325","418","153443.200335","160326.697651","146526.410443","147293.109041","148059.736334","148809.796534","149576.453635","150343.160124","154209.951244","154976.546683","155743.301098","156509.958783","157276.639263","158043.747282","158793.313898","159560.027984","159565.247009"
"Blocked","Female","tile","16","F_gnash.wav","None","738.150164352","418","153443.200335","160326.697651","161093.421382","147293.109041","148059.736334","148809.796534","149576.453635","150343.160124","154209.951244","154976.546683","155743.301098","156509.958783","157276.639263","158043.747282","158793.313898","159560.027984","160331.716202"
"Blocked","Female","tile","16","F_cling.wav","space","58.3853316748","418","153443.200335","160326.697651","161093.421382","161860.128747","148059.736334","148809.796534","149576.453635","150343.160124","154209.951244","154976.546683","155743.301098","156509.958783","157276.639263","158043.747282","158793.313898","159560.027984","161098.46185"
"Blocked","Female","tile","16","F_tile.wav","None","733.376798413","418","153443.200335","160326.697651","161093.421382","161860.128747","162626.773866","148809.796534","149576.453635","150343.160124","154209.951244","154976.546683","155743.301098","156509.958783","157276.639263","158043.747282","158793.313898","159560.027984","161865.144668"
"Blocked","Female","tile","16","F_cling.wav","space","524.847862476","418","153443.200335","160326.697651","161093.421382","161860.128747","162626.773866","163393.952899","149576.453635","150343.160124","154209.951244","154976.546683","155743.301098","156509.958783","157276.639263","158043.747282","158793.313898","159560.027984","162631.96279"
"Blocked","Female","tile","16","F_reek.wav","None","727.258859395","418","153443.200335","160326.697651","161093.421382","161860.128747","162626.773866","163393.952899","164143.452592","150343.160124","154209.951244","154976.546683","155743.301098","156509.958783","157276.639263","158043.747282","158793.313898","159560.027984","163399.633654"
"Blocked","Female","tile","16","F_park.wav","None","742.832645217","418","153443.200335","160326.697651","161093.421382","161860.128747","162626.773866","163393.952899","164143.452592","164910.188305","154209.951244","154976.546683","155743.301098","156509.958783","157276.639263","158043.747282","158793.313898","159560.027984","164148.598266"
"Blocked","Female","ball","6","F_gnash.wav","None","740.671275407","418","168026.925361","160326.697651","161093.421382","161860.128747","162626.773866","163393.952899","164143.452592","164910.188305","154209.951244","154976.546683","155743.301098","156509.958783","157276.639263","158043.747282","158793.313898","159560.027984","164915.145194"
"Blocked","Female","ball","6","F_ball.wav","None","741.993930864","418","168026.925361","160326.697651","161093.421382","161860.128747","162626.773866","163393.952899","164143.452592","164910.188305","168793.585969","154976.546683","155743.301098","156509.958783","157276.639263","158043.747282","158793.313898","159560.027984","168032.049117"
"Blocked","Female","ball","6","F_lash.wav","None","739.698425205","418","168026.925361","160326.697651","161093.421382","161860.128747","162626.773866","163393.952899","164143.452592","164910.188305","168793.585969","169560.274338","155743.301098","156509.958783","157276.639263","158043.747282","158793.313898","159560.027984","168798.713523"
"Blocked","Female","ball","6","F_romp.wav","None","737.398828254","418","168026.925361","160326.697651","161093.421382","161860.128747","162626.773866","163393.952899","164143.452592","164910.188305","168793.585969","169560.274338","170326.975859","156509.958783","157276.639263","158043.747282","158793.313898","159560.027984","169565.671042"
"Blocked","Female","ball","6","F_park.wav","space","696.575649112","418","168026.925361","160326.697651","161093.421382","161860.128747","162626.773866","163393.952899","164143.452592","164910.188305","168793.585969","169560.274338","170326.975859","171093.661014","157276.639263","158043.747282","158793.313898","159560.027984","170332.158354"
"Blocked","Female","ball","6","F_gnash.wav","None","732.688585067","418","168026.925361","160326.697651","161093.421382","161860.128747","162626.773866","163393.952899","164143.452592","164910.188305","168793.585969","169560.274338","170326.975859","171093.661014","171860.322791","158043.747282","158793.313898","159560.027984","171098.896696"
"Blocked","Female","ball","6","F_ball.wav","None","731.016416592","418","168026.925361","160326.697651","161093.421382","161860.128747","162626.773866","163393.952899","164143.452592","164910.188305","168793.585969","169560.274338","170326.975859","171093.661014","171860.322791","172627.122795","158793.313898","159560.027984","171865.077162"
"Blocked","Female","ball","6","F_bluff.wav","None","727.524793214","418","168026.925361","160326.697651","161093.421382","161860.128747","162626.773866","163393.952899","164143.452592","164910.188305","168793.585969","169560.274338","170326.975859","171093.661014","171860.322791","172627.122795","173377.027234","159560.027984","172632.985613"
"Blocked","Female","ball","6","F_ball.wav","space","46.5653039955","418","168026.925361","160326.697651","161093.421382","161860.128747","162626.773866","163393.952899","164143.452592","164910.188305","168793.585969","169560.274338","170326.975859","171093.661014","171860.322791","172627.122795","173377.027234","174143.703038","173382.149821"
"Blocked","Female","ball","6","F_cling.wav","None","740.668353057","418","168026.925361","174910.377965","161093.421382","161860.128747","162626.773866","163393.952899","164143.452592","164910.188305","168793.585969","169560.274338","170326.975859","171093.661014","171860.322791","172627.122795","173377.027234","174143.703038","174148.94661"
"Blocked","Female","ball","6","F_cling.wav","space","105.061684955","418","168026.925361","174910.377965","175677.143193","161860.128747","162626.773866","163393.952899","164143.452592","164910.188305","168793.585969","169560.274338","170326.975859","171093.661014","171860.322791","172627.122795","173377.027234","174143.703038","174915.659528"
"Blocked","Female","ball","6","F_dime.wav","None","736.174655982","418","168026.925361","174910.377965","175677.143193","176443.805846","162626.773866","163393.952899","164143.452592","164910.188305","168793.585969","169560.274338","170326.975859","171093.661014","171860.322791","172627.122795","173377.027234","174143.703038","175682.100082"
"Blocked","Female","ball","6","F_cling.wav","None","733.729233783","418","168026.925361","174910.377965","175677.143193","176443.805846","177210.426125","163393.952899","164143.452592","164910.188305","168793.585969","169560.274338","170326.975859","171093.661014","171860.322791","172627.122795","173377.027234","174143.703038","176449.059939"
"Blocked","Female","ball","6","F_depth.wav","None","731.767460455","418","168026.925361","174910.377965","175677.143193","176443.805846","177210.426125","177977.127938","164143.452592","164910.188305","168793.585969","169560.274338","170326.975859","171093.661014","171860.322791","172627.122795","173377.027234","174143.703038","177215.554265"
"Blocked","Female","ball","6","F_ball.wav","None","729.819129936","418","168026.925361","174910.377965","175677.143193","176443.805846","177210.426125","177977.127938","178744.174296","164910.188305","168793.585969","169560.274338","170326.975859","171093.661014","171860.322791","172627.122795","173377.027234","174143.703038","177982.222178"
"Blocked","Female","ball","6","F_jaw.wav","space","398.761625107","418","168026.925361","174910.377965","175677.143193","176443.805846","177210.426125","177977.127938","178744.174296","179493.82566","168793.585969","169560.274338","170326.975859","171093.661014","171860.322791","172627.122795","173377.027234","174143.703038","178749.911161"
"Blocked","Female","ball","1","F_reek.wav","None","741.702280369","418","182593.94156","174910.377965","175677.143193","176443.805846","177210.426125","177977.127938","178744.174296","179493.82566","168793.585969","169560.274338","170326.975859","171093.661014","171860.322791","172627.122795","173377.027234","174143.703038","179498.914055"
"Blocked","Female","ball","1","F_ball.wav","None","742.046240923","418","182593.94156","174910.377965","175677.143193","176443.805846","177210.426125","177977.127938","178744.174296","179493.82566","183360.610935","169560.274338","170326.975859","171093.661014","171860.322791","172627.122795","173377.027234","174143.703038","182598.991672"
"Blocked","Female","ball","1","F_gnash.wav","space","646.606099996","418","182593.94156","174910.377965","175677.143193","176443.805846","177210.426125","177977.127938","178744.174296","179493.82566","183360.610935","184127.269789","170326.975859","171093.661014","171860.322791","172627.122795","173377.027234","174143.703038","183366.051181"
"Blocked","Female","ball","1","F_depth.wav","None","737.339504558","418","182593.94156","174910.377965","175677.143193","176443.805846","177210.426125","177977.127938","178744.174296","179493.82566","183360.610935","184127.269789","184894.001702","171093.661014","171860.322791","172627.122795","173377.027234","174143.703038","184132.300322"
"Blocked","Female","ball","1","F_reek.wav","None","735.205020364","418","182593.94156","174910.377965","175677.143193","176443.805846","177210.426125","177977.127938","178744.174296","179493.82566","183360.610935","184127.269789","184894.001702","185660.652666","171860.322791","172627.122795","173377.027234","174143.703038","184898.94924"
"Blocked","Female","ball","1","F_lash.wav","None","733.007413417","418","182593.94156","174910.377965","175677.143193","176443.805846","177210.426125","177977.127938","178744.174296","179493.82566","183360.610935","184127.269789","184894.001702","185660.652666","186427.327885","172627.122795","173377.027234","174143.703038","185665.710084"
"Blocked","Female","ball","1","F_dime.wav","None","730.884034152","418","182593.94156","174910.377965","175677.143193","176443.805846","177210.426125","177977.127938","178744.174296","179493.82566","183360.610935","184127.269789","184894.001702","185660.652666","186427.327885","187194.050155","173377.027234","174143.703038","186432.389979"
"Blocked","Female","ball","1","F_ball.wav","None","728.944470682","418","182593.94156","174910.377965","175677.143193","176443.805846","177210.426125","177977.127938","178744.174296","179493.82566","183360.610935","184127.269789","184894.001702","185660.652666","186427.327885","187194.050155","187944.057168","174143.703038","187199.108157"
"Blocked","Female","ball","1","F_lash.wav","space","463.611486472","418","182593.94156","174910.377965","175677.143193","176443.805846","177210.426125","177977.127938","178744.174296","179493.82566","183360.610935","184127.269789","184894.001702","185660.652666","186427.327885","187194.050155","187944.057168","188710.771255","187948.9974"
"Blocked","Female","ball","1","F_greet.wav","None","740.484829497","418","182593.94156","189477.39621","175677.143193","176443.805846","177210.426125","177977.127938","178744.174296","179493.82566","183360.610935","184127.269789","184894.001702","185660.652666","186427.327885","187194.050155","187944.057168","188710.771255","188715.852052"
"Blocked","Female","ball","1","F_priest.wav","None","738.523932874","418","182593.94156","189477.39621","190244.098023","176443.805846","177210.426125","177977.127938","178744.174296","179493.82566","183360.610935","184127.269789","184894.001702","185660.652666","186427.327885","187194.050155","187944.057168","188710.771255","189482.527856"
"Blocked","Female","ball","1","F_ball.wav","None","736.218783461","418","182593.94156","189477.39621","190244.098023","191010.778502","177210.426125","177977.127938","178744.174296","179493.82566","183360.610935","184127.269789","184894.001702","185660.652666","186427.327885","187194.050155","187944.057168","188710.771255","190249.327567"
"Blocked","Female","ball","1","F_lash.wav","space","492.738253324","418","182593.94156","189477.39621","190244.098023","191010.778502","191777.43122","177977.127938","178744.174296","179493.82566","183360.610935","184127.269789","184894.001702","185660.652666","186427.327885","187194.050155","187944.057168","188710.771255","191015.838843"
"Blocked","Female","ball","1","F_lash.wav","None","732.580165895","418","182593.94156","189477.39621","190244.098023","191010.778502","191777.43122","192544.177744","178744.174296","179493.82566","183360.610935","184127.269789","184894.001702","185660.652666","186427.327885","187194.050155","187944.057168","188710.771255","191782.477825"
"Blocked","Female","ball","1","F_ball.wav","None","730.090616218","418","182593.94156","189477.39621","190244.098023","191010.778502","191777.43122","192544.177744","193311.131171","179493.82566","183360.610935","184127.269789","184894.001702","185660.652666","186427.327885","187194.050155","187944.057168","188710.771255","192549.423362"
"Blocked","Female","ball","1","F_cad.wav","space","575.797275435","418","182593.94156","189477.39621","190244.098023","191010.778502","191777.43122","192544.177744","193311.131171","194060.866991","183360.610935","184127.269789","184894.001702","185660.652666","186427.327885","187194.050155","187944.057168","188710.771255","193316.747927"
"Blocked","Female","done","24","F_priest.wav","None","742.025200007","418","197161.041631","189477.39621","190244.098023","191010.778502","191777.43122","192544.177744","193311.131171","194060.866991","183360.610935","184127.269789","184894.001702","185660.652666","186427.327885","187194.050155","187944.057168","188710.771255","194066.083093"
"Blocked","Female","done","24","F_priest.wav","None","741.757805012","418","197161.041631","189477.39621","190244.098023","191010.778502","191777.43122","192544.177744","193311.131171","194060.866991","197927.601709","184127.269789","184894.001702","185660.652666","186427.327885","187194.050155","187944.057168","188710.771255","197166.049661"
"Blocked","Female","done","24","F_jaw.wav","None","740.334036256","418","197161.041631","189477.39621","190244.098023","191010.778502","191777.43122","192544.177744","193311.131171","194060.866991","197927.601709","198694.287157","184894.001702","185660.652666","186427.327885","187194.050155","187944.057168","188710.771255","197932.733063"
"Blocked","Female","done","24","F_park.wav","None","738.14344295","418","197161.041631","189477.39621","190244.098023","191010.778502","191777.43122","192544.177744","193311.131171","194060.866991","197927.601709","198694.287157","199461.032221","185660.652666","186427.327885","187194.050155","187944.057168","188710.771255","198699.511442"
"Blocked","Female","done","24","F_done.wav","None","736.31463653","418","197161.041631","189477.39621","190244.098023","191010.778502","191777.43122","192544.177744","193311.131171","194060.866991","197927.601709","198694.287157","199461.032221","200227.684646","186427.327885","187194.050155","187944.057168","188710.771255","199466.027977"
"Blocked","Female","done","24","F_cling.wav","space","507.637853079","418","197161.041631","189477.39621","190244.098023","191010.778502","191777.43122","192544.177744","193311.131171","194060.866991","197927.601709","198694.287157","199461.032221","200227.684646","200994.342623","187194.050155","187944.057168","188710.771255","200232.889935"
"Blocked","Female","done","24","F_cad.wav","None","731.692356068","418","197161.041631","189477.39621","190244.098023","191010.778502","191777.43122","192544.177744","193311.131171","194060.866991","197927.601709","198694.287157","199461.032221","200227.684646","200994.342623","201761.076582","187944.057168","188710.771255","200999.368188"
"Blocked","Female","done","24","F_done.wav","None","729.775586924","418","197161.041631","189477.39621","190244.098023","191010.778502","191777.43122","192544.177744","193311.131171","194060.866991","197927.601709","198694.287157","199461.032221","200227.684646","200994.342623","201761.076582","202527.92685","188710.771255","201766.061818"
"Blocked","Female","done","24","F_cad.wav","space","630.617048288","418","197161.041631","189477.39621","190244.098023","191010.778502","191777.43122","192544.177744","193311.131171","194060.866991","197927.601709","198694.287157","199461.032221","200227.684646","200994.342623","201761.076582","202527.92685","203277.755308","202533.823275"
"Blocked","Female","done","24","F_done.wav","None","741.767740999","418","197161.041631","204044.419423","190244.098023","191010.778502","191777.43122","192544.177744","193311.131171","194060.866991","197927.601709","198694.287157","199461.032221","200227.684646","200994.342623","201761.076582","202527.92685","203277.755308","203282.798991"
"Blocked","Female","done","24","F_jaw.wav","space","426.684091663","418","197161.041631","204044.419423","204811.116852","191010.778502","191777.43122","192544.177744","193311.131171","194060.866991","197927.601709","198694.287157","199461.032221","200227.684646","200994.342623","201761.076582","202527.92685","203277.755308","204049.78135"
"Blocked","Female","done","24","F_lash.wav","None","737.127341972","418","197161.041631","204044.419423","204811.116852","205577.786227","191777.43122","192544.177744","193311.131171","194060.866991","197927.601709","198694.287157","199461.032221","200227.684646","200994.342623","201761.076582","202527.92685","203277.755308","204816.383218"
"Blocked","Female","done","24","F_done.wav","None","735.623793071","418","197161.041631","204044.419423","204811.116852","205577.786227","206344.483071","192544.177744","193311.131171","194060.866991","197927.601709","198694.287157","199461.032221","200227.684646","200994.342623","201761.076582","202527.92685","203277.755308","205582.817928"
"Blocked","Female","done","24","F_cad.wav","None","733.61847673","418","197161.041631","204044.419423","204811.116852","205577.786227","206344.483071","207111.171734","193311.131171","194060.866991","197927.601709","198694.287157","199461.032221","200227.684646","200994.342623","201761.076582","202527.92685","203277.755308","206349.643941"
"Blocked","Female","done","24","F_cad.wav","space","0.0201642124157","418","197161.041631","204044.419423","204811.116852","205577.786227","206344.483071","207111.171734","207877.873254","194060.866991","197927.601709","198694.287157","199461.032221","200227.684646","200994.342623","201761.076582","202527.92685","203277.755308","207116.341078"
"Blocked","Female","done","24","F_reek.wav","None","729.252486335","418","197161.041631","204044.419423","204811.116852","205577.786227","206344.483071","207111.171734","207877.873254","208644.798919","197927.601709","198694.287157","199461.032221","200227.684646","200994.342623","201761.076582","202527.92685","203277.755308","207882.983567"
"Blocked","Female","cave","12","F_reek.wav","None","726.202137757","418","211744.94755","204044.419423","204811.116852","205577.786227","206344.483071","207111.171734","207877.873254","208644.798919","197927.601709","198694.287157","199461.032221","200227.684646","200994.342623","201761.076582","202527.92685","203277.755308","208650.58634"
"Blocked","Female","cave","12","F_cave.wav","None","724.160292048","418","211744.94755","204044.419423","204811.116852","205577.786227","206344.483071","207111.171734","207877.873254","208644.798919","212494.702657","198694.287157","199461.032221","200227.684646","200994.342623","201761.076582","202527.92685","203277.755308","211750.470791"
"Blocked","Female","cave","12","F_jolt.wav","space","736.549301208","418","211744.94755","204044.419423","204811.116852","205577.786227","206344.483071","207111.171734","207877.873254","208644.798919","212494.702657","213261.318552","199461.032221","200227.684646","200994.342623","201761.076582","202527.92685","203277.755308","212499.850668"
"Blocked","Female","cave","12","F_dime.wav","None","736.725226656","418","211744.94755","204044.419423","204811.116852","205577.786227","206344.483071","207111.171734","207877.873254","208644.798919","212494.702657","213261.318552","214028.011598","200227.684646","200994.342623","201761.076582","202527.92685","203277.755308","213266.494618"
"Blocked","Female","cave","12","F_priest.wav","None","734.743289117","418","211744.94755","204044.419423","204811.116852","205577.786227","206344.483071","207111.171734","207877.873254","208644.798919","212494.702657","213261.318552","214028.011598","214794.697338","200994.342623","201761.076582","202527.92685","203277.755308","214033.035702"
"Blocked","Female","cave","12","F_reek.wav","None","732.671635442","418","211744.94755","204044.419423","204811.116852","205577.786227","206344.483071","207111.171734","207877.873254","208644.798919","212494.702657","213261.318552","214028.011598","214794.697338","215561.371973","201761.076582","202527.92685","203277.755308","214799.779596"
"Blocked","Female","cave","12","F_cave.wav","None","730.669241451","418","211744.94755","204044.419423","204811.116852","205577.786227","206344.483071","207111.171734","207877.873254","208644.798919","212494.702657","213261.318552","214028.011598","214794.697338","215561.371973","216328.350532","202527.92685","203277.755308","215566.456861"
"Blocked","Female","cave","12","F_priest.wav","space","470.362406428","418","211744.94755","204044.419423","204811.116852","205577.786227","206344.483071","207111.171734","207877.873254","208644.798919","212494.702657","213261.318552","214028.011598","214794.697338","215561.371973","216328.350532","217078.060635","203277.755308","216333.979854"
"Blocked","Female","cave","12","F_cling.wav","None","742.699970542","418","211744.94755","204044.419423","204811.116852","205577.786227","206344.483071","207111.171734","207877.873254","208644.798919","212494.702657","213261.318552","214028.011598","214794.697338","215561.371973","216328.350532","217078.060635","217844.848365","217083.208939"
"Blocked","Female","cave","12","F_jaw.wav","None","740.924935359","418","211744.94755","218611.486763","204811.116852","205577.786227","206344.483071","207111.171734","207877.873254","208644.798919","212494.702657","213261.318552","214028.011598","214794.697338","215561.371973","216328.350532","217078.060635","217844.848365","217849.690406"
"Blocked","Female","cave","12","F_cave.wav","None","738.31878393","418","211744.94755","218611.486763","219378.130713","205577.786227","206344.483071","207111.171734","207877.873254","208644.798919","212494.702657","213261.318552","214028.011598","214794.697338","215561.371973","216328.350532","217078.060635","217844.848365","218616.793165"
"Blocked","Female","cave","12","F_cling.wav","None","736.611255021","418","211744.94755","218611.486763","219378.130713","220144.908507","206344.483071","207111.171734","207877.873254","208644.798919","212494.702657","213261.318552","214028.011598","214794.697338","215561.371973","216328.350532","217078.060635","217844.848365","219383.274341"
"Blocked","Female","cave","12","F_depth.wav","space","0.021333153185","418","211744.94755","218611.486763","219378.130713","220144.908507","220911.515051","207111.171734","207877.873254","208644.798919","212494.702657","213261.318552","214028.011598","214794.697338","215561.371973","216328.350532","217078.060635","217844.848365","220150.175166"
"Blocked","Female","cave","12","F_cave.wav","None","732.097101498","418","211744.94755","218611.486763","219378.130713","220144.908507","220911.515051","221678.174198","207877.873254","208644.798919","212494.702657","213261.318552","214028.011598","214794.697338","215561.371973","216328.350532","217078.060635","217844.848365","220916.637638"
"Blocked","Female","cave","12","F_priest.wav","space","537.080525928","418","211744.94755","218611.486763","219378.130713","220144.908507","220911.515051","221678.174198","222444.907864","208644.798919","212494.702657","213261.318552","214028.011598","214794.697338","215561.371973","216328.350532","217078.060635","217844.848365","221683.203854"
"Blocked","Female","cave","12","F_cad.wav","None","729.277034072","418","211744.94755","218611.486763","219378.130713","220144.908507","220911.515051","221678.174198","222444.907864","223211.877656","212494.702657","213261.318552","214028.011598","214794.697338","215561.371973","216328.350532","217078.060635","217844.848365","222449.934306"
"Blocked","Female","tile","14","F_dime.wav","None","727.257398219","418","226311.613067","218611.486763","219378.130713","220144.908507","220911.515051","221678.174198","222444.907864","223211.877656","212494.702657","213261.318552","214028.011598","214794.697338","215561.371973","216328.350532","217078.060635","217844.848365","223217.608969"
"Blocked","Female","tile","14","F_depth.wav","None","742.083646999","418","226311.613067","218611.486763","219378.130713","220144.908507","220911.515051","221678.174198","222444.907864","223211.877656","227078.316633","213261.318552","214028.011598","214794.697338","215561.371973","216328.350532","217078.060635","217844.848365","226316.580477"
"Blocked","Female","tile","14","F_tile.wav","None","739.984523236","418","226311.613067","218611.486763","219378.130713","220144.908507","220911.515051","221678.174198","222444.907864","223211.877656","227078.316633","227845.049131","214028.011598","214794.697338","215561.371973","216328.350532","217078.060635","217844.848365","227083.609008"
"Blocked","Female","tile","14","F_greet.wav","None","738.368463873","418","226311.613067","218611.486763","219378.130713","220144.908507","220911.515051","221678.174198","222444.907864","223211.877656","227078.316633","227845.049131","228611.740131","214794.697338","215561.371973","216328.350532","217078.060635","217844.848365","227850.10801"
"Blocked","Female","tile","14","F_lash.wav","space","0.0204564475862","418","226311.613067","218611.486763","219378.130713","220144.908507","220911.515051","221678.174198","222444.907864","223211.877656","227078.316633","227845.049131","228611.740131","229378.374729","215561.371973","216328.350532","217078.060635","217844.848365","228616.686792"
"Blocked","Female","tile","14","F_lash.wav","None","734.163494943","418","226311.613067","218611.486763","219378.130713","220144.908507","220911.515051","221678.174198","222444.907864","223211.877656","227078.316633","227845.049131","228611.740131","229378.374729","230145.059593","216328.350532","217078.060635","217844.848365","229383.575343"
"Blocked","Female","tile","14","F_tile.wav","None","732.382030588","418","226311.613067","218611.486763","219378.130713","220144.908507","220911.515051","221678.174198","222444.907864","223211.877656","227078.316633","227845.049131","228611.740131","229378.374729","230145.059593","230911.741241","217078.060635","217844.848365","230150.221339"
"Blocked","Female","tile","14","F_bluff.wav","None","730.441298178","418","226311.613067","218611.486763","219378.130713","220144.908507","220911.515051","221678.174198","222444.907864","223211.877656","227078.316633","227845.049131","228611.740131","229378.374729","230145.059593","230911.741241","231678.450068","217844.848365","230917.173597"
"Blocked","Female","tile","14","F_reek.wav","space","0.6788618266","418","226311.613067","218611.486763","219378.130713","220144.908507","220911.515051","221678.174198","222444.907864","223211.877656","227078.316633","227845.049131","228611.740131","229378.374729","230145.059593","230911.741241","231678.450068","232428.504423","231683.544307"
"Blocked","Female","tile","14","F_priest.wav","None","742.941064389","418","226311.613067","233195.109799","219378.130713","220144.908507","220911.515051","221678.174198","222444.907864","223211.877656","227078.316633","227845.049131","228611.740131","229378.374729","230145.059593","230911.741241","231678.450068","232428.504423","232433.540508"
"Blocked","Female","tile","14","F_cling.wav","None","740.699914433","418","226311.613067","233195.109799","233961.825639","220144.908507","220911.515051","221678.174198","222444.907864","223211.877656","227078.316633","227845.049131","228611.740131","229378.374729","230145.059593","230911.741241","231678.450068","232428.504423","233200.569624"
"Blocked","Female","tile","14","F_tile.wav","None","739.39566978","418","226311.613067","233195.109799","233961.825639","234728.5181","220911.515051","221678.174198","222444.907864","223211.877656","227078.316633","227845.049131","228611.740131","229378.374729","230145.059593","230911.741241","231678.450068","232428.504423","233966.949686"
"Blocked","Female","tile","14","F_bluff.wav","space","630.551587654","418","226311.613067","233195.109799","233961.825639","234728.5181","235495.185429","221678.174198","222444.907864","223211.877656","227078.316633","227845.049131","228611.740131","229378.374729","230145.059593","230911.741241","231678.450068","232428.504423","234733.621691"
"Blocked","Female","tile","14","F_depth.wav","None","735.089295316","418","226311.613067","233195.109799","233961.825639","234728.5181","235495.185429","236261.878182","222444.907864","223211.877656","227078.316633","227845.049131","228611.740131","229378.374729","230145.059593","230911.741241","231678.450068","232428.504423","235500.251907"
"Blocked","Female","tile","14","F_tile.wav","None","733.268671476","418","226311.613067","233195.109799","233961.825639","234728.5181","235495.185429","236261.878182","237028.521548","223211.877656","227078.316633","227845.049131","228611.740131","229378.374729","230145.059593","230911.741241","231678.450068","232428.504423","236266.918943"
"Blocked","Female","tile","14","F_lash.wav","None","731.25867938","418","226311.613067","233195.109799","233961.825639","234728.5181","235495.185429","236261.878182","237028.521548","237795.278593","227078.316633","227845.049131","228611.740131","229378.374729","230145.059593","230911.741241","231678.450068","232428.504423","237033.825905"
"Blocked","Female","tile","18","F_jaw.wav","space","0.019871977187","418","240895.352996","233195.109799","233961.825639","234728.5181","235495.185429","236261.878182","237028.521548","237795.278593","227078.316633","227845.049131","228611.740131","229378.374729","230145.059593","230911.741241","231678.450068","232428.504423","237800.537654"
"Blocked","Female","tile","18","F_lash.wav","None","741.955355848","418","240895.352996","233195.109799","233961.825639","234728.5181","235495.185429","236261.878182","237028.521548","237795.278593","241661.984965","227845.049131","228611.740131","229378.374729","230145.059593","230911.741241","231678.450068","232428.504423","240900.541921"
"Blocked","Female","tile","18","F_park.wav","None","740.382547259","418","240895.352996","233195.109799","233961.825639","234728.5181","235495.185429","236261.878182","237028.521548","237795.278593","241661.984965","242428.672458","228611.740131","229378.374729","230145.059593","230911.741241","231678.450068","232428.504423","241667.021635"
"Blocked","Female","tile","18","F_bluff.wav","None","738.753337324","418","240895.352996","233195.109799","233961.825639","234728.5181","235495.185429","236261.878182","237028.521548","237795.278593","241661.984965","242428.672458","243195.403787","229378.374729","230145.059593","230911.741241","231678.450068","232428.504423","242433.528819"
"Blocked","Female","tile","18","F_cad.wav","None","736.738377231","418","240895.352996","233195.109799","233961.825639","234728.5181","235495.185429","236261.878182","237028.521548","237795.278593","241661.984965","242428.672458","243195.403787","243962.057089","230145.059593","230911.741241","231678.450068","232428.504423","243200.507963"
"Blocked","Female","tile","18","F_jaw.wav","None","735.212618471","418","240895.352996","233195.109799","233961.825639","234728.5181","235495.185429","236261.878182","237028.521548","237795.278593","241661.984965","242428.672458","243195.403787","243962.057089","244728.799814","230911.741241","231678.450068","232428.504423","243967.253903"
"Blocked","Female","tile","18","F_tile.wav","None","733.296141563","418","240895.352996","233195.109799","233961.825639","234728.5181","235495.185429","236261.878182","237028.521548","237795.278593","241661.984965","242428.672458","243195.403787","243962.057089","244728.799814","245495.384733","231678.450068","232428.504423","244734.04251"
"Blocked","Female","tile","18","F_depth.wav","space","447.610160892","418","240895.352996","233195.109799","233961.825639","234728.5181","235495.185429","236261.878182","237028.521548","237795.278593","241661.984965","242428.672458","243195.403787","243962.057089","244728.799814","245495.384733","246262.08713","232428.504423","245500.503229"
"Blocked","Female","tile","18","F_tile.wav","None","729.33928012","418","240895.352996","233195.109799","233961.825639","234728.5181","235495.185429","236261.878182","237028.521548","237795.278593","241661.984965","242428.672458","243195.403787","243962.057089","244728.799814","245495.384733","246262.08713","247029.080886","246267.181663"
"Blocked","Female","tile","18","F_park.wav","space","625.816212261","418","240895.352996","247778.813783","233961.825639","234728.5181","235495.185429","236261.878182","237028.521548","237795.278593","241661.984965","242428.672458","243195.403787","243962.057089","244728.799814","245495.384733","246262.08713","247029.080886","247034.267472"
"Blocked","Female","tile","18","F_tile.wav","None","742.257526803","418","240895.352996","247778.813783","248545.525824","234728.5181","235495.185429","236261.878182","237028.521548","237795.278593","241661.984965","242428.672458","243195.403787","243962.057089","244728.799814","245495.384733","246262.08713","247029.080886","247783.671897"
"Blocked","Female","tile","18","F_gnash.wav","space","557.264610579","418","240895.352996","247778.813783","248545.525824","249312.220331","235495.185429","236261.878182","237028.521548","237795.278593","241661.984965","242428.672458","243195.403787","243962.057089","244728.799814","245495.384733","246262.08713","247029.080886","248550.75946"
"Blocked","Female","tile","18","F_lash.wav","None","737.671483477","418","240895.352996","247778.813783","248545.525824","249312.220331","250078.868957","236261.878182","237028.521548","237795.278593","241661.984965","242428.672458","243195.403787","243962.057089","244728.799814","245495.384733","246262.08713","247029.080886","249317.352269"
"Blocked","Female","tile","18","F_romp.wav","None","736.132574146","418","240895.352996","247778.813783","248545.525824","249312.220331","250078.868957","250845.578076","237028.521548","237795.278593","241661.984965","242428.672458","243195.403787","243962.057089","244728.799814","245495.384733","246262.08713","247029.080886","250084.002064"
"Blocked","Female","tile","18","F_tile.wav","None","734.723417138","418","240895.352996","247778.813783","248545.525824","249312.220331","250078.868957","250845.578076","251612.246866","237795.278593","241661.984965","242428.672458","243195.403787","243962.057089","244728.799814","245495.384733","246262.08713","247029.080886","250850.744206"
"Blocked","Female","tile","18","F_jaw.wav","space","522.647040947","418","240895.352996","247778.813783","248545.525824","249312.220331","250078.868957","250845.578076","251612.246866","252378.959784","241661.984965","242428.672458","243195.403787","243962.057089","244728.799814","245495.384733","246262.08713","247029.080886","251617.357471"
"Blocked","Female","ball","5","F_cad.wav","None","730.716875752","418","255462.330036","247778.813783","248545.525824","249312.220331","250078.868957","250845.578076","251612.246866","252378.959784","241661.984965","242428.672458","243195.403787","243962.057089","244728.799814","245495.384733","246262.08713","247029.080886","252384.184361"
"Blocked","Female","ball","5","F_cad.wav","None","741.820927764","418","255462.330036","247778.813783","248545.525824","249312.220331","250078.868957","250845.578076","251612.246866","252378.959784","256229.040324","242428.672458","243195.403787","243962.057089","244728.799814","245495.384733","246262.08713","247029.080886","255467.517791"
"Blocked","Female","ball","5","F_ball.wav","None","739.885747818","418","255462.330036","247778.813783","248545.525824","249312.220331","250078.868957","250845.578076","251612.246866","252378.959784","256229.040324","256995.704146","243195.403787","243962.057089","244728.799814","245495.384733","246262.08713","247029.080886","256234.256133"
"Blocked","Female","ball","5","F_bluff.wav","space","570.905262099","418","255462.330036","247778.813783","248545.525824","249312.220331","250078.868957","250845.578076","251612.246866","252378.959784","256229.040324","256995.704146","257762.45447","243962.057089","244728.799814","245495.384733","246262.08713","247029.080886","257001.100265"
"Blocked","Female","ball","5","F_ball.wav","None","735.678441008","418","255462.330036","247778.813783","248545.525824","249312.220331","250078.868957","250845.578076","251612.246866","252378.959784","256229.040324","256995.704146","257762.45447","258529.068612","244728.799814","245495.384733","246262.08713","247029.080886","257767.402592"
"Blocked","Female","ball","5","F_cad.wav","space","485.869854911","418","255462.330036","247778.813783","248545.525824","249312.220331","250078.868957","250845.578076","251612.246866","252378.959784","256229.040324","256995.704146","257762.45447","258529.068612","259295.733603","245495.384733","246262.08713","247029.080886","258534.155254"
"Blocked","Female","ball","5","F_lash.wav","None","731.424376603","418","255462.330036","247778.813783","248545.525824","249312.220331","250078.868957","250845.578076","251612.246866","252378.959784","256229.040324","256995.704146","257762.45447","258529.068612","259295.733603","260062.436585","246262.08713","247029.080886","259300.899733"
"Blocked","Female","ball","5","F_romp.wav","None","729.751331422","418","255462.330036","247778.813783","248545.525824","249312.220331","250078.868957","250845.578076","251612.246866","252378.959784","256229.040324","256995.704146","257762.45447","258529.068612","259295.733603","260062.436585","260829.677279","247029.080886","260067.458935"
"Blocked","Female","ball","5","F_park.wav","None","726.603668601","418","255462.330036","247778.813783","248545.525824","249312.220331","250078.868957","250845.578076","251612.246866","252378.959784","256229.040324","256995.704146","257762.45447","258529.068612","259295.733603","260062.436585","260829.677279","261579.161192","260835.408591"
"Blocked","Female","ball","5","F_depth.wav","None","742.907457368","418","255462.330036","262345.87937","248545.525824","249312.220331","250078.868957","250845.578076","251612.246866","252378.959784","256229.040324","256995.704146","257762.45447","258529.068612","259295.733603","260062.436585","260829.677279","261579.161192","261584.242281"
"Blocked","Female","ball","5","F_ball.wav","None","741.222430554","418","255462.330036","262345.87937","263112.50491","249312.220331","250078.868957","250845.578076","251612.246866","252378.959784","256229.040324","256995.704146","257762.45447","258529.068612","259295.733603","260062.436585","260829.677279","261579.161192","262351.032349"
"Blocked","Female","ball","5","F_romp.wav","space","454.108005368","418","255462.330036","262345.87937","263112.50491","263879.210521","250078.868957","250845.578076","251612.246866","252378.959784","256229.040324","256995.704146","257762.45447","258529.068612","259295.733603","260062.436585","260829.677279","261579.161192","263117.838782"
"Blocked","Female","ball","5","F_dime.wav","None","737.009571279","418","255462.330036","262345.87937","263112.50491","263879.210521","264645.907366","250845.578076","251612.246866","252378.959784","256229.040324","256995.704146","257762.45447","258529.068612","259295.733603","260062.436585","260829.677279","261579.161192","263884.331355"
"Blocked","Female","ball","5","F_ball.wav","None","735.114719759","418","255462.330036","262345.87937","263112.50491","263879.210521","264645.907366","265412.553947","251612.246866","252378.959784","256229.040324","256995.704146","257762.45447","258529.068612","259295.733603","260062.436585","260829.677279","261579.161192","264651.266079"
"Blocked","Female","ball","5","F_knife.wav","space","474.32335916","418","255462.330036","262345.87937","263112.50491","263879.210521","264645.907366","265412.553947","266179.281768","252378.959784","256229.040324","256995.704146","257762.45447","258529.068612","259295.733603","260062.436585","260829.677279","261579.161192","265417.599383"
"Blocked","Female","ball","5","F_gnash.wav","None","731.206953789","418","255462.330036","262345.87937","263112.50491","263879.210521","264645.907366","265412.553947","266179.281768","266945.943837","256229.040324","256995.704146","257762.45447","258529.068612","259295.733603","260062.436585","260829.677279","261579.161192","266184.273142"
"Blocked","Female","tile","15","F_jolt.wav","None","729.423151555","418","270029.326363","262345.87937","263112.50491","263879.210521","264645.907366","265412.553947","266179.281768","266945.943837","256229.040324","256995.704146","257762.45447","258529.068612","259295.733603","260062.436585","260829.677279","261579.161192","266951.024634"
"Blocked","Female","tile","15","F_dime.wav","None","742.094167457","418","270029.326363","262345.87937","263112.50491","263879.210521","264645.907366","265412.553947","266179.281768","266945.943837","270795.962131","256995.704146","257762.45447","258529.068612","259295.733603","260062.436585","260829.677279","261579.161192","270034.218961"
"Blocked","Female","tile","15","F_cad.wav","None","740.578636922","418","270029.326363","262345.87937","263112.50491","263879.210521","264645.907366","265412.553947","266179.281768","266945.943837","270795.962131","271562.719761","257762.45447","258529.068612","259295.733603","260062.436585","260829.677279","261579.161192","270801.125338"
"Blocked","Female","tile","15","F_reek.wav","None","739.11570868","418","270029.326363","262345.87937","263112.50491","263879.210521","264645.907366","265412.553947","266179.281768","266945.943837","270795.962131","271562.719761","272329.398487","258529.068612","259295.733603","260062.436585","260829.677279","261579.161192","271567.84527"
"Blocked","Female","tile","15","F_depth.wav","None","737.889490763","418","270029.326363","262345.87937","263112.50491","263879.210521","264645.907366","265412.553947","266179.281768","266945.943837","270795.962131","271562.719761","272329.398487","273096.079259","259295.733603","260062.436585","260829.677279","261579.161192","272334.282902"
"Blocked","Female","tile","15","F_tile.wav","None","736.258235182","418","270029.326363","262345.87937","263112.50491","263879.210521","264645.907366","265412.553947","266179.281768","266945.943837","270795.962131","271562.719761","272329.398487","273096.079259","273862.774058","260062.436585","260829.677279","261579.161192","273101.195124"
"Blocked","Female","tile","15","F_bluff.wav","space","528.03439255","418","270029.326363","262345.87937","263112.50491","263879.210521","264645.907366","265412.553947","266179.281768","266945.943837","270795.962131","271562.719761","272329.398487","273096.079259","273862.774058","274629.529642","260829.677279","261579.161192","273867.820371"
"Blocked","Female","tile","15","F_jolt.wav","None","731.672776325","418","270029.326363","262345.87937","263112.50491","263879.210521","264645.907366","265412.553947","266179.281768","266945.943837","270795.962131","271562.719761","272329.398487","273096.079259","273862.774058","274629.529642","275396.136771","261579.161192","274634.903551"
"Blocked","Female","tile","15","F_knife.wav","None","730.557023224","418","270029.326363","262345.87937","263112.50491","263879.210521","264645.907366","265412.553947","266179.281768","266945.943837","270795.962131","271562.719761","272329.398487","273096.079259","273862.774058","274629.529642","275396.136771","276162.812282","275401.199157"
"Blocked","Female","tile","15","F_tile.wav","None","729.092341573","418","270029.326363","276929.615793","263112.50491","263879.210521","264645.907366","265412.553947","266179.281768","266945.943837","270795.962131","271562.719761","272329.398487","273096.079259","273862.774058","274629.529642","275396.136771","276162.812282","276167.87613"
"Blocked","Female","tile","15","F_romp.wav","space","524.592156882","418","270029.326363","276929.615793","277679.516141","263879.210521","264645.907366","265412.553947","266179.281768","266945.943837","270795.962131","271562.719761","272329.398487","273096.079259","273862.774058","274629.529642","275396.136771","276162.812282","276935.255051"
"Blocked","Female","tile","15","F_priest.wav","None","741.623084692","418","270029.326363","276929.615793","277679.516141","278446.318775","264645.907366","265412.553947","266179.281768","266945.943837","270795.962131","271562.719761","272329.398487","273096.079259","273862.774058","274629.529642","275396.136771","276162.812282","277684.639604"
"Blocked","Female","tile","15","F_tile.wav","None","740.16717009","418","270029.326363","276929.615793","277679.516141","278446.318775","279212.899602","265412.553947","266179.281768","266945.943837","270795.962131","271562.719761","272329.398487","273096.079259","273862.774058","274629.529642","275396.136771","276162.812282","278451.244979"
"Blocked","Female","tile","15","F_depth.wav","space","593.820866979","418","270029.326363","276929.615793","277679.516141","278446.318775","279212.899602","279979.587972","266179.281768","266945.943837","270795.962131","271562.719761","272329.398487","273096.079259","273862.774058","274629.529642","275396.136771","276162.812282","279217.96871"
"Blocked","Female","tile","15","F_tile.wav","None","736.143971309","418","270029.326363","276929.615793","277679.516141","278446.318775","279212.899602","279979.587972","280746.339465","266945.943837","270795.962131","271562.719761","272329.398487","273096.079259","273862.774058","274629.529642","275396.136771","276162.812282","279984.626395"
"Blocked","Female","tile","15","F_gnash.wav","None","734.188334916","418","270029.326363","276929.615793","277679.516141","278446.318775","279212.899602","279979.587972","280746.339465","281512.967342","270795.962131","271562.719761","272329.398487","273096.079259","273862.774058","274629.529642","275396.136771","276162.812282","280751.716588"
"Blocked","Female","tile","13","F_bluff.wav","space","93.6776718463","418","284613.083243","276929.615793","277679.516141","278446.318775","279212.899602","279979.587972","280746.339465","281512.967342","270795.962131","271562.719761","272329.398487","273096.079259","273862.774058","274629.529642","275396.136771","276162.812282","281518.128504"
"Blocked","Female","tile","13","F_priest.wav","None","742.010296022","418","284613.083243","276929.615793","277679.516141","278446.318775","279212.899602","279979.587972","280746.339465","281512.967342","285379.726901","271562.719761","272329.398487","273096.079259","273862.774058","274629.529642","275396.136771","276162.812282","284618.175729"
"Blocked","Female","tile","13","F_reek.wav","None","740.659001538","418","284613.083243","276929.615793","277679.516141","278446.318775","279212.899602","279979.587972","280746.339465","281512.967342","285379.726901","286146.410887","272329.398487","273096.079259","273862.774058","274629.529642","275396.136771","276162.812282","285384.805068"
"Blocked","Female","tile","13","F_reek.wav","None","739.324656683","418","284613.083243","276929.615793","277679.516141","278446.318775","279212.899602","279979.587972","280746.339465","281512.967342","285379.726901","286146.410887","286913.080846","273096.079259","273862.774058","274629.529642","275396.136771","276162.812282","286151.316928"
"Blocked","Female","tile","13","F_depth.wav","None","737.563941011","418","284613.083243","276929.615793","277679.516141","278446.318775","279212.899602","279979.587972","280746.339465","281512.967342","285379.726901","286146.410887","286913.080846","287679.778275","273862.774058","274629.529642","275396.136771","276162.812282","286918.296656"
"Blocked","Female","tile","13","F_tile.wav","None","736.326618164","418","284613.083243","276929.615793","277679.516141","278446.318775","279212.899602","279979.587972","280746.339465","281512.967342","285379.726901","286146.410887","286913.080846","287679.778275","288446.443267","274629.529642","275396.136771","276162.812282","287685.042012"
"Blocked","Female","tile","13","F_reek.wav","space","536.427380779","418","284613.083243","276929.615793","277679.516141","278446.318775","279212.899602","279979.587972","280746.339465","281512.967342","285379.726901","286146.410887","286913.080846","287679.778275","288446.443267","289213.204695","275396.136771","276162.812282","288451.345216"
"Blocked","Female","tile","13","F_tile.wav","None","732.477883659","418","284613.083243","276929.615793","277679.516141","278446.318775","279212.899602","279979.587972","280746.339465","281512.967342","285379.726901","286146.410887","286913.080846","287679.778275","288446.443267","289213.204695","289979.833742","276162.812282","289218.438916"
"Blocked","Female","tile","13","F_jolt.wav","space","586.851647504","418","284613.083243","276929.615793","277679.516141","278446.318775","279212.899602","279979.587972","280746.339465","281512.967342","285379.726901","286146.410887","286913.080846","287679.778275","288446.443267","289213.204695","289979.833742","290746.747133","289984.875087"
"Blocked","Female","tile","13","F_reek.wav","None","727.795695029","418","284613.083243","291496.528541","277679.516141","278446.318775","279212.899602","279979.587972","280746.339465","281512.967342","285379.726901","286146.410887","286913.080846","287679.778275","288446.443267","289213.204695","289979.833742","290746.747133","290752.488965"
"Blocked","Female","tile","13","F_tile.wav","None","743.745002781","418","284613.083243","291496.528541","292263.268929","278446.318775","279212.899602","279979.587972","280746.339465","281512.967342","285379.726901","286146.410887","286913.080846","287679.778275","288446.443267","289213.204695","289979.833742","290746.747133","291501.704314"
"Blocked","Female","tile","13","F_greet.wav","space","503.389048903","418","284613.083243","291496.528541","292263.268929","293029.949993","279212.899602","279979.587972","280746.339465","281512.967342","285379.726901","286146.410887","286913.080846","287679.778275","288446.443267","289213.204695","289979.833742","290746.747133","292268.314073"
"Blocked","Female","tile","13","F_tile.wav","None","739.751027499","418","284613.083243","291496.528541","292263.268929","293029.949993","293796.62229","279979.587972","280746.339465","281512.967342","285379.726901","286146.410887","286913.080846","287679.778275","288446.443267","289213.204695","289979.833742","290746.747133","293035.20204"
"Blocked","Female","tile","13","F_knife.wav","None","738.18640149","418","284613.083243","291496.528541","292263.268929","293029.949993","293796.62229","294563.251921","280746.339465","281512.967342","285379.726901","286146.410887","286913.080846","287679.778275","288446.443267","289213.204695","289979.833742","290746.747133","293801.860017"
"Blocked","Female","tile","13","F_knife.wav","space","179.343722091","418","284613.083243","291496.528541","292263.268929","293029.949993","293796.62229","294563.251921","295329.988509","281512.967342","285379.726901","286146.410887","286913.080846","287679.778275","288446.443267","289213.204695","289979.833742","290746.747133","294568.337393"
"Blocked","Female","tile","13","F_cling.wav","None","734.467127073","418","284613.083243","291496.528541","292263.268929","293029.949993","293796.62229","294563.251921","295329.988509","296096.622524","285379.726901","286146.410887","286913.080846","287679.778275","288446.443267","289213.204695","289979.833742","290746.747133","295335.243186"
"Blocked","Female","cave","7","F_cad.wav","None","733.217822593","418","299196.735502","291496.528541","292263.268929","293029.949993","293796.62229","294563.251921","295329.988509","296096.622524","285379.726901","286146.410887","286913.080846","287679.778275","288446.443267","289213.204695","289979.833742","290746.747133","296101.802681"
"Blocked","Female","cave","7","F_jaw.wav","None","741.350429469","418","299196.735502","291496.528541","292263.268929","293029.949993","293796.62229","294563.251921","295329.988509","296096.622524","299963.374776","286146.410887","286913.080846","287679.778275","288446.443267","289213.204695","289979.833742","290746.747133","299202.516494"
"Blocked","Female","cave","7","F_depth.wav","None","744.088963336","418","299196.735502","291496.528541","292263.268929","293029.949993","293796.62229","294563.251921","295329.988509","296096.622524","299963.374776","300730.10815","286913.080846","287679.778275","288446.443267","289213.204695","289979.833742","290746.747133","299965.091364"
"Blocked","Female","cave","7","F_park.wav","None","738.979527187","418","299196.735502","291496.528541","292263.268929","293029.949993","293796.62229","294563.251921","295329.988509","296096.622524","299963.374776","300730.10815","301496.797105","287679.778275","288446.443267","289213.204695","289979.833742","290746.747133","300735.393804"
"Blocked","Female","cave","7","F_knife.wav","None","737.459905364","418","299196.735502","291496.528541","292263.268929","293029.949993","293796.62229","294563.251921","295329.988509","296096.622524","299963.374776","300730.10815","301496.797105","302263.451575","288446.443267","289213.204695","289979.833742","290746.747133","301502.008239"
"Blocked","Female","cave","7","F_cave.wav","None","736.113578874","418","299196.735502","291496.528541","292263.268929","293029.949993","293796.62229","294563.251921","295329.988509","296096.622524","299963.374776","300730.10815","301496.797105","302263.451575","303030.156018","289213.204695","289979.833742","290746.747133","302268.566272"
"Blocked","Female","cave","7","F_lash.wav","space","512.407419963","418","299196.735502","291496.528541","292263.268929","293029.949993","293796.62229","294563.251921","295329.988509","296096.622524","299963.374776","300730.10815","301496.797105","302263.451575","303030.156018","303796.897283","289979.833742","290746.747133","303035.210514"
"Blocked","Female","cave","7","F_cave.wav","None","732.001540664","418","299196.735502","291496.528541","292263.268929","293029.949993","293796.62229","294563.251921","295329.988509","296096.622524","299963.374776","300730.10815","301496.797105","302263.451575","303030.156018","303796.897283","304563.503827","290746.747133","303801.843652"
"Blocked","Female","cave","7","F_knife.wav","None","730.075712234","418","299196.735502","291496.528541","292263.268929","293029.949993","293796.62229","294563.251921","295329.988509","296096.622524","299963.374776","300730.10815","301496.797105","302263.451575","303030.156018","303796.897283","304563.503827","305330.518916","304568.933553"
"Blocked","Female","cave","7","F_cave.wav","space","251.661940254","418","299196.735502","306080.222297","292263.268929","293029.949993","293796.62229","294563.251921","295329.988509","296096.622524","299963.374776","300730.10815","301496.797105","302263.451575","303030.156018","303796.897283","304563.503827","305330.518916","305335.930231"
"Blocked","Female","cave","7","F_lash.wav","None","742.868882353","418","299196.735502","306080.222297","306846.905407","293029.949993","293796.62229","294563.251921","295329.988509","296096.622524","299963.374776","300730.10815","301496.797105","302263.451575","303030.156018","303796.897283","304563.503827","305330.518916","306085.176849"
"Blocked","Female","cave","7","F_priest.wav","space","15.4317596279","418","299196.735502","306080.222297","306846.905407","307613.626507","293796.62229","294563.251921","295329.988509","296096.622524","299963.374776","300730.10815","301496.797105","302263.451575","303030.156018","303796.897283","304563.503827","305330.518916","306852.165344"
"Blocked","Female","cave","7","F_jolt.wav","None","738.27056516","418","299196.735502","306080.222297","306846.905407","307613.626507","308380.271627","294563.251921","295329.988509","296096.622524","299963.374776","300730.10815","301496.797105","302263.451575","303030.156018","303796.897283","304563.503827","305330.518916","307618.874755"
"Blocked","Female","cave","7","F_knife.wav","None","736.472735647","418","299196.735502","306080.222297","306846.905407","307613.626507","308380.271627","309146.976069","295329.988509","296096.622524","299963.374776","300730.10815","301496.797105","302263.451575","303030.156018","303796.897283","304563.503827","305330.518916","308386.187047"
"Blocked","Female","cave","7","F_cave.wav","None","736.034675432","418","299196.735502","306080.222297","306846.905407","307613.626507","308380.271627","309146.976069","309913.638431","296096.622524","299963.374776","300730.10815","301496.797105","302263.451575","303030.156018","303796.897283","304563.503827","305330.518916","309151.921854"
"Blocked","Female","cave","7","F_jaw.wav","space","532.84370339","418","299196.735502","306080.222297","306846.905407","307613.626507","308380.271627","309146.976069","309913.638431","310680.325924","299963.374776","300730.10815","301496.797105","302263.451575","303030.156018","303796.897283","304563.503827","305330.518916","309918.735301"
"Blocked","Female","tile","17","F_cad.wav","None","732.146196971","418","313763.728614","306080.222297","306846.905407","307613.626507","308380.271627","309146.976069","309913.638431","310680.325924","299963.374776","300730.10815","301496.797105","302263.451575","303030.156018","303796.897283","304563.503827","305330.518916","310685.508126"
"Blocked","Female","tile","17","F_reek.wav","None","742.132450239","418","313763.728614","306080.222297","306846.905407","307613.626507","308380.271627","309146.976069","309913.638431","310680.325924","314530.466664","300730.10815","301496.797105","302263.451575","303030.156018","303796.897283","304563.503827","305330.518916","313768.837466"
"Blocked","Female","tile","17","F_dime.wav","None","740.659878244","418","313763.728614","306080.222297","306846.905407","307613.626507","308380.271627","309146.976069","309913.638431","310680.325924","314530.466664","315297.081683","301496.797105","302263.451575","303030.156018","303796.897283","304563.503827","305330.518916","314535.580192"
"Blocked","Female","tile","17","F_tile.wav","None","739.454701243","418","313763.728614","306080.222297","306846.905407","307613.626507","308380.271627","309146.976069","309913.638431","310680.325924","314530.466664","315297.081683","316063.792555","302263.451575","303030.156018","303796.897283","304563.503827","305330.518916","315302.131211"
"Blocked","Female","tile","17","F_romp.wav","space","550.654840114","418","313763.728614","306080.222297","306846.905407","307613.626507","308380.271627","309146.976069","309913.638431","310680.325924","314530.466664","315297.081683","316063.792555","316830.493199","303030.156018","303796.897283","304563.503827","305330.518916","316068.848512"
"Blocked","Female","tile","17","F_greet.wav","None","735.667628314","418","313763.728614","306080.222297","306846.905407","307613.626507","308380.271627","309146.976069","309913.638431","310680.325924","314530.466664","315297.081683","316063.792555","316830.493199","317597.199103","303796.897283","304563.503827","305330.518916","316835.462362"
"Blocked","Female","tile","17","F_priest.wav","None","734.178106692","418","313763.728614","306080.222297","306846.905407","307613.626507","308380.271627","309146.976069","309913.638431","310680.325924","314530.466664","315297.081683","316063.792555","316830.493199","317597.199103","318363.871108","304563.503827","305330.518916","317602.330165"
"Blocked","Female","tile","17","F_romp.wav","None","732.782392492","418","313763.728614","306080.222297","306846.905407","307613.626507","308380.271627","309146.976069","309913.638431","310680.325924","314530.466664","315297.081683","316063.792555","316830.493199","317597.199103","318363.871108","319130.501908","305330.518916","318369.266058"
"Blocked","Female","tile","17","F_romp.wav","None","731.856884355","418","313763.728614","306080.222297","306846.905407","307613.626507","308380.271627","309146.976069","309913.638431","310680.325924","314530.466664","315297.081683","316063.792555","316830.493199","317597.199103","318363.871108","319130.501908","319897.20752","319135.507016"
"Blocked","Female","tile","17","F_tile.wav","None","730.673917211","418","313763.728614","320663.977423","306846.905407","307613.626507","308380.271627","309146.976069","309913.638431","310680.325924","314530.466664","315297.081683","316063.792555","316830.493199","317597.199103","318363.871108","319130.501908","319897.20752","319902.347348"
"Blocked","Female","tile","17","F_dime.wav","space","614.438336084","418","313763.728614","320663.977423","321414.048436","307613.626507","308380.271627","309146.976069","309913.638431","310680.325924","314530.466664","315297.081683","316063.792555","316830.493199","317597.199103","318363.871108","319130.501908","319897.20752","320669.021691"
"Blocked","Female","tile","17","F_tile.wav","None","743.136569581","418","313763.728614","320663.977423","321414.048436","322180.635401","308380.271627","309146.976069","309913.638431","310680.325924","314530.466664","315297.081683","316063.792555","316830.493199","317597.199103","318363.871108","319130.501908","319897.20752","321419.231223"
"Blocked","Female","tile","17","F_romp.wav","space","529.627657585","418","313763.728614","320663.977423","321414.048436","322180.635401","322947.269123","309146.976069","309913.638431","310680.325924","314530.466664","315297.081683","316063.792555","316830.493199","317597.199103","318363.871108","319130.501908","319897.20752","322185.814681"
"Blocked","Female","tile","17","F_tile.wav","None","739.567211705","418","313763.728614","320663.977423","321414.048436","322180.635401","322947.269123","323714.006296","309913.638431","310680.325924","314530.466664","315297.081683","316063.792555","316830.493199","317597.199103","318363.871108","319130.501908","319897.20752","322952.320989"
"Blocked","Female","tile","17","F_jolt.wav","space","516.37860092","418","313763.728614","320663.977423","321414.048436","322180.635401","322947.269123","323714.006296","324480.678009","310680.325924","314530.466664","315297.081683","316063.792555","316830.493199","317597.199103","318363.871108","319130.501908","319897.20752","323719.085924"
"Blocked","Female","tile","17","F_knife.wav","None","735.884174424","418","313763.728614","320663.977423","321414.048436","322180.635401","322947.269123","323714.006296","324480.678009","325247.321667","314530.466664","315297.081683","316063.792555","316830.493199","317597.199103","318363.871108","319130.501908","319897.20752","324485.752084"
"Blocked","Female","done","19","F_lash.wav","None","734.849078175","418","328347.397823","320663.977423","321414.048436","322180.635401","322947.269123","323714.006296","324480.678009","325247.321667","314530.466664","315297.081683","316063.792555","316830.493199","317597.199103","318363.871108","319130.501908","319897.20752","325252.452436"
"Blocked","Female","done","19","F_jolt.wav","None","741.994807568","418","328347.397823","320663.977423","321414.048436","322180.635401","322947.269123","323714.006296","324480.678009","325247.321667","329114.129736","315297.081683","316063.792555","316830.493199","317597.199103","318363.871108","319130.501908","319897.20752","328352.612756"
"Blocked","Female","done","19","F_done.wav","None","740.747256497","418","328347.397823","320663.977423","321414.048436","322180.635401","322947.269123","323714.006296","324480.678009","325247.321667","329114.129736","329880.846161","316063.792555","316830.493199","317597.199103","318363.871108","319130.501908","319897.20752","329119.209364"
"Blocked","Female","done","19","F_cling.wav","None","739.65283655","418","328347.397823","320663.977423","321414.048436","322180.635401","322947.269123","323714.006296","324480.678009","325247.321667","329114.129736","329880.846161","330647.503554","316830.493199","317597.199103","318363.871108","319130.501908","319897.20752","329885.880784"
"Blocked","Female","done","19","F_priest.wav","space","110.412214954","418","328347.397823","320663.977423","321414.048436","322180.635401","322947.269123","323714.006296","324480.678009","325247.321667","329114.129736","329880.846161","330647.503554","331414.149549","317597.199103","318363.871108","319130.501908","319897.20752","330652.967763"
"Blocked","Female","done","19","F_done.wav","None","735.592523928","418","328347.397823","320663.977423","321414.048436","322180.635401","322947.269123","323714.006296","324480.678009","325247.321667","329114.129736","329880.846161","330647.503554","331414.149549","332180.909225","318363.871108","319130.501908","319897.20752","331419.322693"
"Blocked","Female","done","19","F_knife.wav","None","734.23041675","418","328347.397823","320663.977423","321414.048436","322180.635401","322947.269123","323714.006296","324480.678009","325247.321667","329114.129736","329880.846161","330647.503554","331414.149549","332180.909225","332947.538271","319130.501908","319897.20752","332186.066003"
"Blocked","Female","done","19","F_done.wav","space","122.740731476","418","328347.397823","320663.977423","321414.048436","322180.635401","322947.269123","323714.006296","324480.678009","325247.321667","329114.129736","329880.846161","330647.503554","331414.149549","332180.909225","332947.538271","333714.207938","319897.20752","332952.619945"
"Blocked","Female","done","19","F_cad.wav","None","730.482795543","418","328347.397823","320663.977423","321414.048436","322180.635401","322947.269123","323714.006296","324480.678009","325247.321667","329114.129736","329880.846161","330647.503554","331414.149549","332180.909225","332947.538271","333714.207938","334480.917641","333719.372022"
"Blocked","Female","done","19","F_jaw.wav","space","0.0216253883555","418","328347.397823","335230.885495","321414.048436","322180.635401","322947.269123","323714.006296","324480.678009","325247.321667","329114.129736","329880.846161","330647.503554","331414.149549","332180.909225","332947.538271","333714.207938","334480.917641","334482.659362"
"Blocked","Female","done","19","F_greet.wav","None","743.228039126","418","328347.397823","335230.885495","335997.590815","322180.635401","322947.269123","323714.006296","324480.678009","325247.321667","329114.129736","329880.846161","330647.503554","331414.149549","332180.909225","332947.538271","333714.207938","334480.917641","335235.998731"
"Blocked","Female","done","19","F_jolt.wav","None","741.872945589","418","328347.397823","335230.885495","335997.590815","336764.279185","322947.269123","323714.006296","324480.678009","325247.321667","329114.129736","329880.846161","330647.503554","331414.149549","332180.909225","332947.538271","333714.207938","334480.917641","336002.93287"
"Blocked","Female","done","19","F_reek.wav","None","740.832296873","418","328347.397823","335230.885495","335997.590815","336764.279185","337530.96697","323714.006296","324480.678009","325247.321667","329114.129736","329880.846161","330647.503554","331414.149549","332180.909225","332947.538271","333714.207938","334480.917641","336769.364073"
"Blocked","Female","done","19","F_lash.wav","None","739.522499754","418","328347.397823","335230.885495","335997.590815","336764.279185","337530.96697","338297.658555","324480.678009","325247.321667","329114.129736","329880.846161","330647.503554","331414.149549","332180.909225","332947.538271","333714.207938","334480.917641","337536.108552"
"Blocked","Female","done","19","F_done.wav","None","738.294820661","418","328347.397823","335230.885495","335997.590815","336764.279185","337530.96697","338297.658555","339064.33582","325247.321667","329114.129736","329880.846161","330647.503554","331414.149549","332180.909225","332947.538271","333714.207938","334480.917641","338302.829068"
"Blocked","Female","done","19","F_cling.wav","space","533.846361557","418","328347.397823","335230.885495","335997.590815","336764.279185","337530.96697","338297.658555","339064.33582","339831.022729","329114.129736","329880.846161","330647.503554","331414.149549","332180.909225","332947.538271","333714.207938","334480.917641","339069.471265"
"Blocked","Female","cave","11","F_romp.wav","None","734.220480763","418","342947.762708","335230.885495","335997.590815","336764.279185","337530.96697","338297.658555","339064.33582","339831.022729","329114.129736","329880.846161","330647.503554","331414.149549","332180.909225","332947.538271","333714.207938","334480.917641","339836.282958"
"Blocked","Female","cave","11","F_lash.wav","None","742.778581749","418","342947.762708","335230.885495","335997.590815","336764.279185","337530.96697","338297.658555","339064.33582","339831.022729","343714.506894","329880.846161","330647.503554","331414.149549","332180.909225","332947.538271","333714.207938","334480.917641","342952.852272"
"Blocked","Female","cave","11","F_dime.wav","None","741.352767349","418","342947.762708","335230.885495","335997.590815","336764.279185","337530.96697","338297.658555","339064.33582","339831.022729","343714.506894","344481.120452","330647.503554","331414.149549","332180.909225","332947.538271","333714.207938","334480.917641","343719.628897"
"Blocked","Female","cave","11","F_cave.wav","None","740.413231932","418","342947.762708","335230.885495","335997.590815","336764.279185","337530.96697","338297.658555","339064.33582","339831.022729","343714.506894","344481.120452","345247.854119","331414.149549","332180.909225","332947.538271","333714.207938","334480.917641","344486.259989"
"Blocked","Female","cave","11","F_greet.wav","space","510.632092542","418","342947.762708","335230.885495","335997.590815","336764.279185","337530.96697","338297.658555","339064.33582","339831.022729","343714.506894","344481.120452","345247.854119","346014.556224","332180.909225","332947.538271","333714.207938","334480.917641","345252.626023"
"Blocked","Female","cave","11","F_lash.wav","None","736.759710382","418","342947.762708","335230.885495","335997.590815","336764.279185","337530.96697","338297.658555","339064.33582","339831.022729","343714.506894","344481.120452","345247.854119","346014.556224","346781.184393","332947.538271","333714.207938","334480.917641","346019.611012"
"Blocked","Female","cave","11","F_knife.wav","None","735.464817248","418","342947.762708","335230.885495","335997.590815","336764.279185","337530.96697","338297.658555","339064.33582","339831.022729","343714.506894","344481.120452","345247.854119","346014.556224","346781.184393","347547.858151","333714.207938","334480.917641","346786.377409"
"Blocked","Female","cave","11","F_knife.wav","None","734.577007421","418","342947.762708","335230.885495","335997.590815","336764.279185","337530.96697","338297.658555","339064.33582","339831.022729","343714.506894","344481.120452","345247.854119","346014.556224","346781.184393","347547.858151","348314.566393","334480.917641","347552.984829"
"Blocked","Female","cave","11","F_cad.wav","None","733.008874591","418","342947.762708","335230.885495","335997.590815","336764.279185","337530.96697","338297.658555","339064.33582","339831.022729","343714.506894","344481.120452","345247.854119","346014.556224","346781.184393","347547.858151","348314.566393","349081.238106","348319.951699"
"Blocked","Female","cave","11","F_cave.wav","None","732.022289345","418","342947.762708","349847.925307","335997.590815","336764.279185","337530.96697","338297.658555","339064.33582","339831.022729","343714.506894","344481.120452","345247.854119","346014.556224","346781.184393","347547.858151","348314.566393","349081.238106","349086.505641"
"Blocked","Female","cave","11","F_gnash.wav","None","730.993914498","418","342947.762708","349847.925307","350614.641732","336764.279185","337530.96697","338297.658555","339064.33582","339831.022729","343714.506894","344481.120452","345247.854119","346014.556224","346781.184393","347547.858151","348314.566393","349081.238106","349852.956424"
"Blocked","Female","cave","11","F_cave.wav","space","7.46894126676","418","342947.762708","349847.925307","350614.641732","351381.827486","337530.96697","338297.658555","339064.33582","339831.022729","343714.506894","344481.120452","345247.854119","346014.556224","346781.184393","347547.858151","348314.566393","349081.238106","350619.746492"
"Blocked","Female","cave","11","F_greet.wav","None","726.026212307","418","342947.762708","349847.925307","350614.641732","351381.827486","352131.353773","338297.658555","339064.33582","339831.022729","343714.506894","344481.120452","345247.854119","346014.556224","346781.184393","347547.858151","348314.566393","349081.238106","351387.557337"
"Blocked","Female","cave","11","F_knife.wav","None","741.829110344","418","342947.762708","349847.925307","350614.641732","351381.827486","352131.353773","352898.010289","339064.33582","339831.022729","343714.506894","344481.120452","345247.854119","346014.556224","346781.184393","347547.858151","348314.566393","349081.238106","352137.128336"
"Blocked","Female","cave","11","F_cave.wav","None","741.453588411","418","342947.762708","349847.925307","350614.641732","351381.827486","352131.353773","352898.010289","353664.70012","339831.022729","343714.506894","344481.120452","345247.854119","346014.556224","346781.184393","347547.858151","348314.566393","349081.238106","352903.05894"
"Blocked","Female","cave","11","F_lash.wav","None","740.494181016","418","342947.762708","349847.925307","350614.641732","351381.827486","352131.353773","352898.010289","353664.70012","354431.434663","343714.506894","344481.120452","345247.854119","346014.556224","346781.184393","347547.858151","348314.566393","349081.238106","353669.618727"
"Blocked","Female","ball","3","F_reek.wav","space","54.6041034468","418","357531.504391","349847.925307","350614.641732","351381.827486","352131.353773","352898.010289","353664.70012","354431.434663","343714.506894","344481.120452","345247.854119","346014.556224","346781.184393","347547.858151","348314.566393","349081.238106","354436.611313"
"Blocked","Female","ball","3","F_ball.wav","None","741.764234181","418","357531.504391","349847.925307","350614.641732","351381.827486","352131.353773","352898.010289","353664.70012","354431.434663","358298.16529","344481.120452","345247.854119","346014.556224","346781.184393","347547.858151","348314.566393","349081.238106","357536.740949"
"Blocked","Female","ball","3","F_depth.wav","None","740.655202484","418","357531.504391","349847.925307","350614.641732","351381.827486","352131.353773","352898.010289","353664.70012","354431.434663","358298.16529","359064.776218","345247.854119","346014.556224","346781.184393","347547.858151","348314.566393","349081.238106","358303.369995"
"Blocked","Female","ball","3","F_ball.wav","space","21.3293534816","418","357531.504391","349847.925307","350614.641732","351381.827486","352131.353773","352898.010289","353664.70012","354431.434663","358298.16529","359064.776218","359831.519821","346014.556224","346781.184393","347547.858151","348314.566393","349081.238106","359069.820194"
"Blocked","Female","ball","3","F_reek.wav","space","518.312611926","418","357531.504391","349847.925307","350614.641732","351381.827486","352131.353773","352898.010289","353664.70012","354431.434663","358298.16529","359064.776218","359831.519821","360598.146529","346781.184393","347547.858151","348314.566393","349081.238106","359836.789694"
"Blocked","Female","ball","3","F_ball.wav","None","734.922136917","418","357531.504391","349847.925307","350614.641732","351381.827486","352131.353773","352898.010289","353664.70012","354431.434663","358298.16529","359064.776218","359831.519821","360598.146529","361364.850095","347547.858151","348314.566393","349081.238106","360603.337791"
"Blocked","Female","ball","3","F_knife.wav","space","425.104853906","418","357531.504391","349847.925307","350614.641732","351381.827486","352131.353773","352898.010289","353664.70012","354431.434663","358298.16529","359064.776218","359831.519821","360598.146529","361364.850095","362131.627305","348314.566393","349081.238106","361370.021777"
"Blocked","Female","ball","3","F_jolt.wav","None","731.425837779","418","357531.504391","349847.925307","350614.641732","351381.827486","352131.353773","352898.010289","353664.70012","354431.434663","358298.16529","359064.776218","359831.519821","360598.146529","361364.850095","362131.627305","362898.238525","349081.238106","362136.540651"
"Blocked","Female","ball","3","F_bluff.wav","None","730.25309886","418","357531.504391","349847.925307","350614.641732","351381.827486","352131.353773","352898.010289","353664.70012","354431.434663","358298.16529","359064.776218","359831.519821","360598.146529","361364.850095","362131.627305","362898.238525","363664.971314","362903.374846"
"Blocked","Female","ball","3","F_jaw.wav","None","729.216249199","418","357531.504391","364432.034037","350614.641732","351381.827486","352131.353773","352898.010289","353664.70012","354431.434663","358298.16529","359064.776218","359831.519821","360598.146529","361364.850095","362131.627305","362898.238525","363664.971314","363670.342301"
"Blocked","Female","ball","3","F_jolt.wav","None","731.178606999","418","357531.504391","364432.034037","365198.635029","351381.827486","352131.353773","352898.010289","353664.70012","354431.434663","358298.16529","359064.776218","359831.519821","360598.146529","361364.850095","362131.627305","362898.238525","363664.971314","364434.218494"
"Blocked","Female","ball","3","F_gnash.wav","None","726.466318167","418","357531.504391","364432.034037","365198.635029","365948.289899","352131.353773","352898.010289","353664.70012","354431.434663","358298.16529","359064.776218","359831.519821","360598.146529","361364.850095","362131.627305","362898.238525","363664.971314","365204.64075"
"Blocked","Female","ball","3","F_ball.wav","None","743.262522854","418","357531.504391","364432.034037","365198.635029","365948.289899","366714.994342","352898.010289","353664.70012","354431.434663","358298.16529","359064.776218","359831.519821","360598.146529","361364.850095","362131.627305","362898.238525","363664.971314","365953.685141"
"Blocked","Female","ball","3","F_knife.wav","space","410.946946495","418","357531.504391","364432.034037","365198.635029","365948.289899","366714.994342","367481.680082","353664.70012","354431.434663","358298.16529","359064.776218","359831.519821","360598.146529","361364.850095","362131.627305","362898.238525","363664.971314","366720.146153"
"Blocked","Female","ball","3","F_jaw.wav","None","739.872305008","418","357531.504391","364432.034037","365198.635029","365948.289899","366714.994342","367481.680082","368248.379849","354431.434663","358298.16529","359064.776218","359831.519821","360598.146529","361364.850095","362131.627305","362898.238525","363664.971314","367486.718797"
"Blocked","Female","ball","3","F_gnash.wav","None","739.005536099","418","357531.504391","364432.034037","365198.635029","365948.289899","366714.994342","367481.680082","368248.379849","369015.052731","358298.16529","359064.776218","359831.519821","360598.146529","361364.850095","362131.627305","362898.238525","363664.971314","368253.39577"
"Blocked","Female","done","23","F_jaw.wav","None","737.626479295","418","372115.154896","364432.034037","365198.635029","365948.289899","366714.994342","367481.680082","368248.379849","369015.052731","358298.16529","359064.776218","359831.519821","360598.146529","361364.850095","362131.627305","362898.238525","363664.971314","369020.472813"
"Blocked","Female","done","23","F_done.wav","None","742.002990148","418","372115.154896","364432.034037","365198.635029","365948.289899","366714.994342","367481.680082","368248.379849","369015.052731","372881.811705","359064.776218","359831.519821","360598.146529","361364.850095","362131.627305","362898.238525","363664.971314","372120.364569"
"Blocked","Female","done","23","F_priest.wav","space","644.167399203","418","372115.154896","364432.034037","365198.635029","365948.289899","366714.994342","367481.680082","368248.379849","369015.052731","372881.811705","373648.51907","359831.519821","360598.146529","361364.850095","362131.627305","362898.238525","363664.971314","372886.886365"
"Blocked","Female","done","23","F_cad.wav","None","738.621247119","418","372115.154896","364432.034037","365198.635029","365948.289899","366714.994342","367481.680082","368248.379849","369015.052731","372881.811705","373648.51907","374415.19692","360598.146529","361364.850095","362131.627305","362898.238525","363664.971314","373653.485019"
"Blocked","Female","done","23","F_done.wav","None","737.423668228","418","372115.154896","364432.034037","365198.635029","365948.289899","366714.994342","367481.680082","368248.379849","369015.052731","372881.811705","373648.51907","374415.19692","375181.86571","361364.850095","362131.627305","362898.238525","363664.971314","374420.360127"
"Blocked","Female","done","23","F_depth.wav","space","511.671864553","418","372115.154896","364432.034037","365198.635029","365948.289899","366714.994342","367481.680082","368248.379849","369015.052731","372881.811705","373648.51907","374415.19692","375181.86571","375948.592363","362131.627305","362898.238525","363664.971314","375187.325828"
"Blocked","Female","done","23","F_done.wav","None","734.033450384","418","372115.154896","364432.034037","365198.635029","365948.289899","366714.994342","367481.680082","368248.379849","369015.052731","372881.811705","373648.51907","374415.19692","375181.86571","375948.592363","376715.27255","362898.238525","363664.971314","375953.624064"
"Blocked","Female","done","23","F_jaw.wav","space","578.642767301","418","372115.154896","364432.034037","365198.635029","365948.289899","366714.994342","367481.680082","368248.379849","369015.052731","372881.811705","373648.51907","374415.19692","375181.86571","375948.592363","376715.27255","377481.959459","363664.971314","376720.326169"
"Blocked","Female","done","23","F_jaw.wav","None","730.638849014","418","372115.154896","364432.034037","365198.635029","365948.289899","366714.994342","367481.680082","368248.379849","369015.052731","372881.811705","373648.51907","374415.19692","375181.86571","375948.592363","376715.27255","377481.959459","378248.608377","377487.106009"
"Blocked","Female","done","23","F_done.wav","None","729.671259041","418","372115.154896","379015.732177","365198.635029","365948.289899","366714.994342","367481.680082","368248.379849","369015.052731","372881.811705","373648.51907","374415.19692","375181.86571","375948.592363","376715.27255","377481.959459","378248.608377","378253.744407"
"Blocked","Female","done","23","F_bluff.wav","space","517.645731732","418","372115.154896","379015.732177","379765.325971","365948.289899","366714.994342","367481.680082","368248.379849","369015.052731","372881.811705","373648.51907","374415.19692","375181.86571","375948.592363","376715.27255","377481.959459","378248.608377","379021.351856"
"Blocked","Female","done","23","F_park.wav","None","742.399845232","418","372115.154896","379015.732177","379765.325971","380531.982779","366714.994342","367481.680082","368248.379849","369015.052731","372881.811705","373648.51907","374415.19692","375181.86571","375948.592363","376715.27255","377481.959459","378248.608377","379770.51431"
"Blocked","Female","done","23","F_bluff.wav","None","741.581295093","418","372115.154896","379015.732177","379765.325971","380531.982779","381298.703587","367481.680082","368248.379849","369015.052731","372881.811705","373648.51907","374415.19692","375181.86571","375948.592363","376715.27255","377481.959459","378248.608377","380537.053933"
"Blocked","Female","done","23","F_cad.wav","None","740.307735108","418","372115.154896","379015.732177","379765.325971","380531.982779","381298.703587","382065.462094","368248.379849","369015.052731","372881.811705","373648.51907","374415.19692","375181.86571","375948.592363","376715.27255","377481.959459","378248.608377","381303.879945"
"Blocked","Female","done","23","F_cad.wav","None","739.455577948","418","372115.154896","379015.732177","379765.325971","380531.982779","381298.703587","382065.462094","382832.091432","369015.052731","372881.811705","373648.51907","374415.19692","375181.86571","375948.592363","376715.27255","377481.959459","378248.608377","382070.549904"
"Blocked","Female","done","23","F_reek.wav","None","738.450581899","418","372115.154896","379015.732177","379765.325971","380531.982779","381298.703587","382065.462094","382832.091432","383598.759053","372881.811705","373648.51907","374415.19692","375181.86571","375948.592363","376715.27255","377481.959459","378248.608377","382837.284155"
"Blocked","Female","cave","8","F_cling.wav","None","737.377787336","418","386715.497863","379015.732177","379765.325971","380531.982779","381298.703587","382065.462094","382832.091432","383598.759053","372881.811705","373648.51907","374415.19692","375181.86571","375948.592363","376715.27255","377481.959459","378248.608377","383604.011392"
"Blocked","Female","cave","8","F_cave.wav","None","742.292302764","418","386715.497863","379015.732177","379765.325971","380531.982779","381298.703587","382065.462094","382832.091432","383598.759053","387482.192078","373648.51907","374415.19692","375181.86571","375948.592363","376715.27255","377481.959459","378248.608377","386720.691171"
"Blocked","Female","cave","8","F_priest.wav","None","741.46001758","418","386715.497863","379015.732177","379765.325971","380531.982779","381298.703587","382065.462094","382832.091432","383598.759053","387482.192078","388248.833106","374415.19692","375181.86571","375948.592363","376715.27255","377481.959459","378248.608377","387487.301806"
"Blocked","Female","cave","8","F_cad.wav","None","740.365013162","418","386715.497863","379015.732177","379765.325971","380531.982779","381298.703587","382065.462094","382832.091432","383598.759053","387482.192078","388248.833106","389015.516216","375181.86571","375948.592363","376715.27255","377481.959459","378248.608377","388254.238868"
"Blocked","Female","cave","8","F_cave.wav","None","739.603741074","418","386715.497863","379015.732177","379765.325971","380531.982779","381298.703587","382065.462094","382832.091432","383598.759053","387482.192078","388248.833106","389015.516216","389782.220658","375948.592363","376715.27255","377481.959459","378248.608377","389020.631496"
