"Condition","Talker","Target","Trial","current_stimulus","response_response","response_time_response","subject_nr","time_Audio1","time_Audio10","time_Audio11","time_Audio12","time_Audio13","time_Audio14","time_Audio15","time_Audio16","time_Audio2","time_Audio3","time_Audio4","time_Audio5","time_Audio6","time_Audio7","time_Audio8","time_Audio9","time_response"
"Mixed","Female","cave","22","F_romp.wav","NA","NA","435","194753.50657","NA","NA","NA","NA","NA","NA","NA","NA","NA","NA","NA","NA","NA","NA","NA","NA"
"Mixed","Female","cave","22","F_cave.wav","None","740.986655168","435","194753.50657","NA","NA","NA","NA","NA","NA","NA","195520.128586","NA","NA","NA","NA","NA","NA","NA","194760.429999"
"Mixed","Female","cave","22","M_dime.wav","space","625.315445152","435","194753.50657","NA","NA","NA","NA","NA","NA","NA","195520.128586","196286.7582","NA","NA","NA","NA","NA","NA","195525.332335"
"Mixed","Female","cave","22","M_dime.wav","None","737.511060302","435","194753.50657","NA","NA","NA","NA","NA","NA","NA","195520.128586","196286.7582","197053.295766","NA","NA","NA","NA","NA","196291.986787"
"Mixed","Female","cave","22","M_gnash.wav","None","735.249030728","435","194753.50657","NA","NA","NA","NA","NA","NA","NA","195520.128586","196286.7582","197053.295766","197820.002233","NA","NA","NA","NA","197058.53838"
"Mixed","Female","cave","22","F_cave.wav","None","732.863686782","435","194753.50657","NA","NA","NA","NA","NA","NA","NA","195520.128586","196286.7582","197053.295766","197820.002233","198586.608469","NA","NA","NA","197825.15952"
"Mixed","Female","cave","22","F_priest.wav","space","430.618138082","435","194753.50657","NA","NA","NA","NA","NA","NA","NA","195520.128586","196286.7582","197053.295766","197820.002233","198586.608469","199353.457828","NA","NA","198591.771309"
"Mixed","Female","cave","22","M_dime.wav","None","727.178660891","435","194753.50657","NA","NA","NA","NA","NA","NA","NA","195520.128586","196286.7582","197053.295766","197820.002233","198586.608469","199353.457828","200103.203894","NA","199359.054313"
"Mixed","Female","cave","22","M_cad.wav","None","742.148206333","435","194753.50657","NA","NA","NA","NA","NA","NA","NA","195520.128586","196286.7582","197053.295766","197820.002233","198586.608469","199353.457828","200103.203894","200869.830878","200108.305076"
"Mixed","Female","cave","22","M_jolt.wav","None","739.547792789","435","194753.50657","201636.451141","NA","NA","NA","NA","NA","NA","195520.128586","196286.7582","197053.295766","197820.002233","198586.608469","199353.457828","200103.203894","200869.830878","200875.126383"
"Mixed","Female","cave","22","F_cave.wav","None","737.213586322","435","194753.50657","201636.451141","202403.102963","NA","NA","NA","NA","NA","195520.128586","196286.7582","197053.295766","197820.002233","198586.608469","199353.457828","200103.203894","200869.830878","201641.756289"
"Mixed","Female","cave","22","F_jolt.wav","space","509.889987225","435","194753.50657","201636.451141","202403.102963","203169.68933","NA","NA","NA","NA","195520.128586","196286.7582","197053.295766","197820.002233","198586.608469","199353.457828","200103.203894","200869.830878","202408.191872"
"Mixed","Female","cave","22","M_park.wav","None","732.209419348","435","194753.50657","201636.451141","202403.102963","203169.68933","203936.357516","NA","NA","NA","195520.128586","196286.7582","197053.295766","197820.002233","198586.608469","199353.457828","200103.203894","200869.830878","203174.770057"
"Mixed","Female","cave","22","F_cave.wav","None","729.307148609","435","194753.50657","201636.451141","202403.102963","203169.68933","203936.357516","204703.213596","NA","NA","195520.128586","196286.7582","197053.295766","197820.002233","198586.608469","199353.457828","200103.203894","200869.830878","203941.867798"
"Mixed","Female","cave","22","M_cling.wav","space","544.963572589","435","194753.50657","201636.451141","202403.102963","203169.68933","203936.357516","204703.213596","205452.926349","NA","195520.128586","196286.7582","197053.295766","197820.002233","198586.608469","199353.457828","200103.203894","200869.830878","204708.9407"
"Mixed","Female","cave","22","F_dime.wav","None","741.303999712","435","194753.50657","201636.451141","202403.102963","203169.68933","203936.357516","204703.213596","205452.926349","206219.624633","195520.128586","196286.7582","197053.295766","197820.002233","198586.608469","199353.457828","200103.203894","200869.830878","205458.005615"
"Mixed","Male","ball","1","F_reek.wav","None","738.471568151","435","209336.139466","201636.451141","202403.102963","203169.68933","203936.357516","204703.213596","205452.926349","206219.624633","195520.128586","196286.7582","197053.295766","197820.002233","198586.608469","199353.457828","200103.203894","200869.830878","206225.028549"
"Mixed","Male","ball","1","M_knife.wav","None","741.807192444","435","209336.139466","201636.451141","202403.102963","203169.68933","203936.357516","204703.213596","205452.926349","206219.624633","210102.698948","196286.7582","197053.295766","197820.002233","198586.608469","199353.457828","200103.203894","200869.830878","209341.390261"
"Mixed","Male","ball","1","M_ball.wav","None","739.78770059","435","209336.139466","201636.451141","202403.102963","203169.68933","203936.357516","204703.213596","205452.926349","206219.624633","210102.698948","210869.359537","197053.295766","197820.002233","198586.608469","199353.457828","200103.203894","200869.830878","210107.795747"
"Mixed","Male","ball","1","M_bluff.wav","space","459.008201866","435","209336.139466","201636.451141","202403.102963","203169.68933","203936.357516","204703.213596","205452.926349","206219.624633","210102.698948","210869.359537","211636.009898","197820.002233","198586.608469","199353.457828","200103.203894","200869.830878","210874.399938"
"Mixed","Male","ball","1","M_ball.wav","None","735.011460638","435","209336.139466","201636.451141","202403.102963","203169.68933","203936.357516","204703.213596","205452.926349","206219.624633","210102.698948","210869.359537","211636.009898","212402.617011","198586.608469","199353.457828","200103.203894","200869.830878","211641.169815"
"Mixed","Male","ball","1","F_reek.wav","space","541.310019322","435","209336.139466","201636.451141","202403.102963","203169.68933","203936.357516","204703.213596","205452.926349","206219.624633","210102.698948","210869.359537","211636.009898","212402.617011","213169.251301","199353.457828","200103.203894","200869.830878","212407.98703"
"Mixed","Male","ball","1","M_ball.wav","None","730.039145004","435","209336.139466","201636.451141","202403.102963","203169.68933","203936.357516","204703.213596","205452.926349","206219.624633","210102.698948","210869.359537","211636.009898","212402.617011","213169.251301","213936.512097","200103.203894","200869.830878","213174.286735"
"Mixed","Male","ball","1","F_gnash.wav","space","391.381085796","435","209336.139466","201636.451141","202403.102963","203169.68933","203936.357516","204703.213596","205452.926349","206219.624633","210102.698948","210869.359537","211636.009898","212402.617011","213169.251301","213936.512097","214685.888804","200869.830878","213941.810231"
"Mixed","Male","ball","1","M_ball.wav","None","742.080412652","435","209336.139466","201636.451141","202403.102963","203169.68933","203936.357516","204703.213596","205452.926349","206219.624633","210102.698948","210869.359537","211636.009898","212402.617011","213169.251301","213936.512097","214685.888804","215452.47108","214690.856445"
"Mixed","Male","ball","1","F_dime.wav","space","371.303052936","435","209336.139466","216219.080823","202403.102963","203169.68933","203936.357516","204703.213596","205452.926349","206219.624633","210102.698948","210869.359537","211636.009898","212402.617011","213169.251301","213936.512097","214685.888804","215452.47108","215457.75022"
"Mixed","Male","ball","1","M_knife.wav","None","737.111019163","435","209336.139466","216219.080823","216985.789627","203169.68933","203936.357516","204703.213596","205452.926349","206219.624633","210102.698948","210869.359537","211636.009898","212402.617011","213169.251301","213936.512097","214685.888804","215452.47108","216224.21561"
"Mixed","Male","ball","1","F_priest.wav","None","734.66343361","435","209336.139466","216219.080823","216985.789627","217752.37687","203936.357516","204703.213596","205452.926349","206219.624633","210102.698948","210869.359537","211636.009898","212402.617011","213169.251301","213936.512097","214685.888804","215452.47108","216990.984025"
"Mixed","Male","ball","1","M_greet.wav","None","732.686605021","435","209336.139466","216219.080823","216985.789627","217752.37687","218518.99012","204703.213596","205452.926349","206219.624633","210102.698948","210869.359537","211636.009898","212402.617011","213169.251301","213936.512097","214685.888804","215452.47108","217757.357367"
"Mixed","Male","ball","1","F_reek.wav","None","730.433049652","435","209336.139466","216219.080823","216985.789627","217752.37687","218518.99012","219285.857596","205452.926349","206219.624633","210102.698948","210869.359537","211636.009898","212402.617011","213169.251301","213936.512097","214685.888804","215452.47108","218524.028476"
"Mixed","Male","ball","1","F_gnash.wav","None","727.420614185","435","209336.139466","216219.080823","216985.789627","217752.37687","218518.99012","219285.857596","220035.566843","206219.624633","210102.698948","210869.359537","211636.009898","212402.617011","213169.251301","213936.512097","214685.888804","215452.47108","219291.439762"
"Mixed","Male","ball","1","F_greet.wav","None","742.651983492","435","209336.139466","216219.080823","216985.789627","217752.37687","218518.99012","219285.857596","220035.566843","220802.271848","210102.698948","210869.359537","211636.009898","212402.617011","213169.251301","213936.512097","214685.888804","215452.47108","220040.447111"
"Mixed","Female","ball","7","F_lash.wav","None","740.140695259","435","223902.133689","216219.080823","216985.789627","217752.37687","218518.99012","219285.857596","220035.566843","220802.271848","210102.698948","210869.359537","211636.009898","212402.617011","213169.251301","213936.512097","214685.888804","215452.47108","220807.383842"
"Mixed","Female","ball","7","F_bluff.wav","None","741.628357395","435","223902.133689","216219.080823","216985.789627","217752.37687","218518.99012","219285.857596","220035.566843","220802.271848","224668.680022","210869.359537","211636.009898","212402.617011","213169.251301","213936.512097","214685.888804","215452.47108","223907.378056"
"Mixed","Female","ball","7","F_ball.wav","None","739.388536087","435","223902.133689","216219.080823","216985.789627","217752.37687","218518.99012","219285.857596","220035.566843","220802.271848","224668.680022","225435.313143","211636.009898","212402.617011","213169.251301","213936.512097","214685.888804","215452.47108","224673.886693"
"Mixed","Female","ball","7","F_jolt.wav","space","507.966926034","435","223902.133689","216219.080823","216985.789627","217752.37687","218518.99012","219285.857596","220035.566843","220802.271848","224668.680022","225435.313143","226202.009089","212402.617011","213169.251301","213936.512097","214685.888804","215452.47108","225440.305621"
"Mixed","Female","ball","7","M_greet.wav","None","734.678044315","435","223902.133689","216219.080823","216985.789627","217752.37687","218518.99012","219285.857596","220035.566843","220802.271848","224668.680022","225435.313143","226202.009089","226968.607728","213169.251301","213936.512097","214685.888804","215452.47108","226207.365374"
"Mixed","Female","ball","7","F_ball.wav","None","732.677254167","435","223902.133689","216219.080823","216985.789627","217752.37687","218518.99012","219285.857596","220035.566843","220802.271848","224668.680022","225435.313143","226202.009089","226968.607728","227735.239972","213936.512097","214685.888804","215452.47108","226973.764723"
"Mixed","Female","ball","7","M_bluff.wav","space","383.767738858","435","223902.133689","216219.080823","216985.789627","217752.37687","218518.99012","219285.857596","220035.566843","220802.271848","224668.680022","225435.313143","226202.009089","226968.607728","227735.239972","228502.280147","214685.888804","215452.47108","227740.328005"
"Mixed","Female","ball","7","M_depth.wav","None","727.171647752","435","223902.133689","216219.080823","216985.789627","217752.37687","218518.99012","219285.857596","220035.566843","220802.271848","224668.680022","225435.313143","226202.009089","226968.607728","227735.239972","228502.280147","229251.820202","215452.47108","228507.720882"
"Mixed","Female","ball","7","F_ball.wav","None","742.188824093","435","223902.133689","216219.080823","216985.789627","217752.37687","218518.99012","219285.857596","220035.566843","220802.271848","224668.680022","225435.313143","226202.009089","226968.607728","227735.239972","228502.280147","229251.820202","230018.49394","229257.045283"
"Mixed","Female","ball","7","M_romp.wav","space","356.277110168","435","223902.133689","230785.075339","216985.789627","217752.37687","218518.99012","219285.857596","220035.566843","220802.271848","224668.680022","225435.313143","226202.009089","226968.607728","227735.239972","228502.280147","229251.820202","230018.49394","230023.584602"
"Mixed","Female","ball","7","F_ball.wav","None","737.558983423","435","223902.133689","230785.075339","231551.723654","217752.37687","218518.99012","219285.857596","220035.566843","220802.271848","224668.680022","225435.313143","226202.009089","226968.607728","227735.239972","228502.280147","229251.820202","230018.49394","230790.21071"
"Mixed","Female","ball","7","M_lash.wav","space","502.869542754","435","223902.133689","230785.075339","231551.723654","232318.349177","218518.99012","219285.857596","220035.566843","220802.271848","224668.680022","225435.313143","226202.009089","226968.607728","227735.239972","228502.280147","229251.820202","230018.49394","231556.86224"
"Mixed","Female","ball","7","M_bluff.wav","None","733.010086064","435","223902.133689","230785.075339","231551.723654","232318.349177","233084.943141","219285.857596","220035.566843","220802.271848","224668.680022","225435.313143","226202.009089","226968.607728","227735.239972","228502.280147","229251.820202","230018.49394","232323.403313"
"Mixed","Female","ball","7","F_jolt.wav","None","730.595228491","435","223902.133689","230785.075339","231551.723654","232318.349177","233084.943141","233851.793669","220035.566843","220802.271848","224668.680022","225435.313143","226202.009089","226968.607728","227735.239972","228502.280147","229251.820202","230018.49394","233090.089324"
"Mixed","Female","ball","7","M_cad.wav","None","727.645326853","435","223902.133689","230785.075339","231551.723654","232318.349177","233084.943141","233851.793669","234601.586197","220802.271848","224668.680022","225435.313143","226202.009089","226968.607728","227735.239972","228502.280147","229251.820202","230018.49394","233857.393076"
"Mixed","Female","ball","7","M_jaw.wav","None","742.883709296","435","223902.133689","230785.075339","231551.723654","232318.349177","233084.943141","233851.793669","234601.586197","235368.260227","224668.680022","225435.313143","226202.009089","226968.607728","227735.239972","228502.280147","229251.820202","230018.49394","234606.723321"
"Mixed","Male","ball","6","M_lash.wav","None","740.629277287","435","238484.725675","230785.075339","231551.723654","232318.349177","233084.943141","233851.793669","234601.586197","235368.260227","224668.680022","225435.313143","226202.009089","226968.607728","227735.239972","228502.280147","229251.820202","230018.49394","235373.475081"
"Mixed","Male","ball","6","F_depth.wav","None","741.966156929","435","238484.725675","230785.075339","231551.723654","232318.349177","233084.943141","233851.793669","234601.586197","235368.260227","239251.355289","225435.313143","226202.009089","226968.607728","227735.239972","228502.280147","229251.820202","230018.49394","238489.870982"
"Mixed","Male","ball","6","F_romp.wav","None","739.967704492","435","238484.725675","230785.075339","231551.723654","232318.349177","233084.943141","233851.793669","234601.586197","235368.260227","239251.355289","240017.972046","226202.009089","226968.607728","227735.239972","228502.280147","229251.820202","230018.49394","239256.464945"
"Mixed","Male","ball","6","M_bluff.wav","None","738.14458054","435","238484.725675","230785.075339","231551.723654","232318.349177","233084.943141","233851.793669","234601.586197","235368.260227","239251.355289","240017.972046","240784.649583","226968.607728","227735.239972","228502.280147","229251.820202","230018.49394","240023.069721"
"Mixed","Male","ball","6","F_priest.wav","None","735.800731003","435","238484.725675","230785.075339","231551.723654","232318.349177","233084.943141","233851.793669","234601.586197","235368.260227","239251.355289","240017.972046","240784.649583","241551.243546","227735.239972","228502.280147","229251.820202","230018.49394","240789.66573"
"Mixed","Male","ball","6","M_ball.wav","None","733.781823579","435","238484.725675","230785.075339","231551.723654","232318.349177","233084.943141","233851.793669","234601.586197","235368.260227","239251.355289","240017.972046","240784.649583","241551.243546","242317.864978","228502.280147","229251.820202","230018.49394","241556.325442"
"Mixed","Male","ball","6","M_greet.wav","space","432.020181477","435","238484.725675","230785.075339","231551.723654","232318.349177","233084.943141","233851.793669","234601.586197","235368.260227","239251.355289","240017.972046","240784.649583","241551.243546","242317.864978","243084.516508","229251.820202","230018.49394","242322.900997"
"Mixed","Male","ball","6","F_dime.wav","None","729.197568311","435","238484.725675","230785.075339","231551.723654","232318.349177","233084.943141","233851.793669","234601.586197","235368.260227","239251.355289","240017.972046","240784.649583","241551.243546","242317.864978","243084.516508","243834.470046","230018.49394","243089.540254"
"Mixed","Male","ball","6","M_depth.wav","None","743.432779647","435","238484.725675","230785.075339","231551.723654","232318.349177","233084.943141","233851.793669","234601.586197","235368.260227","239251.355289","240017.972046","240784.649583","241551.243546","242317.864978","243084.516508","243834.470046","244601.049107","243839.797987"
"Mixed","Male","ball","6","M_ball.wav","None","741.57634328","435","238484.725675","245367.717586","231551.723654","232318.349177","233084.943141","233851.793669","234601.586197","235368.260227","239251.355289","240017.972046","240784.649583","241551.243546","242317.864978","243084.516508","243834.470046","244601.049107","244606.188862"
"Mixed","Male","ball","6","F_priest.wav","space","421.928858716","435","238484.725675","245367.717586","246134.376713","232318.349177","233084.943141","233851.793669","234601.586197","235368.260227","239251.355289","240017.972046","240784.649583","241551.243546","242317.864978","243084.516508","243834.470046","244601.049107","245372.743961"
"Mixed","Male","ball","6","M_ball.wav","None","737.006114286","435","238484.725675","245367.717586","246134.376713","246901.00545","233084.943141","233851.793669","234601.586197","235368.260227","239251.355289","240017.972046","240784.649583","241551.243546","242317.864978","243084.516508","243834.470046","244601.049107","246139.246462"
"Mixed","Male","ball","6","F_knife.wav","space","456.226031136","435","238484.725675","245367.717586","246134.376713","246901.00545","247667.632434","233851.793669","234601.586197","235368.260227","239251.355289","240017.972046","240784.649583","241551.243546","242317.864978","243084.516508","243834.470046","244601.049107","246906.290435"
"Mixed","Male","ball","6","M_ball.wav","None","732.09983905","435","238484.725675","245367.717586","246134.376713","246901.00545","247667.632434","248434.266724","234601.586197","235368.260227","239251.355289","240017.972046","240784.649583","241551.243546","242317.864978","243084.516508","243834.470046","244601.049107","247672.775987"
"Mixed","Male","ball","6","F_priest.wav","space","403.187413285","435","238484.725675","245367.717586","246134.376713","246901.00545","247667.632434","248434.266724","249201.097089","235368.260227","239251.355289","240017.972046","240784.649583","241551.243546","242317.864978","243084.516508","243834.470046","244601.049107","248439.235241"
"Mixed","Male","ball","6","F_reek.wav","None","727.490161153","435","238484.725675","245367.717586","246134.376713","246901.00545","247667.632434","248434.266724","249201.097089","249950.846077","239251.355289","240017.972046","240784.649583","241551.243546","242317.864978","243084.516508","243834.470046","244601.049107","249205.939954"
"Mixed","Male","done","39","F_jolt.wav","None","742.173628962","435","253050.693015","245367.717586","246134.376713","246901.00545","247667.632434","248434.266724","249201.097089","249950.846077","239251.355289","240017.972046","240784.649583","241551.243546","242317.864978","243084.516508","243834.470046","244601.049107","249955.932356"
"Mixed","Male","done","39","F_knife.wav","None","741.927584662","435","253050.693015","245367.717586","246134.376713","246901.00545","247667.632434","248434.266724","249201.097089","249950.846077","253817.341915","240017.972046","240784.649583","241551.243546","242317.864978","243084.516508","243834.470046","244601.049107","253055.763807"
"Mixed","Male","done","39","F_knife.wav","None","739.404023439","435","253050.693015","245367.717586","246134.376713","246901.00545","247667.632434","248434.266724","249201.097089","249950.846077","253817.341915","254583.905196","240784.649583","241551.243546","242317.864978","243084.516508","243834.470046","244601.049107","253822.59388"
"Mixed","Male","done","39","F_bluff.wav","None","737.965745491","435","253050.693015","245367.717586","246134.376713","246901.00545","247667.632434","248434.266724","249201.097089","249950.846077","253817.341915","254583.905196","255350.535979","241551.243546","242317.864978","243084.516508","243834.470046","244601.049107","254588.91287"
"Mixed","Male","done","39","M_done.wav","None","735.681799852","435","253050.693015","245367.717586","246134.376713","246901.00545","247667.632434","248434.266724","249201.097089","249950.846077","253817.341915","254583.905196","255350.535979","256117.208549","242317.864978","243084.516508","243834.470046","244601.049107","255355.864212"
"Mixed","Male","done","39","M_depth.wav","space","479.266823058","435","253050.693015","245367.717586","246134.376713","246901.00545","247667.632434","248434.266724","249201.097089","249950.846077","253817.341915","254583.905196","255350.535979","256117.208549","256883.829396","243084.516508","243834.470046","244601.049107","256122.429538"
"Mixed","Male","done","39","M_done.wav","None","731.248911499","435","253050.693015","245367.717586","246134.376713","246901.00545","247667.632434","248434.266724","249201.097089","249950.846077","253817.341915","254583.905196","255350.535979","256117.208549","256883.829396","257650.477419","243834.470046","244601.049107","256888.97441"
"Mixed","Male","done","39","M_knife.wav","space","474.100185031","435","253050.693015","245367.717586","246134.376713","246901.00545","247667.632434","248434.266724","249201.097089","249950.846077","253817.341915","254583.905196","255350.535979","256117.208549","256883.829396","257650.477419","258400.402613","244601.049107","257655.61542"
"Mixed","Male","done","39","M_done.wav","None","743.483332692","435","253050.693015","245367.717586","246134.376713","246901.00545","247667.632434","248434.266724","249201.097089","249950.846077","253817.341915","254583.905196","255350.535979","256117.208549","256883.829396","257650.477419","258400.402613","259167.081026","258405.330804"
"Mixed","Male","done","39","M_park.wav","space","429.29323922","435","253050.693015","259933.654243","246134.376713","246901.00545","247667.632434","248434.266724","249201.097089","249950.846077","253817.341915","254583.905196","255350.535979","256117.208549","256883.829396","257650.477419","258400.402613","259167.081026","259172.269288"
"Mixed","Male","done","39","F_cad.wav","None","738.650110983","435","253050.693015","259933.654243","260700.299929","246901.00545","247667.632434","248434.266724","249201.097089","249950.846077","253817.341915","254583.905196","255350.535979","256117.208549","256883.829396","257650.477419","258400.402613","259167.081026","259938.672436"
"Mixed","Male","done","39","F_priest.wav","None","736.388373618","435","253050.693015","259933.654243","260700.299929","261466.911717","247667.632434","248434.266724","249201.097089","249950.846077","253817.341915","254583.905196","255350.535979","256117.208549","256883.829396","257650.477419","258400.402613","259167.081026","260705.400818"
"Mixed","Male","done","39","M_done.wav","None","734.46326693","435","253050.693015","259933.654243","260700.299929","261466.911717","262233.585456","248434.266724","249201.097089","249950.846077","253817.341915","254583.905196","255350.535979","256117.208549","256883.829396","257650.477419","258400.402613","259167.081026","261472.16865"
"Mixed","Male","done","39","M_greet.wav","space","530.574656619","435","253050.693015","259933.654243","260700.299929","261466.911717","262233.585456","263000.216823","249201.097089","249950.846077","253817.341915","254583.905196","255350.535979","256117.208549","256883.829396","257650.477419","258400.402613","259167.081026","262238.706508"
"Mixed","Male","done","39","F_reek.wav","None","730.107815325","435","253050.693015","259933.654243","260700.299929","261466.911717","262233.585456","263000.216823","263767.199431","249950.846077","253817.341915","254583.905196","255350.535979","256117.208549","256883.829396","257650.477419","258400.402613","259167.081026","263005.354824"
"Mixed","Male","done","39","F_lash.wav","None","727.151192757","435","253050.693015","259933.654243","260700.299929","261466.911717","262233.585456","263000.216823","263767.199431","264516.821599","253817.341915","254583.905196","255350.535979","256117.208549","256883.829396","257650.477419","258400.402613","259167.081026","263773.044883"
"Mixed","Male","tile","29","F_reek.wav","None","742.842507105","435","267633.367698","259933.654243","260700.299929","261466.911717","262233.585456","263000.216823","263767.199431","264516.821599","253817.341915","254583.905196","255350.535979","256117.208549","256883.829396","257650.477419","258400.402613","259167.081026","264521.889176"
"Mixed","Male","tile","29","M_tile.wav","None","742.092393433","435","267633.367698","259933.654243","260700.299929","261466.911717","262233.585456","263000.216823","263767.199431","264516.821599","268399.919583","254583.905196","255350.535979","256117.208549","256883.829396","257650.477419","258400.402613","259167.081026","267638.527907"
"Mixed","Male","tile","29","M_depth.wav","space","395.889657608","435","267633.367698","259933.654243","260700.299929","261466.911717","262233.585456","263000.216823","263767.199431","264516.821599","268399.919583","269166.639783","255350.535979","256117.208549","256883.829396","257650.477419","258400.402613","259167.081026","268404.951218"
"Mixed","Male","tile","29","F_priest.wav","None","737.676745717","435","267633.367698","259933.654243","260700.299929","261466.911717","262233.585456","263000.216823","263767.199431","264516.821599","268399.919583","269166.639783","269933.239007","256117.208549","256883.829396","257650.477419","258400.402613","259167.081026","269171.788888"
"Mixed","Male","tile","29","M_greet.wav","None","735.573096194","435","267633.367698","259933.654243","260700.299929","261466.911717","262233.585456","263000.216823","263767.199431","264516.821599","268399.919583","269166.639783","269933.239007","270699.809009","256883.829396","257650.477419","258400.402613","259167.081026","269938.590324"
"Mixed","Male","tile","29","M_tile.wav","None","734.270405603","435","267633.367698","259933.654243","260700.299929","261466.911717","262233.585456","263000.216823","263767.199431","264516.821599","268399.919583","269166.639783","269933.239007","270699.809009","271466.477195","257650.477419","258400.402613","259167.081026","270704.94175"
"Mixed","Male","tile","29","F_jolt.wav","space","457.074328755","435","267633.367698","259933.654243","260700.299929","261466.911717","262233.585456","263000.216823","263767.199431","264516.821599","268399.919583","269166.639783","269933.239007","270699.809009","271466.477195","272233.088692","258400.402613","259167.081026","271471.504447"
"Mixed","Male","tile","29","F_romp.wav","None","730.320839426","435","267633.367698","259933.654243","260700.299929","261466.911717","262233.585456","263000.216823","263767.199431","264516.821599","268399.919583","269166.639783","269933.239007","270699.809009","271466.477195","272233.088692","273000.018409","259167.081026","272238.16036"
"Mixed","Male","tile","29","F_priest.wav","None","727.425581827","435","267633.367698","259933.654243","260700.299929","261466.911717","262233.585456","263000.216823","263767.199431","264516.821599","268399.919583","269166.639783","269933.239007","270699.809009","271466.477195","272233.088692","273000.018409","273749.675058","273005.675675"
"Mixed","Male","tile","29","M_tile.wav","None","743.175046784","435","267633.367698","274516.371297","260700.299929","261466.911717","262233.585456","263000.216823","263767.199431","264516.821599","268399.919583","269166.639783","269933.239007","270699.809009","271466.477195","272233.088692","273000.018409","273749.675058","273754.749941"
"Mixed","Male","tile","29","F_cling.wav","space","462.813998693","435","267633.367698","274516.371297","275282.936916","261466.911717","262233.585456","263000.216823","263767.199431","264516.821599","268399.919583","269166.639783","269933.239007","270699.809009","271466.477195","272233.088692","273000.018409","273749.675058","274521.51222"
"Mixed","Male","tile","29","M_tile.wav","None","738.999891295","435","267633.367698","274516.371297","275282.936916","276049.593998","262233.585456","263000.216823","263767.199431","264516.821599","268399.919583","269166.639783","269933.239007","270699.809009","271466.477195","272233.088692","273000.018409","273749.675058","275287.934362"
"Mixed","Male","tile","29","M_greet.wav","space","393.558957709","435","267633.367698","274516.371297","275282.936916","276049.593998","276816.214553","263000.216823","263767.199431","264516.821599","268399.919583","269166.639783","269933.239007","270699.809009","271466.477195","272233.088692","273000.018409","273749.675058","276054.655146"
"Mixed","Male","tile","29","F_greet.wav","None","734.687979595","435","267633.367698","274516.371297","275282.936916","276049.593998","276816.214553","277582.85907","263767.199431","264516.821599","268399.919583","269166.639783","269933.239007","270699.809009","271466.477195","272233.088692","273000.018409","273749.675058","276821.352262"
"Mixed","Male","tile","29","M_cling.wav","None","732.951351023","435","267633.367698","274516.371297","275282.936916","276049.593998","276816.214553","277582.85907","278349.452741","264516.821599","268399.919583","269166.639783","269933.239007","270699.809009","271466.477195","272233.088692","273000.018409","273749.675058","277587.932784"
"Mixed","Male","tile","29","F_lash.wav","None","730.914034109","435","267633.367698","274516.371297","275282.936916","276049.593998","276816.214553","277582.85907","278349.452741","279116.139921","268399.919583","269166.639783","269933.239007","270699.809009","271466.477195","272233.088692","273000.018409","273749.675058","278354.698277"
"Mixed","Female","tile","31","M_reek.wav","None","728.729733488","435","282216.329042","274516.371297","275282.936916","276049.593998","276816.214553","277582.85907","278349.452741","279116.139921","268399.919583","269166.639783","269933.239007","270699.809009","271466.477195","272233.088692","273000.018409","273749.675058","279121.52835"
"Mixed","Female","tile","31","F_tile.wav","None","724.667957085","435","282216.329042","274516.371297","275282.936916","276049.593998","276816.214553","277582.85907","278349.452741","279116.139921","282965.934261","269166.639783","269933.239007","270699.809009","271466.477195","272233.088692","273000.018409","273749.675058","282221.855104"
"Mixed","Female","tile","31","M_cad.wav","space","452.621569846","435","282216.329042","274516.371297","275282.936916","276049.593998","276816.214553","277582.85907","278349.452741","279116.139921","282965.934261","283732.599233","269933.239007","270699.809009","271466.477195","272233.088692","273000.018409","273749.675058","282971.041872"
"Mixed","Female","tile","31","F_depth.wav","None","737.121538867","435","282216.329042","274516.371297","275282.936916","276049.593998","276816.214553","277582.85907","278349.452741","279116.139921","282965.934261","283732.599233","284499.198749","270699.809009","271466.477195","272233.088692","273000.018409","273749.675058","283738.290103"
"Mixed","Female","tile","31","M_lash.wav","None","736.041515447","435","282216.329042","274516.371297","275282.936916","276049.593998","276816.214553","277582.85907","278349.452741","279116.139921","282965.934261","283732.599233","284499.198749","285265.826317","271466.477195","272233.088692","273000.018409","273749.675058","284504.155869"
"Mixed","Female","tile","31","F_lash.wav","None","733.860721393","435","282216.329042","274516.371297","275282.936916","276049.593998","276816.214553","277582.85907","278349.452741","279116.139921","282965.934261","283732.599233","284499.198749","285265.826317","286032.457684","272233.088692","273000.018409","273749.675058","285271.10575"
"Mixed","Female","tile","31","F_tile.wav","None","732.483223986","435","282216.329042","274516.371297","275282.936916","276049.593998","276816.214553","277582.85907","278349.452741","279116.139921","282965.934261","283732.599233","284499.198749","285265.826317","286032.457684","286799.12704","273000.018409","273749.675058","286037.502177"
"Mixed","Female","tile","31","M_dime.wav","space","478.612555624","435","282216.329042","274516.371297","275282.936916","276049.593998","276816.214553","277582.85907","278349.452741","279116.139921","282965.934261","283732.599233","284499.198749","285265.826317","286032.457684","286799.12704","287566.168675","273749.675058","286800.779803"
"Mixed","Female","tile","31","M_lash.wav","None","727.307819532","435","282216.329042","274516.371297","275282.936916","276049.593998","276816.214553","277582.85907","278349.452741","279116.139921","282965.934261","283732.599233","284499.198749","285265.826317","286032.457684","286799.12704","287566.168675","288315.67571","287571.958314"
"Mixed","Female","tile","31","F_knife.wav","None","743.207190339","435","282216.329042","289082.330454","275282.936916","276049.593998","276816.214553","277582.85907","278349.452741","279116.139921","282965.934261","283732.599233","284499.198749","285265.826317","286032.457684","286799.12704","287566.168675","288315.67571","288320.874492"
"Mixed","Female","tile","31","M_bluff.wav","None","741.502413104","435","282216.329042","289082.330454","289848.948088","276049.593998","276816.214553","277582.85907","278349.452741","279116.139921","282965.934261","283732.599233","284499.198749","285265.826317","286032.457684","286799.12704","287566.168675","288315.67571","289087.391895"
"Mixed","Female","tile","31","F_tile.wav","None","739.884715684","435","282216.329042","289082.330454","289848.948088","290615.629131","276816.214553","277582.85907","278349.452741","279116.139921","282965.934261","283732.599233","284499.198749","285265.826317","286032.457684","286799.12704","287566.168675","288315.67571","289853.989366"
"Mixed","Female","tile","31","F_reek.wav","space","514.011083098","435","282216.329042","289082.330454","289848.948088","290615.629131","291382.202932","277582.85907","278349.452741","279116.139921","282965.934261","283732.599233","284499.198749","285265.826317","286032.457684","286799.12704","287566.168675","288315.67571","290621.042106"
"Mixed","Female","tile","31","M_cad.wav","None","735.711605692","435","282216.329042","289082.330454","289848.948088","290615.629131","291382.202932","292148.828747","278349.452741","279116.139921","282965.934261","283732.599233","284499.198749","285265.826317","286032.457684","286799.12704","287566.168675","288315.67571","291387.394701"
"Mixed","Female","tile","31","F_tile.wav","None","734.849574012","435","282216.329042","289082.330454","289848.948088","290615.629131","291382.202932","292148.828747","292915.479401","279116.139921","282965.934261","283732.599233","284499.198749","285265.826317","286032.457684","286799.12704","287566.168675","288315.67571","292153.846356"
"Mixed","Female","tile","31","M_park.wav","space","534.01927678","435","282216.329042","289082.330454","289848.948088","290615.629131","291382.202932","292148.828747","292915.479401","293682.101417","282965.934261","283732.599233","284499.198749","285265.826317","286032.457684","286799.12704","287566.168675","288315.67571","292920.84942"
"Mixed","Female","tile","32","M_romp.wav","None","731.655381354","435","296765.321371","289082.330454","289848.948088","290615.629131","291382.202932","292148.828747","292915.479401","293682.101417","282965.934261","283732.599233","284499.198749","285265.826317","286032.457684","286799.12704","287566.168675","288315.67571","293687.187988"
"Mixed","Female","tile","32","F_tile.wav","None","741.74904183","435","296765.321371","289082.330454","289848.948088","290615.629131","291382.202932","292148.828747","292915.479401","293682.101417","297531.952738","283732.599233","284499.198749","285265.826317","286032.457684","286799.12704","287566.168675","288315.67571","296770.408235"
"Mixed","Female","tile","32","F_dime.wav","space","469.243001764","435","296765.321371","289082.330454","289848.948088","290615.629131","291382.202932","292148.828747","292915.479401","293682.101417","297531.952738","298298.560729","284499.198749","285265.826317","286032.457684","286799.12704","287566.168675","288315.67571","297537.241522"
"Mixed","Female","tile","32","M_gnash.wav","None","737.763241097","435","296765.321371","289082.330454","289848.948088","290615.629131","291382.202932","292148.828747","292915.479401","293682.101417","297531.952738","298298.560729","299065.190927","285265.826317","286032.457684","286799.12704","287566.168675","288315.67571","298303.465835"
"Mixed","Female","tile","32","M_park.wav","None","736.056418366","435","296765.321371","289082.330454","289848.948088","290615.629131","291382.202932","292148.828747","292915.479401","293682.101417","297531.952738","298298.560729","299065.190927","299831.773202","286032.457684","286799.12704","287566.168675","288315.67571","299070.110644"
"Mixed","Female","tile","32","F_romp.wav","None","734.144169099","435","296765.321371","289082.330454","289848.948088","290615.629131","291382.202932","292148.828747","292915.479401","293682.101417","297531.952738","298298.560729","299065.190927","299831.773202","300598.427654","286799.12704","287566.168675","288315.67571","299836.900976"
"Mixed","Female","tile","32","M_cling.wav","None","732.336824709","435","296765.321371","289082.330454","289848.948088","290615.629131","291382.202932","292148.828747","292915.479401","293682.101417","297531.952738","298298.560729","299065.190927","299831.773202","300598.427654","301365.071587","287566.168675","288315.67571","300603.563902"
"Mixed","Female","tile","32","F_tile.wav","None","730.923384963","435","296765.321371","289082.330454","289848.948088","290615.629131","291382.202932","292148.828747","292915.479401","293682.101417","297531.952738","298298.560729","299065.190927","299831.773202","300598.427654","301365.071587","302131.682499","288315.67571","301370.251374"
"Mixed","Female","tile","32","F_dime.wav","space","520.870225369","435","296765.321371","289082.330454","289848.948088","290615.629131","291382.202932","292148.828747","292915.479401","293682.101417","297531.952738","298298.560729","299065.190927","299831.773202","300598.427654","301365.071587","302131.682499","302881.678116","302133.25578"
"Mixed","Female","tile","32","F_tile.wav","None","743.500865537","435","296765.321371","303648.279677","289848.948088","290615.629131","291382.202932","292148.828747","292915.479401","293682.101417","297531.952738","298298.560729","299065.190927","299831.773202","300598.427654","301365.071587","302131.682499","302881.678116","302886.710043"
"Mixed","Female","tile","32","M_knife.wav","space","536.578488129","435","296765.321371","303648.279677","304414.87481","290615.629131","291382.202932","292148.828747","292915.479401","293682.101417","297531.952738","298298.560729","299065.190927","299831.773202","300598.427654","301365.071587","302131.682499","302881.678116","303653.394009"
"Mixed","Female","tile","32","F_tile.wav","None","739.466557261","435","296765.321371","303648.279677","304414.87481","305181.555561","291382.202932","292148.828747","292915.479401","293682.101417","297531.952738","298298.560729","299065.190927","299831.773202","300598.427654","301365.071587","302131.682499","302881.678116","304420.007551"
"Mixed","Female","tile","32","M_knife.wav","space","491.218380972","435","296765.321371","303648.279677","304414.87481","305181.555561","305948.16998","292148.828747","292915.479401","293682.101417","297531.952738","298298.560729","299065.190927","299831.773202","300598.427654","301365.071587","302131.682499","302881.678116","305186.643301"
"Mixed","Female","tile","32","M_romp.wav","None","735.066981324","435","296765.321371","303648.279677","304414.87481","305181.555561","305948.16998","306714.78849","292915.479401","293682.101417","297531.952738","298298.560729","299065.190927","299831.773202","300598.427654","301365.071587","302131.682499","302881.678116","305953.464315"
"Mixed","Female","tile","32","F_depth.wav","None","733.816012631","435","296765.321371","303648.279677","304414.87481","305181.555561","305948.16998","306714.78849","307481.419565","293682.101417","297531.952738","298298.560729","299065.190927","299831.773202","300598.427654","301365.071587","302131.682499","302881.678116","306719.561807"
"Mixed","Female","tile","32","M_bluff.wav","None","731.514826362","435","296765.321371","303648.279677","304414.87481","305181.555561","305948.16998","306714.78849","307481.419565","308248.061451","297531.952738","298298.560729","299065.190927","299831.773202","300598.427654","301365.071587","302131.682499","302881.678116","307486.689646"
"Mixed","Male","cave","14","M_cad.wav","None","729.779366644","435","311347.94141","303648.279677","304414.87481","305181.555561","305948.16998","306714.78849","307481.419565","308248.061451","297531.952738","298298.560729","299065.190927","299831.773202","300598.427654","301365.071587","302131.682499","302881.678116","308253.28098"
"Mixed","Male","cave","14","M_cave.wav","None","741.918526022","435","311347.94141","303648.279677","304414.87481","305181.555561","305948.16998","306714.78849","307481.419565","308248.061451","312114.577453","298298.560729","299065.190927","299831.773202","300598.427654","301365.071587","302131.682499","302881.678116","311353.125873"
"Mixed","Male","cave","14","F_lash.wav","space","517.654116655","435","311347.94141","303648.279677","304414.87481","305181.555561","305948.16998","306714.78849","307481.419565","308248.061451","312114.577453","312881.188949","299065.190927","299831.773202","300598.427654","301365.071587","302131.682499","302881.678116","312119.673667"
"Mixed","Male","cave","14","M_bluff.wav","None","737.791878084","435","311347.94141","303648.279677","304414.87481","305181.555561","305948.16998","306714.78849","307481.419565","308248.061451","312114.577453","312881.188949","313647.860057","299831.773202","300598.427654","301365.071587","302131.682499","302881.678116","312886.234903"
"Mixed","Male","cave","14","M_dime.wav","None","735.739658252","435","311347.94141","303648.279677","304414.87481","305181.555561","305948.16998","306714.78849","307481.419565","308248.061451","312114.577453","312881.188949","313647.860057","314414.43795","300598.427654","301365.071587","302131.682499","302881.678116","313653.306344"
"Mixed","Male","cave","14","M_cave.wav","None","734.272743317","435","311347.94141","303648.279677","304414.87481","305181.555561","305948.16998","306714.78849","307481.419565","308248.061451","312114.577453","312881.188949","313647.860057","314414.43795","315181.065226","301365.071587","302131.682499","302881.678116","314419.620952"
"Mixed","Male","cave","14","M_romp.wav","space","450.858057571","435","311347.94141","303648.279677","304414.87481","305181.555561","305948.16998","306714.78849","307481.419565","308248.061451","312114.577453","312881.188949","313647.860057","314414.43795","315181.065226","315947.710035","302131.682499","302881.678116","315186.232156"
"Mixed","Male","cave","14","F_jolt.wav","None","729.935993415","435","311347.94141","303648.279677","304414.87481","305181.555561","305948.16998","306714.78849","307481.419565","308248.061451","312114.577453","312881.188949","313647.860057","314414.43795","315181.065226","315947.710035","316714.578972","302881.678116","315952.747222"
"Mixed","Male","cave","14","M_cave.wav","None","727.145348475","435","311347.94141","303648.279677","304414.87481","305181.555561","305948.16998","306714.78849","307481.419565","308248.061451","312114.577453","312881.188949","313647.860057","314414.43795","315181.065226","315947.710035","316714.578972","317464.266595","316720.305492"
"Mixed","Male","cave","14","F_depth.wav","space","431.627445687","435","311347.94141","318230.922216","304414.87481","305181.555561","305948.16998","306714.78849","307481.419565","308248.061451","312114.577453","312881.188949","313647.860057","314414.43795","315181.065226","315947.710035","316714.578972","317464.266595","317469.283035"
"Mixed","Male","cave","14","M_cave.wav","None","740.097155354","435","311347.94141","318230.922216","318997.571408","305181.555561","305948.16998","306714.78849","307481.419565","308248.061451","312114.577453","312881.188949","313647.860057","314414.43795","315181.065226","315947.710035","316714.578972","317464.266595","318236.072782"
"Mixed","Male","cave","14","F_romp.wav","space","482.046656078","435","311347.94141","318230.922216","318997.571408","319764.17297","305948.16998","306714.78849","307481.419565","308248.061451","312114.577453","312881.188949","313647.860057","314414.43795","315181.065226","315947.710035","316714.578972","317464.266595","319002.753826"
"Mixed","Male","cave","14","F_jaw.wav","None","735.881674318","435","311347.94141","318230.922216","318997.571408","319764.17297","320530.813103","306714.78849","307481.419565","308248.061451","312114.577453","312881.188949","313647.860057","314414.43795","315181.065226","315947.710035","316714.578972","317464.266595","319769.104083"
"Mixed","Male","cave","14","F_bluff.wav","None","734.218975918","435","311347.94141","318230.922216","318997.571408","319764.17297","320530.813103","321297.450899","307481.419565","308248.061451","312114.577453","312881.188949","313647.860057","314414.43795","315181.065226","315947.710035","316714.578972","317464.266595","320535.748308"
"Mixed","Male","cave","14","F_lash.wav","None","732.39702082","435","311347.94141","318230.922216","318997.571408","319764.17297","320530.813103","321297.450899","322064.096877","308248.061451","312114.577453","312881.188949","313647.860057","314414.43795","315181.065226","315947.710035","316714.578972","317464.266595","321302.477567"
"Mixed","Male","cave","14","F_greet.wav","None","730.616560122","435","311347.94141","318230.922216","318997.571408","319764.17297","320530.813103","321297.450899","322064.096877","322830.726783","312114.577453","312881.188949","313647.860057","314414.43795","315181.065226","315947.710035","316714.578972","317464.266595","322069.187247"
"Mixed","Female","tile","35","M_dime.wav","None","728.607003555","435","325913.900276","318230.922216","318997.571408","319764.17297","320530.813103","321297.450899","322064.096877","322830.726783","312114.577453","312881.188949","313647.860057","314414.43795","315181.065226","315947.710035","316714.578972","317464.266595","322836.138881"
"Mixed","Female","tile","35","F_tile.wav","None","742.037749387","435","325913.900276","318230.922216","318997.571408","319764.17297","320530.813103","321297.450899","322064.096877","322830.726783","326680.560864","312881.188949","313647.860057","314414.43795","315181.065226","315947.710035","316714.578972","317464.266595","325918.873176"
"Mixed","Female","tile","35","M_romp.wav","space","446.356498902","435","325913.900276","318230.922216","318997.571408","319764.17297","320530.813103","321297.450899","322064.096877","322830.726783","326680.560864","327447.146646","313647.860057","314414.43795","315181.065226","315947.710035","316714.578972","317464.266595","326685.713184"
"Mixed","Female","tile","35","F_priest.wav","None","738.02944817","435","325913.900276","318230.922216","318997.571408","319764.17297","320530.813103","321297.450899","322064.096877","322830.726783","326680.560864","327447.146646","328213.783857","314414.43795","315181.065226","315947.710035","316714.578972","317464.266595","327452.290783"
"Mixed","Female","tile","35","F_jaw.wav","None","736.557273387","435","325913.900276","318230.922216","318997.571408","319764.17297","320530.813103","321297.450899","322064.096877","322830.726783","326680.560864","327447.146646","328213.783857","328980.412887","315181.065226","315947.710035","316714.578972","317464.266595","328218.850266"
"Mixed","Female","tile","35","M_cad.wav","None","735.140034852","435","325913.900276","318230.922216","318997.571408","319764.17297","320530.813103","321297.450899","322064.096877","322830.726783","326680.560864","327447.146646","328213.783857","328980.412887","329747.039579","315947.710035","316714.578972","317464.266595","328985.559947"
"Mixed","Female","tile","35","M_dime.wav","None","733.63191773","435","325913.900276","318230.922216","318997.571408","319764.17297","320530.813103","321297.450899","322064.096877","322830.726783","326680.560864","327447.146646","328213.783857","328980.412887","329747.039579","330513.698122","316714.578972","317464.266595","329752.080565"
"Mixed","Female","tile","35","F_tile.wav","None","732.053377003","435","325913.900276","318230.922216","318997.571408","319764.17297","320530.813103","321297.450899","322064.096877","322830.726783","326680.560864","327447.146646","328213.783857","328980.412887","329747.039579","330513.698122","331280.364262","317464.266595","330518.638878"
"Mixed","Female","tile","35","F_park.wav","space","509.975313751","435","325913.900276","318230.922216","318997.571408","319764.17297","320530.813103","321297.450899","322064.096877","322830.726783","326680.560864","327447.146646","328213.783857","328980.412887","329747.039579","330513.698122","331280.364262","332047.348917","331285.835095"
"Mixed","Female","tile","35","F_tile.wav","None","726.98579956","435","325913.900276","332796.896861","318997.571408","319764.17297","320530.813103","321297.450899","322064.096877","322830.726783","326680.560864","327447.146646","328213.783857","328980.412887","329747.039579","330513.698122","331280.364262","332047.348917","332052.956213"
"Mixed","Female","tile","35","M_bluff.wav","space","561.576530297","435","325913.900276","332796.896861","333563.525306","319764.17297","320530.813103","321297.450899","322064.096877","322830.726783","326680.560864","327447.146646","328213.783857","328980.412887","329747.039579","330513.698122","331280.364262","332047.348917","332802.07548"
"Mixed","Female","tile","35","F_tile.wav","None","740.392583837","435","325913.900276","332796.896861","333563.525306","334330.158719","320530.813103","321297.450899","322064.096877","322830.726783","326680.560864","327447.146646","328213.783857","328980.412887","329747.039579","330513.698122","331280.364262","332047.348917","333568.770842"
"Mixed","Female","tile","35","M_romp.wav","space","532.336123393","435","325913.900276","332796.896861","333563.525306","334330.158719","335096.776937","321297.450899","322064.096877","322830.726783","326680.560864","327447.146646","328213.783857","328980.412887","329747.039579","330513.698122","331280.364262","332047.348917","334335.256102"
"Mixed","Female","tile","35","F_gnash.wav","None","736.53769504","435","325913.900276","332796.896861","333563.525306","334330.158719","335096.776937","335863.443369","322064.096877","322830.726783","326680.560864","327447.146646","328213.783857","328980.412887","329747.039579","330513.698122","331280.364262","332047.348917","335101.957309"
"Mixed","Female","tile","35","M_knife.wav","None","735.028701274","435","325913.900276","332796.896861","333563.525306","334330.158719","335096.776937","335863.443369","336630.03032","322830.726783","326680.560864","327447.146646","328213.783857","328980.412887","329747.039579","330513.698122","331280.364262","332047.348917","335868.452212"
"Mixed","Female","tile","35","M_park.wav","None","733.095120377","435","325913.900276","332796.896861","333563.525306","334330.158719","335096.776937","335863.443369","336630.03032","337396.678344","326680.560864","327447.146646","328213.783857","328980.412887","329747.039579","330513.698122","331280.364262","332047.348917","336635.565148"
"Mixed","Male","cave","13","F_gnash.wav","None","731.719376254","435","340496.532295","332796.896861","333563.525306","334330.158719","335096.776937","335863.443369","336630.03032","337396.678344","326680.560864","327447.146646","328213.783857","328980.412887","329747.039579","330513.698122","331280.364262","332047.348917","337401.988166"
"Mixed","Male","cave","13","M_dime.wav","None","742.009404621","435","340496.532295","332796.896861","333563.525306","334330.158719","335096.776937","335863.443369","336630.03032","337396.678344","341263.159571","327447.146646","328213.783857","328980.412887","329747.039579","330513.698122","331280.364262","332047.348917","340501.71179"
"Mixed","Male","cave","13","F_greet.wav","None","740.35167386","435","340496.532295","332796.896861","333563.525306","334330.158719","335096.776937","335863.443369","336630.03032","337396.678344","341263.159571","342029.765808","328213.783857","328980.412887","329747.039579","330513.698122","331280.364262","332047.348917","341268.306631"
"Mixed","Male","cave","13","F_romp.wav","None","739.344703972","435","340496.532295","332796.896861","333563.525306","334330.158719","335096.776937","335863.443369","336630.03032","337396.678344","341263.159571","342029.765808","342796.369415","328980.412887","329747.039579","330513.698122","331280.364262","332047.348917","342034.662148"
"Mixed","Male","cave","13","M_cave.wav","None","737.692525279","435","340496.532295","332796.896861","333563.525306","334330.158719","335096.776937","335863.443369","336630.03032","337396.678344","341263.159571","342029.765808","342796.369415","343563.016269","329747.039579","330513.698122","331280.364262","332047.348917","342801.555047"
"Mixed","Male","cave","13","F_bluff.wav","space","458.684720823","435","340496.532295","332796.896861","333563.525306","334330.158719","335096.776937","335863.443369","336630.03032","337396.678344","341263.159571","342029.765808","342796.369415","343563.016269","344329.732379","330513.698122","331280.364262","332047.348917","343568.088522"
"Mixed","Male","cave","13","F_knife.wav","None","733.799064212","435","340496.532295","332796.896861","333563.525306","334330.158719","335096.776937","335863.443369","336630.03032","337396.678344","341263.159571","342029.765808","342796.369415","343563.016269","344329.732379","345096.361116","331280.364262","332047.348917","344334.874471"
"Mixed","Male","cave","13","M_priest.wav","None","732.186626643","435","340496.532295","332796.896861","333563.525306","334330.158719","335096.776937","335863.443369","336630.03032","337396.678344","341263.159571","342029.765808","342796.369415","343563.016269","344329.732379","345096.361116","345862.977288","332047.348917","345101.445934"
"Mixed","Male","cave","13","M_cave.wav","None","730.319086142","435","340496.532295","332796.896861","333563.525306","334330.158719","335096.776937","335863.443369","336630.03032","337396.678344","341263.159571","342029.765808","342796.369415","343563.016269","344329.732379","345096.361116","345862.977288","346629.575343","345868.263734"
"Mixed","Male","cave","13","F_greet.wav","space","416.057984632","435","340496.532295","347379.562778","333563.525306","334330.158719","335096.776937","335863.443369","336630.03032","337396.678344","341263.159571","342029.765808","342796.369415","343563.016269","344329.732379","345096.361116","345862.977288","346629.575343","346634.497105"
"Mixed","Male","cave","13","M_lash.wav","None","742.938353338","435","340496.532295","347379.562778","348146.184794","334330.158719","335096.776937","335863.443369","336630.03032","337396.678344","341263.159571","342029.765808","342796.369415","343563.016269","344329.732379","345096.361116","345862.977288","346629.575343","347384.597627"
"Mixed","Male","cave","13","M_cave.wav","None","741.440463709","435","340496.532295","347379.562778","348146.184794","348912.811778","335096.776937","335863.443369","336630.03032","337396.678344","341263.159571","342029.765808","342796.369415","343563.016269","344329.732379","345096.361116","345862.977288","346629.575343","348151.138116"
"Mixed","Male","cave","13","M_lash.wav","space","492.163401468","435","340496.532295","347379.562778","348146.184794","348912.811778","349679.378274","335863.443369","336630.03032","337396.678344","341263.159571","342029.765808","342796.369415","343563.016269","344329.732379","345096.361116","345862.977288","346629.575343","348918.236441"
"Mixed","Male","cave","13","F_reek.wav","None","737.686973211","435","340496.532295","347379.562778","348146.184794","348912.811778","349679.378274","350446.093506","336630.03032","337396.678344","341263.159571","342029.765808","342796.369415","343563.016269","344329.732379","345096.361116","345862.977288","346629.575343","349684.265263"
"Mixed","Male","cave","13","M_cave.wav","None","736.211291856","435","340496.532295","347379.562778","348146.184794","348912.811778","349679.378274","350446.093506","351212.707048","337396.678344","341263.159571","342029.765808","342796.369415","343563.016269","344329.732379","345096.361116","345862.977288","346629.575343","350450.95478"
"Mixed","Male","cave","13","F_depth.wav","space","536.42770564","435","340496.532295","347379.562778","348146.184794","348912.811778","349679.378274","350446.093506","351212.707048","351979.332571","341263.159571","342029.765808","342796.369415","343563.016269","344329.732379","345096.361116","345862.977288","346629.575343","351217.79362"
"Mixed","Male","done","40","F_bluff.wav","None","731.730188174","435","355062.509278","347379.562778","348146.184794","348912.811778","349679.378274","350446.093506","351212.707048","351979.332571","341263.159571","342029.765808","342796.369415","343563.016269","344329.732379","345096.361116","345862.977288","346629.575343","351984.460929"
"Mixed","Male","done","40","F_jaw.wav","None","741.842550349","435","355062.509278","347379.562778","348146.184794","348912.811778","349679.378274","350446.093506","351212.707048","351979.332571","355829.133924","342029.765808","342796.369415","343563.016269","344329.732379","345096.361116","345862.977288","346629.575343","355067.726177"
"Mixed","Male","done","40","M_done.wav","None","740.511807206","435","355062.509278","347379.562778","348146.184794","348912.811778","349679.378274","350446.093506","351212.707048","351979.332571","355829.133924","356595.726427","342796.369415","343563.016269","344329.732379","345096.361116","345862.977288","346629.575343","355834.196242"
"Mixed","Male","done","40","F_depth.wav","space","481.049621463","435","355062.509278","347379.562778","348146.184794","348912.811778","349679.378274","350446.093506","351212.707048","351979.332571","355829.133924","356595.726427","357362.419451","343563.016269","344329.732379","345096.361116","345862.977288","346629.575343","356600.625689"
"Mixed","Male","done","40","M_done.wav","None","736.628865845","435","355062.509278","347379.562778","348146.184794","348912.811778","349679.378274","350446.093506","351212.707048","351979.332571","355829.133924","356595.726427","357362.419451","358128.987992","344329.732379","345096.361116","345862.977288","346629.575343","357367.280433"
"Mixed","Male","done","40","M_depth.wav","space","491.523744735","435","355062.509278","347379.562778","348146.184794","348912.811778","349679.378274","350446.093506","351212.707048","351979.332571","355829.133924","356595.726427","357362.419451","358128.987992","358895.662023","345096.361116","345862.977288","346629.575343","358134.137974"
"Mixed","Male","done","40","M_jolt.wav","None","732.484685057","435","355062.509278","347379.562778","348146.184794","348912.811778","349679.378274","350446.093506","351212.707048","351979.332571","355829.133924","356595.726427","357362.419451","358128.987992","358895.662023","359662.302741","345862.977288","346629.575343","358900.66093"
"Mixed","Male","done","40","F_park.wav","None","731.366673794","435","355062.509278","347379.562778","348146.184794","348912.811778","349679.378274","350446.093506","351212.707048","351979.332571","355829.133924","356595.726427","357362.419451","358128.987992","358895.662023","359662.302741","360428.883555","346629.575343","359667.186223"
"Mixed","Male","done","40","M_done.wav","None","729.590011888","435","355062.509278","347379.562778","348146.184794","348912.811778","349679.378274","350446.093506","351212.707048","351979.332571","355829.133924","356595.726427","357362.419451","358128.987992","358895.662023","359662.302741","360428.883555","361195.823208","360434.169709"
"Mixed","Male","done","40","F_cad.wav","space","423.958870277","435","355062.509278","361945.491545","348146.184794","348912.811778","349679.378274","350446.093506","351212.707048","351979.332571","355829.133924","356595.726427","357362.419451","358128.987992","358895.662023","359662.302741","360428.883555","361195.823208","361201.474629"
"Mixed","Male","done","40","M_depth.wav","None","742.313307313","435","355062.509278","361945.491545","362712.120575","348912.811778","349679.378274","350446.093506","351212.707048","351979.332571","355829.133924","356595.726427","357362.419451","358128.987992","358895.662023","359662.302741","360428.883555","361195.823208","361950.588344"
"Mixed","Male","done","40","M_done.wav","None","741.041006993","435","355062.509278","361945.491545","362712.120575","363478.804248","349679.378274","350446.093506","351212.707048","351979.332571","355829.133924","356595.726427","357362.419451","358128.987992","358895.662023","359662.302741","360428.883555","361195.823208","362717.003765"
"Mixed","Male","done","40","M_bluff.wav","space","485.445690836","435","355062.509278","361945.491545","362712.120575","363478.804248","364245.363438","350446.093506","351212.707048","351979.332571","355829.133924","356595.726427","357362.419451","358128.987992","358895.662023","359662.302741","360428.883555","361195.823208","363483.790882"
"Mixed","Male","done","40","F_knife.wav","None","737.040595555","435","355062.509278","361945.491545","362712.120575","363478.804248","364245.363438","365012.022274","351212.707048","351979.332571","355829.133924","356595.726427","357362.419451","358128.987992","358895.662023","359662.302741","360428.883555","361195.823208","364250.433061"
"Mixed","Male","done","40","F_romp.wav","None","735.629785737","435","355062.509278","361945.491545","362712.120575","363478.804248","364245.363438","365012.022274","365778.648673","351979.332571","355829.133924","356595.726427","357362.419451","358128.987992","358895.662023","359662.302741","360428.883555","361195.823208","365017.184821"
"Mixed","Male","done","40","F_gnash.wav","None","734.149136744","435","355062.509278","361945.491545","362712.120575","363478.804248","364245.363438","365012.022274","365778.648673","366545.292021","355829.133924","356595.726427","357362.419451","358128.987992","358895.662023","359662.302741","360428.883555","361195.823208","365783.802746"
"Mixed","Female","done","46","M_reek.wav","None","732.501049049","435","369645.147434","361945.491545","362712.120575","363478.804248","364245.363438","365012.022274","365778.648673","366545.292021","355829.133924","356595.726427","357362.419451","358128.987992","358895.662023","359662.302741","360428.883555","361195.823208","366550.625221"
"Mixed","Female","done","46","F_done.wav","None","742.256325557","435","369645.147434","361945.491545","362712.120575","363478.804248","364245.363438","365012.022274","365778.648673","366545.292021","370411.8051","356595.726427","357362.419451","358128.987992","358895.662023","359662.302741","360428.883555","361195.823208","369650.129392"
"Mixed","Female","done","46","M_greet.wav","space","399.994097272","435","369645.147434","361945.491545","362712.120575","363478.804248","364245.363438","365012.022274","365778.648673","366545.292021","370411.8051","371178.42624","357362.419451","358128.987992","358895.662023","359662.302741","360428.883555","361195.823208","370416.674556"
"Mixed","Female","done","46","F_park.wav","None","737.99175255","435","369645.147434","361945.491545","362712.120575","363478.804248","364245.363438","365012.022274","365778.648673","366545.292021","370411.8051","371178.42624","371945.100855","358128.987992","358895.662023","359662.302741","360428.883555","361195.823208","371183.519532"
"Mixed","Female","done","46","F_done.wav","None","736.211291856","435","369645.147434","361945.491545","362712.120575","363478.804248","364245.363438","365012.022274","365778.648673","366545.292021","370411.8051","371178.42624","371945.100855","372711.682546","358895.662023","359662.302741","360428.883555","361195.823208","371950.522888"
"Mixed","Female","done","46","F_jolt.wav","space","491.800179301","435","369645.147434","361945.491545","362712.120575","363478.804248","364245.363438","365012.022274","365778.648673","366545.292021","370411.8051","371178.42624","371945.100855","372711.682546","373478.297841","359662.302741","360428.883555","361195.823208","372716.704538"
"Mixed","Female","done","46","M_dime.wav","None","732.855797003","435","369645.147434","361945.491545","362712.120575","363478.804248","364245.363438","365012.022274","365778.648673","366545.292021","370411.8051","371178.42624","371945.100855","372711.682546","373478.297841","374244.956676","360428.883555","361195.823208","373483.159992"
"Mixed","Female","done","46","F_cling.wav","None","731.247742646","435","369645.147434","361945.491545","362712.120575","363478.804248","364245.363438","365012.022274","365778.648673","366545.292021","370411.8051","371178.42624","371945.100855","372711.682546","373478.297841","374244.956676","375011.560283","361195.823208","374249.954415"
"Mixed","Female","done","46","M_jaw.wav","None","729.91992164","435","369645.147434","361945.491545","362712.120575","363478.804248","364245.363438","365012.022274","365778.648673","366545.292021","370411.8051","371178.42624","371945.100855","372711.682546","373478.297841","374244.956676","375011.560283","375778.466916","375016.564742"
"Mixed","Female","done","46","F_done.wav","None","727.321553597","435","369645.147434","376528.142851","362712.120575","363478.804248","364245.363438","365012.022274","365778.648673","366545.292021","370411.8051","371178.42624","371945.100855","372711.682546","373478.297841","374244.956676","375011.560283","375778.466916","375784.285192"
"Mixed","Female","done","46","M_cling.wav","space","370.866777241","435","369645.147434","376528.142851","377294.81542","363478.804248","364245.363438","365012.022274","365778.648673","366545.292021","370411.8051","371178.42624","371945.100855","372711.682546","373478.297841","374244.956676","375011.560283","375778.466916","376533.314164"
"Mixed","Female","done","46","M_jaw.wav","None","741.04217585","435","369645.147434","376528.142851","377294.81542","378061.409092","364245.363438","365012.022274","365778.648673","366545.292021","370411.8051","371178.42624","371945.100855","372711.682546","373478.297841","374244.956676","375011.560283","375778.466916","377299.8266"
"Mixed","Female","done","46","F_knife.wav","None","739.628151678","435","369645.147434","376528.142851","377294.81542","378061.409092","378828.067927","365012.022274","365778.648673","366545.292021","370411.8051","371178.42624","371945.100855","372711.682546","373478.297841","374244.956676","375011.560283","375778.466916","378066.544755"
"Mixed","Female","done","46","F_done.wav","None","738.274323612","435","369645.147434","376528.142851","377294.81542","378061.409092","378828.067927","379594.773517","365778.648673","366545.292021","370411.8051","371178.42624","371945.100855","372711.682546","373478.297841","374244.956676","375011.560283","375778.466916","378833.029138"
"Mixed","Female","done","46","M_gnash.wav","space","424.147348393","435","369645.147434","376528.142851","377294.81542","378061.409092","378828.067927","379594.773517","380361.305239","366545.292021","370411.8051","371178.42624","371945.100855","372711.682546","373478.297841","374244.956676","375011.560283","375778.466916","379599.744663"
"Mixed","Female","done","46","M_greet.wav","None","734.189754505","435","369645.147434","376528.142851","377294.81542","378061.409092","378828.067927","379594.773517","380361.305239","381127.939236","370411.8051","371178.42624","371945.100855","372711.682546","373478.297841","374244.956676","375011.560283","375778.466916","380366.501975"
"Mixed","Female","cave","24","F_romp.wav","None","732.786250039","435","384244.448516","376528.142851","377294.81542","378061.409092","378828.067927","379594.773517","380361.305239","381127.939236","370411.8051","371178.42624","371945.100855","372711.682546","373478.297841","374244.956676","375011.560283","375778.466916","381133.094185"
"Mixed","Female","cave","24","F_priest.wav","None","742.707796391","435","384244.448516","376528.142851","377294.81542","378061.409092","378828.067927","379594.773517","380361.305239","381127.939236","385011.092448","371178.42624","371945.100855","372711.682546","373478.297841","374244.956676","375011.560283","375778.466916","384249.523399"
"Mixed","Female","cave","24","F_cave.wav","None","741.428482928","435","384244.448516","376528.142851","377294.81542","378061.409092","378828.067927","379594.773517","380361.305239","381127.939236","385011.092448","385777.715049","371945.100855","372711.682546","373478.297841","374244.956676","375011.560283","375778.466916","385016.024438"
"Mixed","Female","cave","24","M_bluff.wav","space","480.681139445","435","384244.448516","376528.142851","377294.81542","378061.409092","378828.067927","379594.773517","380361.305239","381127.939236","385011.092448","385777.715049","386544.344371","372711.682546","373478.297841","374244.956676","375011.560283","375778.466916","385782.761003"
"Mixed","Female","cave","24","F_cave.wav","None","737.596971259","435","384244.448516","376528.142851","377294.81542","378061.409092","378828.067927","379594.773517","380361.305239","381127.939236","385011.092448","385777.715049","386544.344371","387311.0222","373478.297841","374244.956676","375011.560283","375778.466916","386549.525035"
"Mixed","Female","cave","24","M_cling.wav","space","491.274486081","435","384244.448516","376528.142851","377294.81542","378061.409092","378828.067927","379594.773517","380361.305239","381127.939236","385011.092448","385777.715049","386544.344371","387311.0222","388077.593956","374244.956676","375011.560283","375778.466916","387316.056173"
"Mixed","Female","cave","24","M_priest.wav","None","734.02377688","435","384244.448516","376528.142851","377294.81542","378061.409092","378828.067927","379594.773517","380361.305239","381127.939236","385011.092448","385777.715049","386544.344371","387311.0222","388077.593956","388844.234674","375011.560283","375778.466916","388082.689293"
"Mixed","Female","cave","24","F_cave.wav","None","732.894369266","435","384244.448516","376528.142851","377294.81542","378061.409092","378828.067927","379594.773517","380361.305239","381127.939236","385011.092448","385777.715049","386544.344371","387311.0222","388077.593956","388844.234674","389610.9201","375778.466916","388849.183028"
"Mixed","Female","cave","24","M_bluff.wav","space","423.190639329","435","384244.448516","376528.142851","377294.81542","378061.409092","378828.067927","379594.773517","380361.305239","381127.939236","385011.092448","385777.715049","386544.344371","387311.0222","388077.593956","388844.234674","389610.9201","390377.651405","389615.966346"
"Mixed","Female","cave","24","M_park.wav","None","728.074297196","435","384244.448516","391144.446412","377294.81542","378061.409092","378828.067927","379594.773517","380361.305239","381127.939236","385011.092448","385777.715049","386544.344371","387311.0222","388077.593956","388844.234674","389610.9201","390377.651405","390383.295521"
"Mixed","Female","cave","24","F_reek.wav","None","726.747352834","435","384244.448516","391144.446412","391894.087281","378061.409092","378828.067927","379594.773517","380361.305239","381127.939236","385011.092448","385777.715049","386544.344371","387311.0222","388077.593956","388844.234674","389610.9201","390377.651405","391150.053417"
"Mixed","Female","cave","24","M_depth.wav","None","743.139981088","435","384244.448516","391144.446412","391894.087281","392660.732382","378828.067927","379594.773517","380361.305239","381127.939236","385011.092448","385777.715049","386544.344371","387311.0222","388077.593956","388844.234674","389610.9201","390377.651405","391899.036512"
"Mixed","Female","cave","24","F_cave.wav","None","741.476113832","435","384244.448516","391144.446412","391894.087281","392660.732382","393427.364042","379594.773517","380361.305239","381127.939236","385011.092448","385777.715049","386544.344371","387311.0222","388077.593956","388844.234674","389610.9201","390377.651405","392665.846129"
"Mixed","Female","cave","24","M_cad.wav","space","398.379614206","435","384244.448516","391144.446412","391894.087281","392660.732382","393427.364042","394193.960927","380361.305239","381127.939236","385011.092448","385777.715049","386544.344371","387311.0222","388077.593956","388844.234674","389610.9201","390377.651405","393432.47136"
"Mixed","Female","cave","24","M_bluff.wav","None","737.812333071","435","384244.448516","391144.446412","391894.087281","392660.732382","393427.364042","394193.960927","394960.606905","381127.939236","385011.092448","385777.715049","386544.344371","387311.0222","388077.593956","388844.234674","389610.9201","390377.651405","394198.905191"
"Mixed","Female","cave","24","F_romp.wav","None","736.473115714","435","384244.448516","391144.446412","391894.087281","392660.732382","393427.364042","394193.960927","394960.606905","395727.228337","385011.092448","385777.715049","386544.344371","387311.0222","388077.593956","388844.234674","389610.9201","390377.651405","394965.512596"
"Mixed","Male","ball","3","F_greet.wav","None","735.334065041","435","398827.08638","391144.446412","391894.087281","392660.732382","393427.364042","394193.960927","394960.606905","395727.228337","385011.092448","385777.715049","386544.344371","387311.0222","388077.593956","388844.234674","389610.9201","390377.651405","395732.195685"
"Mixed","Male","ball","3","F_jolt.wav","None","741.818588795","435","398827.08638","391144.446412","391894.087281","392660.732382","393427.364042","394193.960927","394960.606905","395727.228337","399593.75252","385777.715049","386544.344371","387311.0222","388077.593956","388844.234674","389610.9201","390377.651405","398832.241621"
"Mixed","Male","ball","3","M_ball.wav","None","740.803436907","435","398827.08638","391144.446412","391894.087281","392660.732382","393427.364042","394193.960927","394960.606905","395727.228337","399593.75252","400360.331873","386544.344371","387311.0222","388077.593956","388844.234674","389610.9201","390377.651405","399598.882339"
"Mixed","Male","ball","3","F_gnash.wav","space","360.878898282","435","398827.08638","391144.446412","391894.087281","392660.732382","393427.364042","394193.960927","394960.606905","395727.228337","399593.75252","400360.331873","401127.050905","387311.0222","388077.593956","388844.234674","389610.9201","390377.651405","400365.393022"
"Mixed","Male","ball","3","M_cad.wav","None","737.506092664","435","398827.08638","391144.446412","391894.087281","392660.732382","393427.364042","394193.960927","394960.606905","395727.228337","399593.75252","400360.331873","401127.050905","401893.623245","388077.593956","388844.234674","389610.9201","390377.651405","401131.973836"
"Mixed","Male","ball","3","M_cling.wav","None","735.98453369","435","398827.08638","391144.446412","391894.087281","392660.732382","393427.364042","394193.960927","394960.606905","395727.228337","399593.75252","400360.331873","401127.050905","401893.623245","402660.232112","388844.234674","389610.9201","390377.651405","401898.873456"
"Mixed","Male","ball","3","M_knife.wav","None","734.727428506","435","398827.08638","391144.446412","391894.087281","392660.732382","393427.364042","394193.960927","394960.606905","395727.228337","399593.75252","400360.331873","401127.050905","401893.623245","402660.232112","403426.874291","389610.9201","390377.651405","402665.444335"
"Mixed","Male","ball","3","M_ball.wav","None","733.583994614","435","398827.08638","391144.446412","391894.087281","392660.732382","393427.364042","394193.960927","394960.606905","395727.228337","399593.75252","400360.331873","401127.050905","401893.623245","402660.232112","403426.874291","404193.518223","390377.651405","403432.211582"
"Mixed","Male","ball","3","F_bluff.wav","space","479.497964436","435","398827.08638","391144.446412","391894.087281","392660.732382","393427.364042","394193.960927","394960.606905","395727.228337","399593.75252","400360.331873","401127.050905","401893.623245","402660.232112","403426.874291","404193.518223","404960.127674","404198.463655"
"Mixed","Male","ball","3","F_cad.wav","None","730.166258152","435","398827.08638","405726.818945","391894.087281","392660.732382","393427.364042","394193.960927","394960.606905","395727.228337","399593.75252","400360.331873","401127.050905","401893.623245","402660.232112","403426.874291","404193.518223","404960.127674","404965.16077"
"Mixed","Male","ball","3","F_jaw.wav","None","728.765383614","435","398827.08638","405726.818945","406493.515476","392660.732382","393427.364042","394193.960927","394960.606905","395727.228337","399593.75252","400360.331873","401127.050905","401893.623245","402660.232112","403426.874291","404193.518223","404960.127674","405732.02737"
"Mixed","Male","ball","3","M_ball.wav","None","727.562630254","435","398827.08638","405726.818945","406493.515476","407243.357973","393427.364042","394193.960927","394960.606905","395727.228337","399593.75252","400360.331873","401127.050905","401893.623245","402660.232112","403426.874291","404193.518223","404960.127674","406498.558508"
"Mixed","Male","ball","3","F_priest.wav","space","405.335771567","435","398827.08638","405726.818945","406493.515476","407243.357973","408009.991093","394193.960927","394960.606905","395727.228337","399593.75252","400360.331873","401127.050905","401893.623245","402660.232112","403426.874291","404193.518223","404960.127674","407248.404803"
"Mixed","Male","ball","3","M_ball.wav","None","740.936978764","435","398827.08638","405726.818945","406493.515476","407243.357973","408009.991093","408776.659864","394960.606905","395727.228337","399593.75252","400360.331873","401127.050905","401893.623245","402660.232112","403426.874291","404193.518223","404960.127674","408014.872238"
"Mixed","Male","ball","3","M_jolt.wav","space","487.941491716","435","398827.08638","405726.818945","406493.515476","407243.357973","408009.991093","408776.659864","409543.214379","395727.228337","399593.75252","400360.331873","401127.050905","401893.623245","402660.232112","403426.874291","404193.518223","404960.127674","408781.691207"
"Mixed","Male","ball","3","F_cling.wav","None","737.117155659","435","398827.08638","405726.818945","406493.515476","407243.357973","408009.991093","408776.659864","409543.214379","410309.866785","399593.75252","400360.331873","401127.050905","401893.623245","402660.232112","403426.874291","404193.518223","404960.127674","409548.340983"
"Mixed","Female","ball","8","F_knife.wav","None","735.691442918","435","413409.815414","405726.818945","406493.515476","407243.357973","408009.991093","408776.659864","409543.214379","410309.866785","399593.75252","400360.331873","401127.050905","401893.623245","402660.232112","403426.874291","404193.518223","404960.127674","410315.152062"
"Mixed","Female","ball","8","F_ball.wav","None","742.107004142","435","413409.815414","405726.818945","406493.515476","407243.357973","408009.991093","408776.659864","409543.214379","410309.866785","414176.402949","400360.331873","401127.050905","401893.623245","402660.232112","403426.874291","404193.518223","404960.127674","413414.866628"
"Mixed","Female","ball","8","M_lash.wav","space","495.721108498","435","413409.815414","405726.818945","406493.515476","407243.357973","408009.991093","408776.659864","409543.214379","410309.866785","414176.402949","414942.991945","401127.050905","401893.623245","402660.232112","403426.874291","404193.518223","404960.127674","414181.485722"
"Mixed","Female","ball","8","F_ball.wav","None","739.193044836","435","413409.815414","405726.818945","406493.515476","407243.357973","408009.991093","408776.659864","409543.214379","410309.866785","414176.402949","414942.991945","415709.609871","401893.623245","402660.232112","403426.874291","404193.518223","404960.127674","414947.670586"
"Mixed","Female","ball","8","M_gnash.wav","space","458.487768501","435","413409.815414","405726.818945","406493.515476","407243.357973","408009.991093","408776.659864","409543.214379","410309.866785","414176.402949","414942.991945","415709.609871","416476.242699","402660.232112","403426.874291","404193.518223","404960.127674","415714.595336"
"Mixed","Female","ball","8","M_jolt.wav","None","735.048571831","435","413409.815414","405726.818945","406493.515476","407243.357973","408009.991093","408776.659864","409543.214379","410309.866785","414176.402949","414942.991945","415709.609871","416476.242699","417242.884878","403426.874291","404193.518223","404960.127674","416481.409629"
"Mixed","Female","ball","8","M_reek.wav","None","733.709938904","435","413409.815414","405726.818945","406493.515476","407243.357973","408009.991093","408776.659864","409543.214379","410309.866785","414176.402949","414942.991945","415709.609871","416476.242699","417242.884878","418009.494914","404193.518223","404960.127674","417248.269216"
"Mixed","Female","ball","8","M_priest.wav","None","733.221941307","435","413409.815414","405726.818945","406493.515476","407243.357973","408009.991093","408776.659864","409543.214379","410309.866785","414176.402949","414942.991945","415709.609871","416476.242699","417242.884878","418009.494914","418776.216867","404960.127674","418014.428657"
"Mixed","Female","ball","8","F_gnash.wav","None","731.909023223","435","413409.815414","405726.818945","406493.515476","407243.357973","408009.991093","408776.659864","409543.214379","410309.866785","414176.402949","414942.991945","415709.609871","416476.242699","417242.884878","418009.494914","418776.216867","419542.762908","418781.206716"
"Mixed","Female","ball","8","M_jolt.wav","None","730.90789761","435","413409.815414","420309.46353","406493.515476","407243.357973","408009.991093","408776.659864","409543.214379","410309.866785","414176.402949","414942.991945","415709.609871","416476.242699","417242.884878","418009.494914","418776.216867","419542.762908","419547.710678"
"Mixed","Female","ball","8","M_gnash.wav","None","729.529231347","435","413409.815414","420309.46353","421076.293018","407243.357973","408009.991093","408776.659864","409543.214379","410309.866785","414176.402949","414942.991945","415709.609871","416476.242699","417242.884878","418009.494914","418776.216867","419542.762908","420314.511237"
"Mixed","Female","ball","8","F_ball.wav","None","727.251714419","435","413409.815414","420309.46353","421076.293018","421843.076629","408009.991093","408776.659864","409543.214379","410309.866785","414176.402949","414942.991945","415709.609871","416476.242699","417242.884878","418009.494914","418776.216867","419542.762908","421082.352955"
"Mixed","Female","ball","8","F_cad.wav","space","419.926315284","435","413409.815414","420309.46353","421076.293018","421843.076629","422592.633632","408776.659864","409543.214379","410309.866785","414176.402949","414942.991945","415709.609871","416476.242699","417242.884878","418009.494914","418776.216867","419542.762908","421848.676913"
"Mixed","Female","ball","8","M_lash.wav","None","741.552381722","435","413409.815414","420309.46353","421076.293018","421843.076629","422592.633632","423359.267045","409543.214379","410309.866785","414176.402949","414942.991945","415709.609871","416476.242699","417242.884878","418009.494914","418776.216867","419542.762908","422597.589"
"Mixed","Female","ball","8","F_ball.wav","None","740.407194546","435","413409.815414","420309.46353","421076.293018","421843.076629","422592.633632","423359.267045","424125.899581","410309.866785","414176.402949","414942.991945","415709.609871","416476.242699","417242.884878","418009.494914","418776.216867","419542.762908","423364.184132"
"Mixed","Female","ball","8","F_depth.wav","space","489.253240947","435","413409.815414","420309.46353","421076.293018","421843.076629","422592.633632","423359.267045","424125.899581","424892.484194","414176.402949","414942.991945","415709.609871","416476.242699","417242.884878","418009.494914","418776.216867","419542.762908","424131.115019"
"Mixed","Male","tile","25","F_knife.wav","None","736.469316933","435","428009.038767","420309.46353","421076.293018","421843.076629","422592.633632","423359.267045","424125.899581","424892.484194","414176.402949","414942.991945","415709.609871","416476.242699","417242.884878","418009.494914","418776.216867","419542.762908","424898.008794"
"Mixed","Male","tile","25","M_jaw.wav","None","742.833740678","435","428009.038767","420309.46353","421076.293018","421843.076629","422592.633632","423359.267045","424125.899581","424892.484194","428775.664583","414942.991945","415709.609871","416476.242699","417242.884878","418009.494914","418776.216867","419542.762908","428014.081799"
"Mixed","Male","tile","25","F_cling.wav","None","741.967617996","435","428009.038767","420309.46353","421076.293018","421843.076629","422592.633632","423359.267045","424125.899581","424892.484194","428775.664583","429542.302379","415709.609871","416476.242699","417242.884878","418009.494914","418776.216867","419542.762908","428780.528779"
"Mixed","Male","tile","25","F_bluff.wav","None","740.606192368","435","428009.038767","420309.46353","421076.293018","421843.076629","422592.633632","423359.267045","424125.899581","424892.484194","428775.664583","429542.302379","430308.9317","416476.242699","417242.884878","418009.494914","418776.216867","419542.762908","429547.698405"
"Mixed","Male","tile","25","M_greet.wav","None","743.580347782","435","428009.038767","420309.46353","421076.293018","421843.076629","422592.633632","423359.267045","424125.899581","424892.484194","428775.664583","429542.302379","430308.9317","431075.523618","417242.884878","418009.494914","418776.216867","419542.762908","430310.474591"
"Mixed","Male","tile","25","M_tile.wav","None","739.516525879","435","428009.038767","420309.46353","421076.293018","421843.076629","422592.633632","423359.267045","424125.899581","424892.484194","428775.664583","429542.302379","430308.9317","431075.523618","431842.168135","418009.494914","418776.216867","419542.762908","431080.520772"
"Mixed","Male","tile","25","F_jaw.wav","space","516.503961837","435","428009.038767","420309.46353","421076.293018","421843.076629","422592.633632","423359.267045","424125.899581","424892.484194","428775.664583","429542.302379","430308.9317","431075.523618","431842.168135","432608.824049","418776.216867","419542.762908","431847.169088"
"Mixed","Male","tile","25","M_gnash.wav","None","736.14583589","435","428009.038767","420309.46353","421076.293018","421843.076629","422592.633632","423359.267045","424125.899581","424892.484194","428775.664583","429542.302379","430308.9317","431075.523618","431842.168135","432608.824049","433375.51532","419542.762908","432613.783215"
"Mixed","Male","tile","25","M_tile.wav","None","734.959446523","435","428009.038767","420309.46353","421076.293018","421843.076629","422592.633632","423359.267045","424125.899581","424892.484194","428775.664583","429542.302379","430308.9317","431075.523618","431842.168135","432608.824049","433375.51532","434142.054932","433380.698322"
"Mixed","Male","tile","25","F_priest.wav","space","600.374384743","435","428009.038767","434908.727793","421076.293018","421843.076629","422592.633632","423359.267045","424125.899581","424892.484194","428775.664583","429542.302379","430308.9317","431075.523618","431842.168135","432608.824049","433375.51532","434142.054932","434147.230628"
"Mixed","Male","tile","25","F_park.wav","None","731.656550211","435","428009.038767","434908.727793","435675.307438","421843.076629","422592.633632","423359.267045","424125.899581","424892.484194","428775.664583","429542.302379","430308.9317","431075.523618","431842.168135","432608.824049","433375.51532","434142.054932","434913.697771"
"Mixed","Male","tile","25","M_tile.wav","None","730.44707593","435","428009.038767","434908.727793","435675.307438","436442.01595","422592.633632","423359.267045","424125.899581","424892.484194","428775.664583","429542.302379","430308.9317","431075.523618","431842.168135","432608.824049","433375.51532","434142.054932","435680.471447"
"Mixed","Male","tile","25","F_priest.wav","space","460.505799281","435","428009.038767","434908.727793","435675.307438","436442.01595","437191.963936","423359.267045","424125.899581","424892.484194","428775.664583","429542.302379","430308.9317","431075.523618","431842.168135","432608.824049","433375.51532","434142.054932","436446.89505"
"Mixed","Male","tile","25","F_jolt.wav","None","743.734929056","435","428009.038767","434908.727793","435675.307438","436442.01595","437191.963936","437958.57105","424125.899581","424892.484194","428775.664583","429542.302379","430308.9317","431075.523618","431842.168135","432608.824049","433375.51532","434142.054932","437197.000247"
"Mixed","Male","tile","25","M_tile.wav","None","742.969912466","435","428009.038767","434908.727793","435675.307438","436442.01595","437191.963936","437958.57105","438725.197449","424892.484194","428775.664583","429542.302379","430308.9317","431075.523618","431842.168135","432608.824049","433375.51532","434142.054932","437963.552424"
"Mixed","Male","tile","25","M_jaw.wav","space","448.933827523","435","428009.038767","434908.727793","435675.307438","436442.01595","437191.963936","437958.57105","438725.197449","439491.837875","428775.664583","429542.302379","430308.9317","431075.523618","431842.168135","432608.824049","433375.51532","434142.054932","438730.342463"
"Mixed","Female","done","45","M_gnash.wav","None","739.700036349","435","442591.749977","434908.727793","435675.307438","436442.01595","437191.963936","437958.57105","438725.197449","439491.837875","428775.664583","429542.302379","430308.9317","431075.523618","431842.168135","432608.824049","433375.51532","434142.054932","439496.933505"
"Mixed","Female","done","45","M_cling.wav","None","742.070769586","435","442591.749977","434908.727793","435675.307438","436442.01595","437191.963936","437958.57105","438725.197449","439491.837875","443358.3042","429542.302379","430308.9317","431075.523618","431842.168135","432608.824049","433375.51532","434142.054932","442596.569757"
"Mixed","Female","done","45","F_cad.wav","None","740.846392382","435","442591.749977","434908.727793","435675.307438","436442.01595","437191.963936","437958.57105","438725.197449","439491.837875","443358.3042","444124.940242","430308.9317","431075.523618","431842.168135","432608.824049","433375.51532","434142.054932","443363.392524"
"Mixed","Female","done","45","F_done.wav","None","739.933807654","435","442591.749977","434908.727793","435675.307438","436442.01595","437191.963936","437958.57105","438725.197449","439491.837875","443358.3042","444124.940242","444891.560213","431075.523618","431842.168135","432608.824049","433375.51532","434142.054932","444130.081458"
"Mixed","Female","done","45","M_lash.wav","space","425.793098369","435","442591.749977","434908.727793","435675.307438","436442.01595","437191.963936","437958.57105","438725.197449","439491.837875","443358.3042","444124.940242","444891.560213","445658.214665","431842.168135","432608.824049","433375.51532","434142.054932","444896.939583"
"Mixed","Female","done","45","F_bluff.wav","None","736.900332773","435","442591.749977","434908.727793","435675.307438","436442.01595","437191.963936","437958.57105","438725.197449","439491.837875","443358.3042","444124.940242","444891.560213","445658.214665","446424.832006","432608.824049","433375.51532","434142.054932","445663.16185"
"Mixed","Female","done","45","F_lash.wav","None","735.922292082","435","442591.749977","434908.727793","435675.307438","436442.01595","437191.963936","437958.57105","438725.197449","439491.837875","443358.3042","444124.940242","444891.560213","445658.214665","446424.832006","447191.470094","433375.51532","434142.054932","446429.883512"
"Mixed","Female","done","45","F_done.wav","None","735.079838745","435","442591.749977","434908.727793","435675.307438","436442.01595","437191.963936","437958.57105","438725.197449","439491.837875","443358.3042","444124.940242","444891.560213","445658.214665","446424.832006","447191.470094","447958.141787","434142.054932","447196.451468"
"Mixed","Female","done","45","M_park.wav","space","447.305610396","435","442591.749977","434908.727793","435675.307438","436442.01595","437191.963936","437958.57105","438725.197449","439491.837875","443358.3042","444124.940242","444891.560213","445658.214665","446424.832006","447191.470094","447958.141787","448724.690458","447963.213163"
"Mixed","Female","done","45","F_done.wav","None","731.574730256","435","442591.749977","449491.339942","435675.307438","436442.01595","437191.963936","437958.57105","438725.197449","439491.837875","443358.3042","444124.940242","444891.560213","445658.214665","446424.832006","447191.470094","447958.141787","448724.690458","448729.82992"
"Mixed","Female","done","45","M_jaw.wav","space","562.00579285","435","442591.749977","449491.339942","450258.35674","436442.01595","437191.963936","437958.57105","438725.197449","439491.837875","443358.3042","444124.940242","444891.560213","445658.214665","446424.832006","447191.470094","447958.141787","448724.690458","449496.362811"
"Mixed","Female","done","45","M_bluff.wav","None","727.278890336","435","442591.749977","449491.339942","450258.35674","451007.92923","437191.963936","437958.57105","438725.197449","439491.837875","443358.3042","444124.940242","444891.560213","445658.214665","446424.832006","447191.470094","447958.141787","448724.690458","450263.762409"
"Mixed","Female","done","45","M_bluff.wav","None","743.461708844","435","442591.749977","449491.339942","450258.35674","451007.92923","451774.578423","437958.57105","438725.197449","439491.837875","443358.3042","444124.940242","444891.560213","445658.214665","446424.832006","447191.470094","447958.141787","448724.690458","451013.124505"
"Mixed","Female","done","45","M_greet.wav","None","742.757180578","435","442591.749977","449491.339942","450258.35674","451007.92923","451774.578423","452541.205699","438725.197449","439491.837875","443358.3042","444124.940242","444891.560213","445658.214665","446424.832006","447191.470094","447958.141787","448724.690458","451779.640448"
"Mixed","Female","done","45","F_done.wav","None","742.258663271","435","442591.749977","449491.339942","450258.35674","451007.92923","451774.578423","452541.205699","453307.906905","439491.837875","443358.3042","444124.940242","444891.560213","445658.214665","446424.832006","447191.470094","447958.141787","448724.690458","452546.084506"
"Mixed","Female","done","45","F_cling.wav","space","457.247903949","435","442591.749977","449491.339942","450258.35674","451007.92923","451774.578423","452541.205699","453307.906905","454074.487719","443358.3042","444124.940242","444891.560213","445658.214665","446424.832006","447191.470094","447958.141787","448724.690458","453312.844447"
"Mixed","Male","tile","27","M_greet.wav","None","738.962487889","435","457174.375568","449491.339942","450258.35674","451007.92923","451774.578423","452541.205699","453307.906905","454074.487719","443358.3042","444124.940242","444891.560213","445658.214665","446424.832006","447191.470094","447958.141787","448724.690458","454079.389027"
"Mixed","Male","tile","27","M_tile.wav","None","741.701995354","435","457174.375568","449491.339942","450258.35674","451007.92923","451774.578423","452541.205699","453307.906905","454074.487719","457940.951414","444124.940242","444891.560213","445658.214665","446424.832006","447191.470094","447958.141787","448724.690458","457179.807828"
"Mixed","Male","tile","27","F_reek.wav","space","383.575169744","435","457174.375568","449491.339942","450258.35674","451007.92923","451774.578423","452541.205699","453307.906905","454074.487719","457940.951414","458707.545086","444891.560213","445658.214665","446424.832006","447191.470094","447958.141787","448724.690458","457946.131494"
"Mixed","Male","tile","27","M_tile.wav","None","739.392627089","435","457174.375568","449491.339942","450258.35674","451007.92923","451774.578423","452541.205699","453307.906905","454074.487719","457940.951414","458707.545086","459474.173823","445658.214665","446424.832006","447191.470094","447958.141787","448724.690458","458712.411328"
"Mixed","Male","tile","27","F_jaw.wav","space","426.404410329","435","457174.375568","449491.339942","450258.35674","451007.92923","451774.578423","452541.205699","453307.906905","454074.487719","457940.951414","458707.545086","459474.173823","460240.842009","446424.832006","447191.470094","447958.141787","448724.690458","459479.153152"
"Mixed","Male","tile","27","M_gnash.wav","None","736.282592105","435","457174.375568","449491.339942","450258.35674","451007.92923","451774.578423","452541.205699","453307.906905","454074.487719","457940.951414","458707.545086","459474.173823","460240.842009","461007.452921","447191.470094","447958.141787","448724.690458","460245.828059"
"Mixed","Male","tile","27","M_tile.wav","None","735.39922879","435","457174.375568","449491.339942","450258.35674","451007.92923","451774.578423","452541.205699","453307.906905","454074.487719","457940.951414","458707.545086","459474.173823","460240.842009","461007.452921","461774.176336","447958.141787","448724.690458","461012.651119"
"Mixed","Male","tile","27","F_bluff.wav","space","470.12168965","435","457174.375568","449491.339942","450258.35674","451007.92923","451774.578423","452541.205699","453307.906905","454074.487719","457940.951414","458707.545086","459474.173823","460240.842009","461007.452921","461774.176336","462540.733481","448724.690458","461779.25268"
