"Condition","Talker","Target","Trial","current_stimulus","response_response","response_time_response","subject_nr","time_Audio1","time_Audio10","time_Audio11","time_Audio12","time_Audio13","time_Audio14","time_Audio15","time_Audio16","time_Audio2","time_Audio3","time_Audio4","time_Audio5","time_Audio6","time_Audio7","time_Audio8","time_Audio9","time_response","title"
"Blocked","Female","done","23","F_jolt.wav","NA","NA","114","21956.759613","NA","NA","NA","NA","NA","NA","NA","NA","NA","NA","NA","NA","NA","NA","NA","NA","Mapping"
"Blocked","Female","done","23","F_cad.wav","None","719.862060156","114","21956.759613","NA","NA","NA","NA","NA","NA","NA","22724.191695","NA","NA","NA","NA","NA","NA","NA","21970.2833835","Mapping"
"Blocked","Female","done","23","F_done.wav","None","722.003071103","114","21956.759613","NA","NA","NA","NA","NA","NA","NA","22724.191695","23491.3776768","NA","NA","NA","NA","NA","NA","22735.0646309","Mapping"
"Blocked","Female","done","23","F_ball.wav","space","655.040279962","114","21956.759613","NA","NA","NA","NA","NA","NA","NA","22724.191695","23491.3776768","24258.2912785","NA","NA","NA","NA","NA","23500.5674842","Mapping"
"Blocked","Female","done","23","F_dime.wav","None","723.874794319","114","21956.759613","NA","NA","NA","NA","NA","NA","NA","22724.191695","23491.3776768","24258.2912785","25025.5700112","NA","NA","NA","NA","24267.6523668","Mapping"
"Blocked","Female","done","23","F_done.wav","None","723.290769383","114","21956.759613","NA","NA","NA","NA","NA","NA","NA","22724.191695","23491.3776768","24258.2912785","25025.5700112","25792.7426989","NA","NA","NA","25035.2718066","Mapping"
"Blocked","Female","done","23","F_park.wav","space","641.38294803","114","21956.759613","NA","NA","NA","NA","NA","NA","NA","22724.191695","23491.3776768","24258.2912785","25025.5700112","25792.7426989","26560.1460277","NA","NA","25802.1538728","Mapping"
"Blocked","Female","done","23","F_cave.wav","None","725.347686093","114","21956.759613","NA","NA","NA","NA","NA","NA","NA","22724.191695","23491.3776768","24258.2912785","25025.5700112","25792.7426989","26560.1460277","27327.1529996","NA","26567.0031379","Mapping"
"Blocked","Female","done","23","F_done.wav","None","723.223061301","114","21956.759613","NA","NA","NA","NA","NA","NA","NA","22724.191695","23491.3776768","24258.2912785","25025.5700112","25792.7426989","26560.1460277","27327.1529996","28094.2174769","27336.1761635","Mapping"
"Blocked","Female","done","23","F_gnash.wav","space","443.991611246","114","21956.759613","28861.6044195","NA","NA","NA","NA","NA","NA","22724.191695","23491.3776768","24258.2912785","25025.5700112","25792.7426989","26560.1460277","27327.1529996","28094.2174769","28103.5312619","Mapping"
"Blocked","Female","done","23","F_reek.wav","None","722.31502505","114","21956.759613","28861.6044195","29628.9684842","NA","NA","NA","NA","NA","22724.191695","23491.3776768","24258.2912785","25025.5700112","25792.7426989","26560.1460277","27327.1529996","28094.2174769","28871.0755729","Mapping"
"Blocked","Female","done","23","F_cad.wav","None","722.053466365","114","21956.759613","28861.6044195","29628.9684842","30396.2277393","NA","NA","NA","NA","22724.191695","23491.3776768","24258.2912785","25025.5700112","25792.7426989","26560.1460277","27327.1529996","28094.2174769","29638.2430042","Mapping"
"Blocked","Female","done","23","F_reek.wav","None","722.01883886","114","21956.759613","28861.6044195","29628.9684842","30396.2277393","31163.4449475","NA","NA","NA","22724.191695","23491.3776768","24258.2912785","25025.5700112","25792.7426989","26560.1460277","27327.1529996","28094.2174769","30405.1714465","Mapping"
"Blocked","Female","done","23","F_done.wav","None","722.834432963","114","21956.759613","28861.6044195","29628.9684842","30396.2277393","31163.4449475","31930.4460445","NA","NA","22724.191695","23491.3776768","24258.2912785","25025.5700112","25792.7426989","26560.1460277","27327.1529996","28094.2174769","31172.4851159","Mapping"
"Blocked","Female","done","23","F_tile.wav","space","623.783063143","114","21956.759613","28861.6044195","29628.9684842","30396.2277393","31163.4449475","31930.4460445","32698.2729384","NA","22724.191695","23491.3776768","24258.2912785","25025.5700112","25792.7426989","26560.1460277","27327.1529996","28094.2174769","31939.5811288","Mapping"
"Blocked","Female","done","23","F_tile.wav","None","721.954222303","114","21956.759613","28861.6044195","29628.9684842","30396.2277393","31163.4449475","31930.4460445","32698.2729384","33464.7190729","22724.191695","23491.3776768","24258.2912785","25025.5700112","25792.7426989","26560.1460277","27327.1529996","28094.2174769","32707.3427872","Mapping"
"Blocked","Female","cave","8","F_reek.wav","None","722.208361141","114","36617.4416509","28861.6044195","29628.9684842","30396.2277393","31163.4449475","31930.4460445","32698.2729384","33464.7190729","22724.191695","23491.3776768","24258.2912785","25025.5700112","25792.7426989","26560.1460277","27327.1529996","28094.2174769","33473.6918421","Mapping"
"Blocked","Female","cave","8","F_park.wav","None","723.067548126","114","36617.4416509","28861.6044195","29628.9684842","30396.2277393","31163.4449475","31930.4460445","32698.2729384","33464.7190729","37384.8400335","23491.3776768","24258.2912785","25025.5700112","25792.7426989","26560.1460277","27327.1529996","28094.2174769","36626.7328663","Mapping"
"Blocked","Female","cave","8","F_priest.wav","None","722.761468496","114","36617.4416509","28861.6044195","29628.9684842","30396.2277393","31163.4449475","31930.4460445","32698.2729384","33464.7190729","37384.8400335","38152.0031365","24258.2912785","25025.5700112","25792.7426989","26560.1460277","27327.1529996","28094.2174769","37394.0589027","Mapping"
"Blocked","Female","cave","8","F_cave.wav","None","722.213926259","114","36617.4416509","28861.6044195","29628.9684842","30396.2277393","31163.4449475","31930.4460445","32698.2729384","33464.7190729","37384.8400335","38152.0031365","38919.721202","25025.5700112","25792.7426989","26560.1460277","27327.1529996","28094.2174769","38161.1913978","Mapping"
"Blocked","Female","cave","8","F_reek.wav","space","402.151152026","114","36617.4416509","28861.6044195","29628.9684842","30396.2277393","31163.4449475","31930.4460445","32698.2729384","33464.7190729","37384.8400335","38152.0031365","38919.721202","39687.2247024","25792.7426989","26560.1460277","27327.1529996","28094.2174769","38929.1088786","Mapping"
"Blocked","Female","cave","8","F_jaw.wav","None","721.607950516","114","36617.4416509","28861.6044195","29628.9684842","30396.2277393","31163.4449475","31930.4460445","32698.2729384","33464.7190729","37384.8400335","38152.0031365","38919.721202","39687.2247024","40453.7533857","26560.1460277","27327.1529996","28094.2174769","39696.8059205","Mapping"
"Blocked","Female","cave","8","F_cave.wav","None","722.251954488","114","36617.4416509","28861.6044195","29628.9684842","30396.2277393","31163.4449475","31930.4460445","32698.2729384","33464.7190729","37384.8400335","38152.0031365","38919.721202","39687.2247024","40453.7533857","41220.8364136","27327.1529996","28094.2174769","40463.2189739","Mapping"
"Blocked","Female","cave","8","F_reek.wav","space","533.240396529","114","36617.4416509","28861.6044195","29628.9684842","30396.2277393","31163.4449475","31930.4460445","32698.2729384","33464.7190729","37384.8400335","38152.0031365","38919.721202","39687.2247024","40453.7533857","41220.8364136","41988.1541021","28094.2174769","41229.8685433","Mapping"
"Blocked","Female","cave","8","F_priest.wav","None","722.005235497","114","36617.4416509","28861.6044195","29628.9684842","30396.2277393","31163.4449475","31930.4460445","32698.2729384","33464.7190729","37384.8400335","38152.0031365","38919.721202","39687.2247024","40453.7533857","41220.8364136","41988.1541021","42755.3178235","41997.2298252","Mapping"
"Blocked","Female","cave","8","F_cave.wav","None","721.843230072","114","36617.4416509","43522.6772502","29628.9684842","30396.2277393","31163.4449475","31930.4460445","32698.2729384","33464.7190729","37384.8400335","38152.0031365","38919.721202","39687.2247024","40453.7533857","41220.8364136","41988.1541021","42755.3178235","42764.5629724","Mapping"
"Blocked","Female","cave","8","F_reek.wav","space","551.138322335","114","36617.4416509","43522.6772502","44289.8496282","30396.2277393","31163.4449475","31930.4460445","32698.2729384","33464.7190729","37384.8400335","38152.0031365","38919.721202","39687.2247024","40453.7533857","41220.8364136","41988.1541021","42755.3178235","43532.0136049","Mapping"
"Blocked","Female","cave","8","F_knife.wav","None","721.372980159","114","36617.4416509","43522.6772502","44289.8496282","45056.9397672","31163.4449475","31930.4460445","32698.2729384","33464.7190729","37384.8400335","38152.0031365","38919.721202","39687.2247024","40453.7533857","41220.8364136","41988.1541021","42755.3178235","44298.8146683","Mapping"
"Blocked","Female","cave","8","F_cave.wav","None","720.620457549","114","36617.4416509","43522.6772502","44289.8496282","45056.9397672","45824.2305578","31930.4460445","32698.2729384","33464.7190729","37384.8400335","38152.0031365","38919.721202","39687.2247024","40453.7533857","41220.8364136","41988.1541021","42755.3178235","45066.4572958","Mapping"
"Blocked","Female","cave","8","F_dime.wav","space","393.434376456","114","36617.4416509","43522.6772502","44289.8496282","45056.9397672","45824.2305578","46591.5253679","32698.2729384","33464.7190729","37384.8400335","38152.0031365","38919.721202","39687.2247024","40453.7533857","41220.8364136","41988.1541021","42755.3178235","45833.6340026","Mapping"
"Blocked","Female","cave","8","F_jaw.wav","None","721.146048512","114","36617.4416509","43522.6772502","44289.8496282","45056.9397672","45824.2305578","46591.5253679","47358.7543243","33464.7190729","37384.8400335","38152.0031365","38919.721202","39687.2247024","40453.7533857","41220.8364136","41988.1541021","42755.3178235","46600.7528938","Mapping"
"Blocked","Female","cave","8","F_lash.wav","None","721.074938774","114","36617.4416509","43522.6772502","44289.8496282","45056.9397672","45824.2305578","46591.5253679","47358.7543243","48125.6379364","37384.8400335","38152.0031365","38919.721202","39687.2247024","40453.7533857","41220.8364136","41988.1541021","42755.3178235","47367.9821598","Mapping"
"Blocked","Female","tile","14","F_gnash.wav","None","721.408534795","114","51261.6528976","43522.6772502","44289.8496282","45056.9397672","45824.2305578","46591.5253679","47358.7543243","48125.6379364","37384.8400335","38152.0031365","38919.721202","39687.2247024","40453.7533857","41220.8364136","41988.1541021","42755.3178235","48134.9480115","Mapping"
"Blocked","Female","tile","14","F_romp.wav","None","723.658064846","114","51261.6528976","43522.6772502","44289.8496282","45056.9397672","45824.2305578","46591.5253679","47358.7543243","48125.6379364","52028.9504905","38152.0031365","38919.721202","39687.2247024","40453.7533857","41220.8364136","41988.1541021","42755.3178235","51270.7490264","Mapping"
"Blocked","Female","tile","14","F_tile.wav","None","723.914986942","114","51261.6528976","43522.6772502","44289.8496282","45056.9397672","45824.2305578","46591.5253679","47358.7543243","48125.6379364","52028.9504905","52796.232006","38919.721202","39687.2247024","40453.7533857","41220.8364136","41988.1541021","42755.3178235","52037.7683644","Mapping"
"Blocked","Female","tile","14","F_reek.wav","space","501.529006753","114","51261.6528976","43522.6772502","44289.8496282","45056.9397672","45824.2305578","46591.5253679","47358.7543243","48125.6379364","52028.9504905","52796.232006","53562.7993359","39687.2247024","40453.7533857","41220.8364136","41988.1541021","42755.3178235","52805.3726549","Mapping"
"Blocked","Female","tile","14","F_tile.wav","None","724.20993587","114","51261.6528976","43522.6772502","44289.8496282","45056.9397672","45824.2305578","46591.5253679","47358.7543243","48125.6379364","52028.9504905","52796.232006","53562.7993359","54330.5143095","40453.7533857","41220.8364136","41988.1541021","42755.3178235","53571.7334584","Mapping"
"Blocked","Female","tile","14","F_priest.wav","space","614.972609095","114","51261.6528976","43522.6772502","44289.8496282","45056.9397672","45824.2305578","46591.5253679","47358.7543243","48125.6379364","52028.9504905","52796.232006","53562.7993359","54330.5143095","55097.5846611","41220.8364136","41988.1541021","42755.3178235","54339.8259305","Mapping"
"Blocked","Female","tile","14","F_cad.wav","None","723.348275293","114","51261.6528976","43522.6772502","44289.8496282","45056.9397672","45824.2305578","46591.5253679","47358.7543243","48125.6379364","52028.9504905","52796.232006","53562.7993359","54330.5143095","55097.5846611","55864.8630851","41988.1541021","42755.3178235","55106.7982749","Mapping"
"Blocked","Female","tile","14","F_lash.wav","None","723.696402274","114","51261.6528976","43522.6772502","44289.8496282","45056.9397672","45824.2305578","46591.5253679","47358.7543243","48125.6379364","52028.9504905","52796.232006","53562.7993359","54330.5143095","55097.5846611","55864.8630851","56632.2577572","42755.3178235","55873.8537864","Mapping"
"Blocked","Female","tile","14","F_tile.wav","None","722.819901537","114","51261.6528976","43522.6772502","44289.8496282","45056.9397672","45824.2305578","46591.5253679","47358.7543243","48125.6379364","52028.9504905","52796.232006","53562.7993359","54330.5143095","55097.5846611","55864.8630851","56632.2577572","57399.142297","56641.5189835","Mapping"
"Blocked","Female","tile","14","F_greet.wav","space","530.367576517","114","51261.6528976","58166.5212018","44289.8496282","45056.9397672","45824.2305578","46591.5253679","47358.7543243","48125.6379364","52028.9504905","52796.232006","53562.7993359","54330.5143095","55097.5846611","55864.8630851","56632.2577572","57399.142297","57408.3763161","Mapping"
"Blocked","Female","tile","14","F_done.wav","None","722.577511799","114","51261.6528976","58166.5212018","58933.9168016","45056.9397672","45824.2305578","46591.5253679","47358.7543243","48125.6379364","52028.9504905","52796.232006","53562.7993359","54330.5143095","55097.5846611","55864.8630851","56632.2577572","57399.142297","58175.7020429","Mapping"
"Blocked","Female","tile","14","F_cling.wav","None","722.175588831","114","51261.6528976","58166.5212018","58933.9168016","59701.1856409","45824.2305578","46591.5253679","47358.7543243","48125.6379364","52028.9504905","52796.232006","53562.7993359","54330.5143095","55097.5846611","55864.8630851","56632.2577572","57399.142297","58943.3740419","Mapping"
"Blocked","Female","tile","14","F_cling.wav","None","722.461263184","114","51261.6528976","58166.5212018","58933.9168016","59701.1856409","60468.173753","46591.5253679","47358.7543243","48125.6379364","52028.9504905","52796.232006","53562.7993359","54330.5143095","55097.5846611","55864.8630851","56632.2577572","57399.142297","59710.368956","Mapping"
"Blocked","Female","tile","14","F_tile.wav","None","722.714783624","114","51261.6528976","58166.5212018","58933.9168016","59701.1856409","60468.173753","61235.529779","47358.7543243","48125.6379364","52028.9504905","52796.232006","53562.7993359","54330.5143095","55097.5846611","55864.8630851","56632.2577572","57399.142297","60477.3802557","Mapping"
"Blocked","Female","tile","14","F_knife.wav","space","605.956865009","114","51261.6528976","58166.5212018","58933.9168016","59701.1856409","60468.173753","61235.529779","62002.8332458","48125.6379364","52028.9504905","52796.232006","53562.7993359","54330.5143095","55097.5846611","55864.8630851","56632.2577572","57399.142297","61244.7192771","Mapping"
"Blocked","Female","tile","14","F_jolt.wav","None","722.002761904","114","51261.6528976","58166.5212018","58933.9168016","59701.1856409","60468.173753","61235.529779","62002.8332458","62770.1262007","52028.9504905","52796.232006","53562.7993359","54330.5143095","55097.5846611","55864.8630851","56632.2577572","57399.142297","62012.2781196","Mapping"
"Blocked","Female","tile","13","F_lash.wav","None","722.466828302","114","65905.703994","58166.5212018","58933.9168016","59701.1856409","60468.173753","61235.529779","62002.8332458","62770.1262007","52028.9504905","52796.232006","53562.7993359","54330.5143095","55097.5846611","55864.8630851","56632.2577572","57399.142297","62779.3425969","Mapping"
"Blocked","Female","tile","13","F_tile.wav","None","722.339449916","114","65905.703994","58166.5212018","58933.9168016","59701.1856409","60468.173753","61235.529779","62002.8332458","62770.1262007","66672.7755824","52796.232006","53562.7993359","54330.5143095","55097.5846611","55864.8630851","56632.2577572","57399.142297","65915.8089482","Mapping"
"Blocked","Female","tile","13","F_depth.wav","space","672.418798786","114","65905.703994","58166.5212018","58933.9168016","59701.1856409","60468.173753","61235.529779","62002.8332458","62770.1262007","66672.7755824","67440.1269704","53562.7993359","54330.5143095","55097.5846611","55864.8630851","56632.2577572","57399.142297","66682.1536748","Mapping"
"Blocked","Female","tile","13","F_cad.wav","None","722.742608748","114","65905.703994","58166.5212018","58933.9168016","59701.1856409","60468.173753","61235.529779","62002.8332458","62770.1262007","66672.7755824","67440.1269704","68207.2820351","54330.5143095","55097.5846611","55864.8630851","56632.2577572","57399.142297","67449.5109376","Mapping"
"Blocked","Female","tile","13","F_knife.wav","None","723.395887762","114","65905.703994","58166.5212018","58933.9168016","59701.1856409","60468.173753","61235.529779","62002.8332458","62770.1262007","66672.7755824","67440.1269704","68207.2820351","68974.771623","55097.5846611","55864.8630851","56632.2577572","57399.142297","68216.234399","Mapping"
"Blocked","Female","tile","13","F_tile.wav","None","722.777236253","114","65905.703994","58166.5212018","58933.9168016","59701.1856409","60468.173753","61235.529779","62002.8332458","62770.1262007","66672.7755824","67440.1269704","68207.2820351","68974.771623","69741.947093","55864.8630851","56632.2577572","57399.142297","68984.1948547","Mapping"
"Blocked","Female","tile","13","F_lash.wav","space","635.355344508","114","65905.703994","58166.5212018","58933.9168016","59701.1856409","60468.173753","61235.529779","62002.8332458","62770.1262007","66672.7755824","67440.1269704","68207.2820351","68974.771623","69741.947093","70509.1392579","56632.2577572","57399.142297","69751.0778485","Mapping"
"Blocked","Female","tile","13","F_done.wav","None","722.329246812","114","65905.703994","58166.5212018","58933.9168016","59701.1856409","60468.173753","61235.529779","62002.8332458","62770.1262007","66672.7755824","67440.1269704","68207.2820351","68974.771623","69741.947093","70509.1392579","71276.1796201","57399.142297","70518.8166285","Mapping"
"Blocked","Female","tile","13","F_cling.wav","None","722.991492134","114","65905.703994","58166.5212018","58933.9168016","59701.1856409","60468.173753","61235.529779","62002.8332458","62770.1262007","66672.7755824","67440.1269704","68207.2820351","68974.771623","69741.947093","70509.1392579","71276.1796201","72043.7465007","71285.5184479","Mapping"
"Blocked","Female","tile","13","F_tile.wav","None","722.063668538","114","65905.703994","72811.0610978","58933.9168016","59701.1856409","60468.173753","61235.529779","62002.8332458","62770.1262007","66672.7755824","67440.1269704","68207.2820351","68974.771623","69741.947093","70509.1392579","71276.1796201","72043.7465007","72053.248262","Mapping"
"Blocked","Female","tile","13","F_done.wav","space","438.265759498","114","65905.703994","72811.0610978","73577.8766922","59701.1856409","60468.173753","61235.529779","62002.8332458","62770.1262007","66672.7755824","67440.1269704","68207.2820351","68974.771623","69741.947093","70509.1392579","71276.1796201","72043.7465007","72820.1195071","Mapping"
"Blocked","Female","tile","13","F_jaw.wav","None","723.605815321","114","65905.703994","72811.0610978","73577.8766922","74345.240138","60468.173753","61235.529779","62002.8332458","62770.1262007","66672.7755824","67440.1269704","68207.2820351","68974.771623","69741.947093","70509.1392579","71276.1796201","72043.7465007","73587.0460942","Mapping"
"Blocked","Female","tile","13","F_tile.wav","None","723.289533053","114","65905.703994","72811.0610978","73577.8766922","74345.240138","75112.6212068","61235.529779","62002.8332458","62770.1262007","66672.7755824","67440.1269704","68207.2820351","68974.771623","69741.947093","70509.1392579","71276.1796201","72043.7465007","74354.5455756","Mapping"
"Blocked","Female","tile","13","F_depth.wav","space","624.389348086","114","65905.703994","72811.0610978","73577.8766922","74345.240138","75112.6212068","75879.8241927","62002.8332458","62770.1262007","66672.7755824","67440.1269704","68207.2820351","68974.771623","69741.947093","70509.1392579","71276.1796201","72043.7465007","75121.9504504","Mapping"
"Blocked","Female","tile","13","F_depth.wav","None","728.738058824","114","65905.703994","72811.0610978","73577.8766922","74345.240138","75112.6212068","75879.8241927","76647.0182128","62770.1262007","66672.7755824","67440.1269704","68207.2820351","68974.771623","69741.947093","70509.1392579","71276.1796201","72043.7465007","75883.3781169","Mapping"
"Blocked","Female","tile","13","F_gnash.wav","None","722.947280854","114","65905.703994","72811.0610978","73577.8766922","74345.240138","75112.6212068","75879.8241927","76647.0182128","77413.9528386","66672.7755824","67440.1269704","68207.2820351","68974.771623","69741.947093","70509.1392579","71276.1796201","72043.7465007","76656.1721563","Mapping"
"Blocked","Female","done","24","F_reek.wav","None","723.593139555","114","80549.8926714","72811.0610978","73577.8766922","74345.240138","75112.6212068","75879.8241927","76647.0182128","77413.9528386","66672.7755824","67440.1269704","68207.2820351","68974.771623","69741.947093","70509.1392579","71276.1796201","72043.7465007","77423.1661428","Mapping"
"Blocked","Female","done","24","F_done.wav","None","724.214264192","114","80549.8926714","72811.0610978","73577.8766922","74345.240138","75112.6212068","75879.8241927","76647.0182128","77413.9528386","81317.1992297","67440.1269704","68207.2820351","68974.771623","69741.947093","70509.1392579","71276.1796201","72043.7465007","80558.6564406","Mapping"
"Blocked","Female","done","24","F_lash.wav","space","668.209740892","114","80549.8926714","72811.0610978","73577.8766922","74345.240138","75112.6212068","75879.8241927","76647.0182128","77413.9528386","81317.1992297","82084.4040709","68207.2820351","68974.771623","69741.947093","70509.1392579","71276.1796201","72043.7465007","81326.0090654","Mapping"
"Blocked","Female","done","24","F_done.wav","None","723.702276591","114","80549.8926714","72811.0610978","73577.8766922","74345.240138","75112.6212068","75879.8241927","76647.0182128","77413.9528386","81317.1992297","82084.4040709","82851.6939343","68974.771623","69741.947093","70509.1392579","71276.1796201","72043.7465007","82093.9015038","Mapping"
"Blocked","Female","done","24","F_bluff.wav","space","653.484221082","114","80549.8926714","72811.0610978","73577.8766922","74345.240138","75112.6212068","75879.8241927","76647.0182128","77413.9528386","81317.1992297","82084.4040709","82851.6939343","83618.5719813","69741.947093","70509.1392579","71276.1796201","72043.7465007","82860.7065864","Mapping"
"Blocked","Female","done","24","F_depth.wav","None","724.607530516","114","80549.8926714","72811.0610978","73577.8766922","74345.240138","75112.6212068","75879.8241927","76647.0182128","77413.9528386","81317.1992297","82084.4040709","82851.6939343","83618.5719813","84385.9106936","70509.1392579","71276.1796201","72043.7465007","83627.7685901","Mapping"
"Blocked","Female","done","24","F_greet.wav","None","724.570120685","114","80549.8926714","72811.0610978","73577.8766922","74345.240138","75112.6212068","75879.8241927","76647.0182128","77413.9528386","81317.1992297","82084.4040709","82851.6939343","83618.5719813","84385.9106936","85153.2633184","71276.1796201","72043.7465007","84395.2034549","Mapping"
"Blocked","Female","done","24","F_reek.wav","None","724.26713258","114","80549.8926714","72811.0610978","73577.8766922","74345.240138","75112.6212068","75879.8241927","76647.0182128","77413.9528386","81317.1992297","82084.4040709","82851.6939343","83618.5719813","84385.9106936","85153.2633184","85920.3491285","72043.7465007","85162.7415828","Mapping"
"Blocked","Female","done","24","F_cad.wav","None","724.792723544","114","80549.8926714","72811.0610978","73577.8766922","74345.240138","75112.6212068","75879.8241927","76647.0182128","77413.9528386","81317.1992297","82084.4040709","82851.6939343","83618.5719813","84385.9106936","85153.2633184","85920.3491285","86687.8282046","85929.5166759","Mapping"
"Blocked","Female","done","24","F_done.wav","None","724.337314721","114","80549.8926714","87454.9430772","73577.8766922","74345.240138","75112.6212068","75879.8241927","76647.0182128","77413.9528386","81317.1992297","82084.4040709","82851.6939343","83618.5719813","84385.9106936","85153.2633184","85920.3491285","86687.8282046","86697.1478639","Mapping"
"Blocked","Female","done","24","F_gnash.wav","space","425.864280667","114","80549.8926714","87454.9430772","88222.2106801","74345.240138","75112.6212068","75879.8241927","76647.0182128","77413.9528386","81317.1992297","82084.4040709","82851.6939343","83618.5719813","84385.9106936","85153.2633184","85920.3491285","86687.8282046","87464.2302734","Mapping"
"Blocked","Female","done","24","F_done.wav","None","723.881595768","114","80549.8926714","87454.9430772","88222.2106801","88989.5895845","75112.6212068","75879.8241927","76647.0182128","77413.9528386","81317.1992297","82084.4040709","82851.6939343","83618.5719813","84385.9106936","85153.2633184","85920.3491285","86687.8282046","88231.6957461","Mapping"
"Blocked","Female","done","24","F_cad.wav","space","515.388227999","114","80549.8926714","87454.9430772","88222.2106801","88989.5895845","89756.667356","75879.8241927","76647.0182128","77413.9528386","81317.1992297","82084.4040709","82851.6939343","83618.5719813","84385.9106936","85153.2633184","85920.3491285","86687.8282046","88998.5969807","Mapping"
"Blocked","Female","done","24","F_priest.wav","None","724.328348879","114","80549.8926714","87454.9430772","88222.2106801","88989.5895845","89756.667356","90523.9259931","76647.0182128","77413.9528386","81317.1992297","82084.4040709","82851.6939343","83618.5719813","84385.9106936","85153.2633184","85920.3491285","86687.8282046","89765.6138455","Mapping"
"Blocked","Female","done","24","F_cling.wav","None","723.604269791","114","80549.8926714","87454.9430772","88222.2106801","88989.5895845","89756.667356","90523.9259931","91291.7940067","77413.9528386","81317.1992297","82084.4040709","82851.6939343","83618.5719813","84385.9106936","85153.2633184","85920.3491285","86687.8282046","90533.32109","Mapping"
"Blocked","Female","done","24","F_jaw.wav","None","723.089808598","114","80549.8926714","87454.9430772","88222.2106801","88989.5895845","89756.667356","90523.9259931","91291.7940067","92058.4853142","81317.1992297","82084.4040709","82851.6939343","83618.5719813","84385.9106936","85153.2633184","85920.3491285","86687.8282046","91301.2354793","Mapping"
"Blocked","Female","done","22","F_lash.wav","None","723.95146871","114","95194.1543128","87454.9430772","88222.2106801","88989.5895845","89756.667356","90523.9259931","91291.7940067","92058.4853142","81317.1992297","82084.4040709","82851.6939343","83618.5719813","84385.9106936","85153.2633184","85920.3491285","86687.8282046","92067.674194","Mapping"
"Blocked","Female","done","22","F_done.wav","None","722.933676559","114","95194.1543128","87454.9430772","88222.2106801","88989.5895845","89756.667356","90523.9259931","91291.7940067","92058.4853142","95961.3069044","82084.4040709","82851.6939343","83618.5719813","84385.9106936","85153.2633184","85920.3491285","86687.8282046","95203.4309977","Mapping"
"Blocked","Female","done","22","F_gnash.wav","space","583.330473397","114","95194.1543128","87454.9430772","88222.2106801","88989.5895845","89756.667356","90523.9259931","91291.7940067","92058.4853142","95961.3069044","96728.1926805","82851.6939343","83618.5719813","84385.9106936","85153.2633184","85920.3491285","86687.8282046","95970.5007309","Mapping"
"Blocked","Female","done","22","F_ball.wav","None","724.549097009","114","95194.1543128","87454.9430772","88222.2106801","88989.5895845","89756.667356","90523.9259931","91291.7940067","92058.4853142","95961.3069044","96728.1926805","97495.5168618","83618.5719813","84385.9106936","85153.2633184","85920.3491285","86687.8282046","96737.2588194","Mapping"
"Blocked","Female","done","22","F_jolt.wav","None","724.625153001","114","95194.1543128","87454.9430772","88222.2106801","88989.5895845","89756.667356","90523.9259931","91291.7940067","92058.4853142","95961.3069044","96728.1926805","97495.5168618","98263.2553326","84385.9106936","85153.2633184","85920.3491285","86687.8282046","97504.5165289","Mapping"
"Blocked","Female","done","22","F_ball.wav","None","724.162632599","114","95194.1543128","87454.9430772","88222.2106801","88989.5895845","89756.667356","90523.9259931","91291.7940067","92058.4853142","95961.3069044","96728.1926805","97495.5168618","98263.2553326","99030.03259","85153.2633184","85920.3491285","86687.8282046","98272.3882524","Mapping"
"Blocked","Female","done","22","F_done.wav","None","724.74171035","114","95194.1543128","87454.9430772","88222.2106801","88989.5895845","89756.667356","90523.9259931","91291.7940067","92058.4853142","95961.3069044","96728.1926805","97495.5168618","98263.2553326","99030.03259","99797.410876","85920.3491285","86687.8282046","99039.3664711","Mapping"
"Blocked","Female","done","22","F_jolt.wav","space","603.108470328","114","95194.1543128","87454.9430772","88222.2106801","88989.5895845","89756.667356","90523.9259931","91291.7940067","92058.4853142","95961.3069044","96728.1926805","97495.5168618","98263.2553326","99030.03259","99797.410876","100564.639832","86687.8282046","99806.6402571","Mapping"
"Blocked","Female","done","22","F_reek.wav","None","724.958439823","114","95194.1543128","87454.9430772","88222.2106801","88989.5895845","89756.667356","90523.9259931","91291.7940067","92058.4853142","95961.3069044","96728.1926805","97495.5168618","98263.2553326","99030.03259","99797.410876","100564.639832","101331.912073","100573.470074","Mapping"
"Blocked","Female","done","22","F_romp.wav","None","724.691933952","114","95194.1543128","102099.277992","88222.2106801","88989.5895845","89756.667356","90523.9259931","91291.7940067","92058.4853142","95961.3069044","96728.1926805","97495.5168618","98263.2553326","99030.03259","99797.410876","100564.639832","101331.912073","101341.23266","Mapping"
"Blocked","Female","done","22","F_done.wav","None","725.609554444","114","95194.1543128","102099.277992","102866.097297","88989.5895845","89756.667356","90523.9259931","91291.7940067","92058.4853142","95961.3069044","96728.1926805","97495.5168618","98263.2553326","99030.03259","99797.410876","100564.639832","101331.912073","102108.343822","Mapping"
"Blocked","Female","done","22","F_ball.wav","space","518.208179623","114","95194.1543128","102099.277992","102866.097297","103633.578228","89756.667356","90523.9259931","91291.7940067","92058.4853142","95961.3069044","96728.1926805","97495.5168618","98263.2553326","99030.03259","99797.410876","100564.639832","101331.912073","102875.444163","Mapping"
"Blocked","Female","done","22","F_done.wav","None","726.000965573","114","95194.1543128","102099.277992","102866.097297","103633.578228","104400.808112","90523.9259931","91291.7940067","92058.4853142","95961.3069044","96728.1926805","97495.5168618","98263.2553326","99030.03259","99797.410876","100564.639832","101331.912073","103642.633855","Mapping"
"Blocked","Female","done","22","F_tile.wav","space","655.891737901","114","95194.1543128","102099.277992","102866.097297","103633.578228","104400.808112","105168.172795","91291.7940067","92058.4853142","95961.3069044","96728.1926805","97495.5168618","98263.2553326","99030.03259","99797.410876","100564.639832","101331.912073","104409.71781","Mapping"
"Blocked","Female","done","22","F_jaw.wav","None","725.68746563","114","95194.1543128","102099.277992","102866.097297","103633.578228","104400.808112","105168.172795","105935.276846","92058.4853142","95961.3069044","96728.1926805","97495.5168618","98263.2553326","99030.03259","99797.410876","100564.639832","101331.912073","105177.2479","Mapping"
"Blocked","Female","done","22","F_greet.wav","None","725.120136049","114","95194.1543128","102099.277992","102866.097297","103633.578228","104400.808112","105168.172795","105935.276846","106702.437785","95961.3069044","96728.1926805","97495.5168618","98263.2553326","99030.03259","99797.410876","100564.639832","101331.912073","105944.681837","Mapping"
"Blocked","Female","ball","5","F_knife.wav","None","726.051978301","114","109838.241582","102099.277992","102866.097297","103633.578228","104400.808112","105168.172795","105935.276846","106702.437785","95961.3069044","96728.1926805","97495.5168618","98263.2553326","99030.03259","99797.410876","100564.639832","101331.912073","106711.430341","Mapping"
"Blocked","Female","ball","5","F_dime.wav","None","723.605506122","114","109838.241582","102099.277992","102866.097297","103633.578228","104400.808112","105168.172795","105935.276846","106702.437785","110605.23124","96728.1926805","97495.5168618","98263.2553326","99030.03259","99797.410876","100564.639832","101331.912073","109847.226409","Mapping"
"Blocked","Female","ball","5","F_ball.wav","None","724.280426744","114","109838.241582","102099.277992","102866.097297","103633.578228","104400.808112","105168.172795","105935.276846","106702.437785","110605.23124","111372.530378","97495.5168618","98263.2553326","99030.03259","99797.410876","100564.639832","101331.912073","110614.202154","Mapping"
"Blocked","Female","ball","5","F_dime.wav","space","307.673044037","114","109838.241582","102099.277992","102866.097297","103633.578228","104400.808112","105168.172795","105935.276846","106702.437785","110605.23124","111372.530378","112140.005126","98263.2553326","99030.03259","99797.410876","100564.639832","101331.912073","111381.807063","Mapping"
"Blocked","Female","ball","5","F_ball.wav","None","723.712170497","114","109838.241582","102099.277992","102866.097297","103633.578228","104400.808112","105168.172795","105935.276846","106702.437785","110605.23124","111372.530378","112140.005126","112907.102067","99030.03259","99797.410876","100564.639832","101331.912073","112149.068791","Mapping"
"Blocked","Female","ball","5","F_depth.wav","space","485.112010967","114","109838.241582","102099.277992","102866.097297","103633.578228","104400.808112","105168.172795","105935.276846","106702.437785","110605.23124","111372.530378","112140.005126","112907.102067","113674.228069","99797.410876","100564.639832","101331.912073","112916.318463","Mapping"
"Blocked","Female","ball","5","F_jolt.wav","None","723.17081131","114","109838.241582","102099.277992","102866.097297","103633.578228","104400.808112","105168.172795","105935.276846","106702.437785","110605.23124","111372.530378","112140.005126","112907.102067","113674.228069","114441.400447","100564.639832","101331.912073","113683.672324","Mapping"
"Blocked","Female","ball","5","F_knife.wav","None","724.144082516","114","109838.241582","102099.277992","102866.097297","103633.578228","104400.808112","105168.172795","105935.276846","106702.437785","110605.23124","111372.530378","112140.005126","112907.102067","113674.228069","114441.400447","115208.991752","101331.912073","114450.476788","Mapping"
"Blocked","Female","ball","5","F_depth.wav","None","724.324947689","114","109838.241582","102099.277992","102866.097297","103633.578228","104400.808112","105168.172795","105935.276846","106702.437785","110605.23124","111372.530378","112140.005126","112907.102067","113674.228069","114441.400447","115208.991752","115976.046027","115218.007805","Mapping"
"Blocked","Female","ball","5","F_ball.wav","None","724.542604294","114","109838.241582","116743.085771","102866.097297","103633.578228","104400.808112","105168.172795","105935.276846","106702.437785","110605.23124","111372.530378","112140.005126","112907.102067","113674.228069","114441.400447","115208.991752","115976.046027","115985.019105","Mapping"
"Blocked","Female","ball","5","F_cave.wav","space","464.995472226","114","109838.241582","116743.085771","117510.527437","103633.578228","104400.808112","105168.172795","105935.276846","106702.437785","110605.23124","111372.530378","112140.005126","112907.102067","113674.228069","114441.400447","115208.991752","115976.046027","116752.350707","Mapping"
"Blocked","Female","ball","5","F_reek.wav","None","723.939720076","114","109838.241582","116743.085771","117510.527437","118277.889646","104400.808112","105168.172795","105935.276846","106702.437785","110605.23124","111372.530378","112140.005126","112907.102067","113674.228069","114441.400447","115208.991752","115976.046027","117520.024252","Mapping"
"Blocked","Female","ball","5","F_ball.wav","None","724.422954954","114","109838.241582","116743.085771","117510.527437","118277.889646","119044.960925","105168.172795","105935.276846","106702.437785","110605.23124","111372.530378","112140.005126","112907.102067","113674.228069","114441.400447","115208.991752","115976.046027","118286.960732","Mapping"
"Blocked","Female","ball","5","F_cad.wav","space","619.411380962","114","109838.241582","116743.085771","117510.527437","118277.889646","119044.960925","119811.904517","105935.276846","106702.437785","110605.23124","111372.530378","112140.005126","112907.102067","113674.228069","114441.400447","115208.991752","115976.046027","119053.832287","Mapping"
"Blocked","Female","ball","5","F_cling.wav","None","725.480939262","114","109838.241582","116743.085771","117510.527437","118277.889646","119044.960925","119811.904517","120579.251886","106702.437785","110605.23124","111372.530378","112140.005126","112907.102067","113674.228069","114441.400447","115208.991752","115976.046027","119820.930772","Mapping"
"Blocked","Female","ball","5","F_greet.wav","None","726.093407255","114","109838.241582","116743.085771","117510.527437","118277.889646","119044.960925","119811.904517","120579.251886","121346.863906","110605.23124","111372.530378","112140.005126","112907.102067","113674.228069","114441.400447","115208.991752","115976.046027","120588.460244","Mapping"
"Blocked","Female","ball","1","F_greet.wav","None","726.433495991","114","124482.33287","116743.085771","117510.527437","118277.889646","119044.960925","119811.904517","120579.251886","121346.863906","110605.23124","111372.530378","112140.005126","112907.102067","113674.228069","114441.400447","115208.991752","115976.046027","121355.828946","Mapping"
"Blocked","Female","ball","1","F_ball.wav","None","723.042504862","114","124482.33287","116743.085771","117510.527437","118277.889646","119044.960925","119811.904517","120579.251886","121346.863906","125249.610058","111372.530378","112140.005126","112907.102067","113674.228069","114441.400447","115208.991752","115976.046027","124491.636144","Mapping"
"Blocked","Female","ball","1","F_priest.wav","space","590.371231548","114","124482.33287","116743.085771","117510.527437","118277.889646","119044.960925","119811.904517","120579.251886","121346.863906","125249.610058","126017.13922","112140.005126","112907.102067","113674.228069","114441.400447","115208.991752","115976.046027","125258.770494","Mapping"
"Blocked","Female","ball","1","F_tile.wav","None","722.856384236","114","124482.33287","116743.085771","117510.527437","118277.889646","119044.960925","119811.904517","120579.251886","121346.863906","125249.610058","126017.13922","126783.988514","112907.102067","113674.228069","114441.400447","115208.991752","115976.046027","126026.184026","Mapping"
"Blocked","Female","ball","1","F_ball.wav","None","723.816670477","114","124482.33287","116743.085771","117510.527437","118277.889646","119044.960925","119811.904517","120579.251886","121346.863906","125249.610058","126017.13922","126783.988514","127551.254262","113674.228069","114441.400447","115208.991752","115976.046027","126792.951389","Mapping"
"Blocked","Female","ball","1","F_tile.wav","space","657.128114253","114","124482.33287","116743.085771","117510.527437","118277.889646","119044.960925","119811.904517","120579.251886","121346.863906","125249.610058","126017.13922","126783.988514","127551.254262","128318.526193","114441.400447","115208.991752","115976.046027","127559.980621","Mapping"
"Blocked","Female","ball","1","F_tile.wav","None","723.522648215","114","124482.33287","116743.085771","117510.527437","118277.889646","119044.960925","119811.904517","120579.251886","121346.863906","125249.610058","126017.13922","126783.988514","127551.254262","128318.526193","129085.462364","115208.991752","115976.046027","128327.926237","Mapping"
"Blocked","Female","ball","1","F_ball.wav","None","724.331749603","114","124482.33287","116743.085771","117510.527437","118277.889646","119044.960925","119811.904517","120579.251886","121346.863906","125249.610058","126017.13922","126783.988514","127551.254262","128318.526193","129085.462364","129853.026771","115976.046027","129094.865809","Mapping"
"Blocked","Female","ball","1","F_knife.wav","space","579.030210152","114","124482.33287","116743.085771","117510.527437","118277.889646","119044.960925","119811.904517","120579.251886","121346.863906","125249.610058","126017.13922","126783.988514","127551.254262","128318.526193","129085.462364","129853.026771","130620.203169","129861.986246","Mapping"
"Blocked","Female","ball","1","F_priest.wav","None","723.586955573","114","124482.33287","131387.438618","117510.527437","118277.889646","119044.960925","119811.904517","120579.251886","121346.863906","125249.610058","126017.13922","126783.988514","127551.254262","128318.526193","129085.462364","129853.026771","130620.203169","130629.553746","Mapping"
"Blocked","Female","ball","1","F_tile.wav","None","723.641369957","114","124482.33287","131387.438618","132154.619653","118277.889646","119044.960925","119811.904517","120579.251886","121346.863906","125249.610058","126017.13922","126783.988514","127551.254262","128318.526193","129085.462364","129853.026771","130620.203169","131396.699226","Mapping"
"Blocked","Female","ball","1","F_reek.wav","None","724.419244565","114","124482.33287","131387.438618","132154.619653","132921.826968","119044.960925","119811.904517","120579.251886","121346.863906","125249.610058","126017.13922","126783.988514","127551.254262","128318.526193","129085.462364","129853.026771","130620.203169","132164.035465","Mapping"
"Blocked","Female","ball","1","F_ball.wav","None","725.582656451","114","124482.33287","131387.438618","132154.619653","132921.826968","133689.237098","119811.904517","120579.251886","121346.863906","125249.610058","126017.13922","126783.988514","127551.254262","128318.526193","129085.462364","129853.026771","130620.203169","132930.78366","Mapping"
"Blocked","Female","ball","1","F_jaw.wav","space","486.308504362","114","124482.33287","131387.438618","132154.619653","132921.826968","133689.237098","134456.313943","120579.251886","121346.863906","125249.610058","126017.13922","126783.988514","127551.254262","128318.526193","129085.462364","129853.026771","130620.203169","133698.602824","Mapping"
"Blocked","Female","ball","1","F_priest.wav","None","724.561463576","114","124482.33287","131387.438618","132154.619653","132921.826968","133689.237098","134456.313943","135223.592367","121346.863906","125249.610058","126017.13922","126783.988514","127551.254262","128318.526193","129085.462364","129853.026771","130620.203169","134465.685852","Mapping"
"Blocked","Female","ball","1","F_reek.wav","None","725.168366916","114","124482.33287","131387.438618","132154.619653","132921.826968","133689.237098","134456.313943","135223.592367","135990.877901","125249.610058","126017.13922","126783.988514","127551.254262","128318.526193","129085.462364","129853.026771","130620.203169","135232.913571","Mapping"
"Blocked","Female","ball","3","F_depth.wav","None","726.27334483","114","139126.494032","131387.438618","132154.619653","132921.826968","133689.237098","134456.313943","135223.592367","135990.877901","125249.610058","126017.13922","126783.988514","127551.254262","128318.526193","129085.462364","129853.026771","130620.203169","135999.686191","Mapping"
"Blocked","Female","ball","3","F_gnash.wav","None","722.620177083","114","139126.494032","131387.438618","132154.619653","132921.826968","133689.237098","134456.313943","135223.592367","135990.877901","139893.805537","126017.13922","126783.988514","127551.254262","128318.526193","129085.462364","129853.026771","130620.203169","139135.626952","Mapping"
"Blocked","Female","ball","3","F_depth.wav","None","723.063838203","114","139126.494032","131387.438618","132154.619653","132921.826968","133689.237098","134456.313943","135223.592367","135990.877901","139893.805537","140660.618658","126783.988514","127551.254262","128318.526193","129085.462364","129853.026771","130620.203169","139902.626503","Mapping"
"Blocked","Female","ball","3","F_bluff.wav","None","723.532232456","114","139126.494032","131387.438618","132154.619653","132921.826968","133689.237098","134456.313943","135223.592367","135990.877901","139893.805537","140660.618658","141428.328685","127551.254262","128318.526193","129085.462364","129853.026771","130620.203169","140669.619252","Mapping"
"Blocked","Female","ball","3","F_bluff.wav","space","299.020576291","114","139126.494032","131387.438618","132154.619653","132921.826968","133689.237098","134456.313943","135223.592367","135990.877901","139893.805537","140660.618658","141428.328685","142195.324217","128318.526193","129085.462364","129853.026771","130620.203169","141437.711106","Mapping"
"Blocked","Female","ball","3","F_ball.wav","None","723.18565147","114","139126.494032","131387.438618","132154.619653","132921.826968","133689.237098","134456.313943","135223.592367","135990.877901","139893.805537","140660.618658","141428.328685","142195.324217","142962.615317","129085.462364","129853.026771","130620.203169","142204.400868","Mapping"
"Blocked","Female","ball","3","F_park.wav","None","723.35909633","114","139126.494032","131387.438618","132154.619653","132921.826968","133689.237098","134456.313943","135223.592367","135990.877901","139893.805537","140660.618658","141428.328685","142195.324217","142962.615317","143729.863751","129853.026771","130620.203169","142971.950744","Mapping"
"Blocked","Female","ball","3","F_ball.wav","None","723.652190529","114","139126.494032","131387.438618","132154.619653","132921.826968","133689.237098","134456.313943","135223.592367","135990.877901","139893.805537","140660.618658","141428.328685","142195.324217","142962.615317","143729.863751","144497.256259","130620.203169","143739.353455","Mapping"
"Blocked","Female","ball","3","F_romp.wav","space","438.099116087","114","139126.494032","131387.438618","132154.619653","132921.826968","133689.237098","134456.313943","135223.592367","135990.877901","139893.805537","140660.618658","141428.328685","142195.324217","142962.615317","143729.863751","144497.256259","145264.253647","144506.604981","Mapping"
"Blocked","Female","ball","3","F_priest.wav","None","723.354768474","114","139126.494032","146031.626059","132154.619653","132921.826968","133689.237098","134456.313943","135223.592367","135990.877901","139893.805537","140660.618658","141428.328685","142195.324217","142962.615317","143729.863751","144497.256259","145264.253647","145273.733147","Mapping"
"Blocked","Female","ball","3","F_ball.wav","None","724.337932654","114","139126.494032","146031.626059","146798.611079","132921.826968","133689.237098","134456.313943","135223.592367","135990.877901","139893.805537","140660.618658","141428.328685","142195.324217","142962.615317","143729.863751","144497.256259","145264.253647","146040.488763","Mapping"
"Blocked","Female","ball","3","F_jaw.wav","space","536.852135323","114","139126.494032","146031.626059","146798.611079","147566.109015","133689.237098","134456.313943","135223.592367","135990.877901","139893.805537","140660.618658","141428.328685","142195.324217","142962.615317","143729.863751","144497.256259","145264.253647","146807.700097","Mapping"
"Blocked","Female","ball","3","F_ball.wav","None","723.572734278","114","139126.494032","146031.626059","146798.611079","147566.109015","148333.230689","134456.313943","135223.592367","135990.877901","139893.805537","140660.618658","141428.328685","142195.324217","142962.615317","143729.863751","144497.256259","145264.253647","147575.087967","Mapping"
"Blocked","Female","ball","3","F_reek.wav","space","594.012650661","114","139126.494032","146031.626059","146798.611079","147566.109015","148333.230689","149100.324846","135223.592367","135990.877901","139893.805537","140660.618658","141428.328685","142195.324217","142962.615317","143729.863751","144497.256259","145264.253647","148342.570444","Mapping"
"Blocked","Female","ball","3","F_cave.wav","None","722.183936741","114","139126.494032","146031.626059","146798.611079","147566.109015","148333.230689","149100.324846","149867.991899","135990.877901","139893.805537","140660.618658","141428.328685","142195.324217","142962.615317","143729.863751","144497.256259","145264.253647","149110.569237","Mapping"
"Blocked","Female","ball","3","F_cad.wav","None","723.650954198","114","139126.494032","146031.626059","146798.611079","147566.109015","148333.230689","149100.324846","149867.991899","150634.762354","139893.805537","140660.618658","141428.328685","142195.324217","142962.615317","143729.863751","144497.256259","145264.253647","149877.26209","Mapping"
"Blocked","Female","cave","9","F_jaw.wav","None","724.46345631","114","153770.627367","146031.626059","146798.611079","147566.109015","148333.230689","149100.324846","149867.991899","150634.762354","139893.805537","140660.618658","141428.328685","142195.324217","142962.615317","143729.863751","144497.256259","145264.253647","150644.200117","Mapping"
"Blocked","Female","cave","9","F_greet.wav","None","723.383521196","114","153770.627367","146031.626059","146798.611079","147566.109015","148333.230689","149100.324846","149867.991899","150634.762354","154537.651034","140660.618658","141428.328685","142195.324217","142962.615317","143729.863751","144497.256259","145264.253647","153779.693197","Mapping"
"Blocked","Female","cave","9","F_cave.wav","None","723.634568043","114","153770.627367","146031.626059","146798.611079","147566.109015","148333.230689","149100.324846","149867.991899","150634.762354","154537.651034","155305.059619","141428.328685","142195.324217","142962.615317","143729.863751","144497.256259","145264.253647","154547.115386","Mapping"
"Blocked","Female","cave","9","F_gnash.wav","space","526.107196696","114","153770.627367","146031.626059","146798.611079","147566.109015","148333.230689","149100.324846","149867.991899","150634.762354","154537.651034","155305.059619","156072.134299","142195.324217","142962.615317","143729.863751","144497.256259","145264.253647","155314.293019","Mapping"
"Blocked","Female","cave","9","F_reek.wav","None","724.105745554","114","153770.627367","146031.626059","146798.611079","147566.109015","148333.230689","149100.324846","149867.991899","150634.762354","154537.651034","155305.059619","156072.134299","156839.591733","142962.615317","143729.863751","144497.256259","145264.253647","156081.368009","Mapping"
"Blocked","Female","cave","9","F_cave.wav","None","723.94992318","114","153770.627367","146031.626059","146798.611079","147566.109015","148333.230689","149100.324846","149867.991899","150634.762354","154537.651034","155305.059619","156072.134299","156839.591733","157606.934774","143729.863751","144497.256259","145264.253647","156848.832863","Mapping"
"Blocked","Female","cave","9","F_tile.wav","space","408.353746403","114","153770.627367","146031.626059","146798.611079","147566.109015","148333.230689","149100.324846","149867.991899","150634.762354","154537.651034","155305.059619","156072.134299","156839.591733","157606.934774","158373.955658","144497.256259","145264.253647","157615.976797","Mapping"
"Blocked","Female","cave","9","F_cave.wav","None","724.646176677","114","153770.627367","146031.626059","146798.611079","147566.109015","148333.230689","149100.324846","149867.991899","150634.762354","154537.651034","155305.059619","156072.134299","156839.591733","157606.934774","158373.955658","159140.993237","145264.253647","158383.146702","Mapping"
"Blocked","Female","cave","9","F_depth.wav","None","725.600588135","114","153770.627367","146031.626059","146798.611079","147566.109015","148333.230689","149100.324846","149867.991899","150634.762354","154537.651034","155305.059619","156072.134299","156839.591733","157606.934774","158373.955658","159140.993237","159908.481898","159150.112863","Mapping"
"Blocked","Female","cave","9","F_priest.wav","space","42.7865236998","114","153770.627367","160675.810717","146798.611079","147566.109015","148333.230689","149100.324846","149867.991899","150634.762354","154537.651034","155305.059619","156072.134299","156839.591733","157606.934774","158373.955658","159140.993237","159908.481898","159917.527631","Mapping"
"Blocked","Female","cave","9","F_park.wav","None","725.362526719","114","153770.627367","160675.810717","161443.00721","147566.109015","148333.230689","149100.324846","149867.991899","150634.762354","154537.651034","155305.059619","156072.134299","156839.591733","157606.934774","158373.955658","159140.993237","159908.481898","160684.867271","Mapping"
"Blocked","Female","cave","9","F_romp.wav","None","725.554212928","114","153770.627367","160675.810717","161443.00721","162209.999342","148333.230689","149100.324846","149867.991899","150634.762354","154537.651034","155305.059619","156072.134299","156839.591733","157606.934774","158373.955658","159140.993237","159908.481898","161452.56926","Mapping"
"Blocked","Female","cave","9","F_jaw.wav","None","726.626418531","114","153770.627367","160675.810717","161443.00721","162209.999342","162977.219332","149100.324846","149867.991899","150634.762354","154537.651034","155305.059619","156072.134299","156839.591733","157606.934774","158373.955658","159140.993237","159908.481898","162218.988497","Mapping"
"Blocked","Female","cave","9","F_greet.wav","None","727.346788161","114","153770.627367","160675.810717","161443.00721","162209.999342","162977.219332","163744.642139","149867.991899","150634.762354","154537.651034","155305.059619","156072.134299","156839.591733","157606.934774","158373.955658","159140.993237","159908.481898","162986.10306","Mapping"
"Blocked","Female","cave","9","F_cave.wav","None","726.863552816","114","153770.627367","160675.810717","161443.00721","162209.999342","162977.219332","163744.642139","164511.513384","150634.762354","154537.651034","155305.059619","156072.134299","156839.591733","157606.934774","158373.955658","159140.993237","159908.481898","163754.191822","Mapping"
"Blocked","Female","cave","9","F_jaw.wav","space","663.413875736","114","153770.627367","160675.810717","161443.00721","162209.999342","162977.219332","163744.642139","164511.513384","165279.073154","154537.651034","155305.059619","156072.134299","156839.591733","157606.934774","158373.955658","159140.993237","159908.481898","164520.787286","Mapping"
"Blocked","Female","tile","17","F_depth.wav","None","727.123256773","114","168414.688975","160675.810717","161443.00721","162209.999342","162977.219332","163744.642139","164511.513384","165279.073154","154537.651034","155305.059619","156072.134299","156839.591733","157606.934774","158373.955658","159140.993237","159908.481898","165288.24843","Mapping"
"Blocked","Female","tile","17","F_ball.wav","None","723.2477949","114","168414.688975","160675.810717","161443.00721","162209.999342","162977.219332","163744.642139","164511.513384","165279.073154","169181.976056","155305.059619","156072.134299","156839.591733","157606.934774","158373.955658","159140.993237","159908.481898","168423.695753","Mapping"
"Blocked","Female","tile","17","F_tile.wav","None","723.373627756","114","168414.688975","160675.810717","161443.00721","162209.999342","162977.219332","163744.642139","164511.513384","165279.073154","169181.976056","169949.349705","156072.134299","156839.591733","157606.934774","158373.955658","159140.993237","159908.481898","169191.113304","Mapping"
"Blocked","Female","tile","17","F_knife.wav","space","481.160802301","114","168414.688975","160675.810717","161443.00721","162209.999342","162977.219332","163744.642139","164511.513384","165279.073154","169181.976056","169949.349705","170716.510025","156839.591733","157606.934774","158373.955658","159140.993237","159908.481898","169958.891349","Mapping"
"Blocked","Female","tile","17","F_tile.wav","None","723.577062134","114","168414.688975","160675.810717","161443.00721","162209.999342","162977.219332","163744.642139","164511.513384","165279.073154","169181.976056","169949.349705","170716.510025","171483.634482","157606.934774","158373.955658","159140.993237","159908.481898","170725.677881","Mapping"
"Blocked","Female","tile","17","F_gnash.wav","space","562.862715684","114","168414.688975","160675.810717","161443.00721","162209.999342","162977.219332","163744.642139","164511.513384","165279.073154","169181.976056","169949.349705","170716.510025","171483.634482","172251.12747","158373.955658","159140.993237","159908.481898","171493.106253","Mapping"
"Blocked","Female","tile","17","F_done.wav","None","723.4917311","114","168414.688975","160675.810717","161443.00721","162209.999342","162977.219332","163744.642139","164511.513384","165279.073154","169181.976056","169949.349705","170716.510025","171483.634482","172251.12747","173018.517505","159140.993237","159908.481898","172260.334282","Mapping"
"Blocked","Female","tile","17","F_jolt.wav","None","723.753908649","114","168414.688975","160675.810717","161443.00721","162209.999342","162977.219332","163744.642139","164511.513384","165279.073154","169181.976056","169949.349705","170716.510025","171483.634482","172251.12747","173018.517505","173785.589403","159908.481898","173027.962379","Mapping"
"Blocked","Female","tile","17","F_tile.wav","None","725.033568218","114","168414.688975","160675.810717","161443.00721","162209.999342","162977.219332","163744.642139","164511.513384","165279.073154","169181.976056","169949.349705","170716.510025","171483.634482","172251.12747","173018.517505","173785.589403","174552.602557","173794.59278","Mapping"
"Blocked","Female","tile","17","F_lash.wav","space","478.380115237","114","168414.688975","175319.574593","161443.00721","162209.999342","162977.219332","163744.642139","164511.513384","165279.073154","169181.976056","169949.349705","170716.510025","171483.634482","172251.12747","173018.517505","173785.589403","174552.602557","174561.568834","Mapping"
"Blocked","Female","tile","17","F_jaw.wav","None","725.831848569","114","168414.688975","175319.574593","176087.084277","162209.999342","162977.219332","163744.642139","164511.513384","165279.073154","169181.976056","169949.349705","170716.510025","171483.634482","172251.12747","173018.517505","173785.589403","174552.602557","175328.762236","Mapping"
"Blocked","Female","tile","17","F_gnash.wav","None","726.025699172","114","168414.688975","175319.574593","176087.084277","176854.364247","162977.219332","163744.642139","164511.513384","165279.073154","169181.976056","169949.349705","170716.510025","171483.634482","172251.12747","173018.517505","173785.589403","174552.602557","176096.694248","Mapping"
"Blocked","Female","tile","17","F_tile.wav","None","727.101615164","114","168414.688975","175319.574593","176087.084277","176854.364247","177621.516529","163744.642139","164511.513384","165279.073154","169181.976056","169949.349705","170716.510025","171483.634482","172251.12747","173018.517505","173785.589403","174552.602557","176863.489746","Mapping"
"Blocked","Female","tile","17","F_done.wav","space","425.285202451","114","168414.688975","175319.574593","176087.084277","176854.364247","177621.516529","178388.762489","164511.513384","165279.073154","169181.976056","169949.349705","170716.510025","171483.634482","172251.12747","173018.517505","173785.589403","174552.602557","177630.584832","Mapping"
"Blocked","Female","tile","17","F_depth.wav","None","733.108812943","114","168414.688975","175319.574593","176087.084277","176854.364247","177621.516529","178388.762489","179155.967021","165279.073154","169181.976056","169949.349705","170716.510025","171483.634482","172251.12747","173018.517505","173785.589403","174552.602557","178392.388141","Mapping"
"Blocked","Female","tile","17","F_reek.wav","None","728.812259622","114","168414.688975","175319.574593","176087.084277","176854.364247","177621.516529","178388.762489","179155.967021","179923.042629","169181.976056","169949.349705","170716.510025","171483.634482","172251.12747","173018.517505","173785.589403","174552.602557","179165.163321","Mapping"
"Blocked","Female","tile","16","F_reek.wav","None","729.691543151","114","183058.94196","175319.574593","176087.084277","176854.364247","177621.516529","178388.762489","179155.967021","179923.042629","169181.976056","169949.349705","170716.510025","171483.634482","172251.12747","173018.517505","173785.589403","174552.602557","179932.278503","Mapping"
"Blocked","Female","tile","16","F_done.wav","None","722.965212539","114","183058.94196","175319.574593","176087.084277","176854.364247","177621.516529","178388.762489","179155.967021","179923.042629","183826.282528","169949.349705","170716.510025","171483.634482","172251.12747","173018.517505","173785.589403","174552.602557","183068.296556","Mapping"
"Blocked","Female","tile","16","F_knife.wav","None","723.731029779","114","183058.94196","175319.574593","176087.084277","176854.364247","177621.516529","178388.762489","179155.967021","179923.042629","183826.282528","184593.129348","170716.510025","171483.634482","172251.12747","173018.517505","173785.589403","174552.602557","183835.699576","Mapping"
"Blocked","Female","tile","16","F_tile.wav","None","725.059538614","114","183058.94196","175319.574593","176087.084277","176854.364247","177621.516529","178388.762489","179155.967021","179923.042629","183826.282528","184593.129348","185360.690973","171483.634482","172251.12747","173018.517505","173785.589403","174552.602557","184602.568657","Mapping"
"Blocked","Female","tile","16","F_dime.wav","space","365.610506386","114","183058.94196","175319.574593","176087.084277","176854.364247","177621.516529","178388.762489","179155.967021","179923.042629","183826.282528","184593.129348","185360.690973","186127.836762","172251.12747","173018.517505","173785.589403","174552.602557","185370.083288","Mapping"
"Blocked","Female","tile","16","F_tile.wav","None","726.026935503","114","183058.94196","175319.574593","176087.084277","176854.364247","177621.516529","178388.762489","179155.967021","179923.042629","183826.282528","184593.129348","185360.690973","186127.836762","186894.896602","173018.517505","173785.589403","174552.602557","186136.744915","Mapping"
"Blocked","Female","tile","16","F_gnash.wav","space","583.483822178","114","183058.94196","175319.574593","176087.084277","176854.364247","177621.516529","178388.762489","179155.967021","179923.042629","183826.282528","184593.129348","185360.690973","186127.836762","186894.896602","187662.313844","173785.589403","174552.602557","186904.115472","Mapping"
"Blocked","Female","tile","16","F_tile.wav","None","725.895228796","114","183058.94196","175319.574593","176087.084277","176854.364247","177621.516529","178388.762489","179155.967021","179923.042629","183826.282528","184593.129348","185360.690973","186127.836762","186894.896602","187662.313844","188429.617929","174552.602557","187671.627938","Mapping"
"Blocked","Female","tile","16","F_priest.wav","space","568.72058427","114","183058.94196","175319.574593","176087.084277","176854.364247","177621.516529","178388.762489","179155.967021","179923.042629","183826.282528","184593.129348","185360.690973","186127.836762","186894.896602","187662.313844","188429.617929","189196.753825","188438.90358","Mapping"
"Blocked","Female","tile","16","F_reek.wav","None","726.891069673","114","183058.94196","189964.124382","176087.084277","176854.364247","177621.516529","178388.762489","179155.967021","179923.042629","183826.282528","184593.129348","185360.690973","186127.836762","186894.896602","187662.313844","188429.617929","189196.753825","189205.680528","Mapping"
"Blocked","Female","tile","16","F_done.wav","None","727.309996262","114","183058.94196","189964.124382","190731.265225","176854.364247","177621.516529","178388.762489","179155.967021","179923.042629","183826.282528","184593.129348","185360.690973","186127.836762","186894.896602","187662.313844","188429.617929","189196.753825","189973.079838","Mapping"
"Blocked","Female","tile","16","F_greet.wav","None","728.244002908","114","183058.94196","189964.124382","190731.265225","191498.546741","177621.516529","178388.762489","179155.967021","179923.042629","183826.282528","184593.129348","185360.690973","186127.836762","186894.896602","187662.313844","188429.617929","189196.753825","190740.635588","Mapping"
"Blocked","Female","tile","16","F_tile.wav","None","729.333213065","114","183058.94196","189964.124382","190731.265225","191498.546741","192265.255053","178388.762489","179155.967021","179923.042629","183826.282528","184593.129348","185360.690973","186127.836762","186894.896602","187662.313844","188429.617929","189196.753825","191507.986668","Mapping"
"Blocked","Female","tile","16","F_cave.wav","space","437.563940417","114","183058.94196","189964.124382","190731.265225","191498.546741","192265.255053","193032.624682","179155.967021","179923.042629","183826.282528","184593.129348","185360.690973","186127.836762","186894.896602","187662.313844","188429.617929","189196.753825","192273.997798","Mapping"
"Blocked","Female","tile","16","F_done.wav","None","733.347802889","114","183058.94196","189964.124382","190731.265225","191498.546741","192265.255053","193032.624682","193799.654223","179923.042629","183826.282528","184593.129348","185360.690973","186127.836762","186894.896602","187662.313844","188429.617929","189196.753825","193041.486458","Mapping"
"Blocked","Female","tile","16","F_ball.wav","None","734.154121019","114","183058.94196","189964.124382","190731.265225","191498.546741","192265.255053","193032.624682","193799.654223","194567.508014","183826.282528","184593.129348","185360.690973","186127.836762","186894.896602","187662.313844","188429.617929","189196.753825","193808.984394","Mapping"
"Blocked","Female","tile","15","F_dime.wav","None","734.829660505","114","197703.050562","189964.124382","190731.265225","191498.546741","192265.255053","193032.624682","193799.654223","194567.508014","183826.282528","184593.129348","185360.690973","186127.836762","186894.896602","187662.313844","188429.617929","189196.753825","194576.448012","Mapping"
"Blocked","Female","tile","15","F_tile.wav","None","722.942642868","114","197703.050562","189964.124382","190731.265225","191498.546741","192265.255053","193032.624682","193799.654223","194567.508014","198470.025071","184593.129348","185360.690973","186127.836762","186894.896602","187662.313844","188429.617929","189196.753825","197712.065379","Mapping"
"Blocked","Female","tile","15","F_depth.wav","space","704.107000493","114","197703.050562","189964.124382","190731.265225","191498.546741","192265.255053","193032.624682","193799.654223","194567.508014","198470.025071","199237.525171","185360.690973","186127.836762","186894.896602","187662.313844","188429.617929","189196.753825","198479.238684","Mapping"
"Blocked","Female","tile","15","F_park.wav","None","722.369130235","114","197703.050562","189964.124382","190731.265225","191498.546741","192265.255053","193032.624682","193799.654223","194567.508014","198470.025071","199237.525171","200004.914587","186127.836762","186894.896602","187662.313844","188429.617929","189196.753825","199247.231294","Mapping"
"Blocked","Female","tile","15","F_tile.wav","None","723.671668675","114","197703.050562","189964.124382","190731.265225","191498.546741","192265.255053","193032.624682","193799.654223","194567.508014","198470.025071","199237.525171","200004.914587","200772.022967","186894.896602","187662.313844","188429.617929","189196.753825","200014.156644","Mapping"
"Blocked","Female","tile","15","F_dime.wav","space","650.003880262","114","197703.050562","189964.124382","190731.265225","191498.546741","192265.255053","193032.624682","193799.654223","194567.508014","198470.025071","199237.525171","200004.914587","200772.022967","201539.415165","187662.313844","188429.617929","189196.753825","200781.31882","Mapping"
"Blocked","Female","tile","15","F_lash.wav","None","723.444427829","114","197703.050562","189964.124382","190731.265225","191498.546741","192265.255053","193032.624682","193799.654223","194567.508014","198470.025071","199237.525171","200004.914587","200772.022967","201539.415165","202306.236634","188429.617929","189196.753825","201548.913835","Mapping"
"Blocked","Female","tile","15","F_knife.wav","None","724.642775953","114","197703.050562","189964.124382","190731.265225","191498.546741","192265.255053","193032.624682","193799.654223","194567.508014","198470.025071","199237.525171","200004.914587","200772.022967","201539.415165","202306.236634","203073.550613","189196.753825","202315.669759","Mapping"
"Blocked","Female","tile","15","F_lash.wav","None","725.10498669","114","197703.050562","189964.124382","190731.265225","191498.546741","192265.255053","193032.624682","193799.654223","194567.508014","198470.025071","199237.525171","200004.914587","200772.022967","201539.415165","202306.236634","203073.550613","203840.925189","203083.063504","Mapping"
"Blocked","Female","tile","15","F_ball.wav","None","726.482963189","114","197703.050562","204608.063558","190731.265225","191498.546741","192265.255053","193032.624682","193799.654223","194567.508014","198470.025071","199237.525171","200004.914587","200772.022967","201539.415165","202306.236634","203073.550613","203840.925189","203850.186106","Mapping"
"Blocked","Female","tile","15","F_cave.wav","None","727.637408767","114","197703.050562","204608.063558","205375.501205","191498.546741","192265.255053","193032.624682","193799.654223","194567.508014","198470.025071","199237.525171","200004.914587","200772.022967","201539.415165","202306.236634","203073.550613","203840.925189","204617.037255","Mapping"
"Blocked","Female","tile","15","F_tile.wav","None","727.852283046","114","197703.050562","204608.063558","205375.501205","206142.463965","192265.255053","193032.624682","193799.654223","194567.508014","198470.025071","199237.525171","200004.914587","200772.022967","201539.415165","202306.236634","203073.550613","203840.925189","205385.040995","Mapping"
"Blocked","Female","tile","15","F_ball.wav","space","415.508897509","114","197703.050562","204608.063558","205375.501205","206142.463965","206909.874405","193032.624682","193799.654223","194567.508014","198470.025071","199237.525171","200004.914587","200772.022967","201539.415165","202306.236634","203073.550613","203840.925189","206151.655628","Mapping"
"Blocked","Female","tile","15","F_tile.wav","None","728.583782446","114","197703.050562","204608.063558","205375.501205","206142.463965","206909.874405","207676.868082","193799.654223","194567.508014","198470.025071","199237.525171","200004.914587","200772.022967","201539.415165","202306.236634","203073.550613","203840.925189","206918.982901","Mapping"
"Blocked","Female","tile","15","F_priest.wav","space","648.992580827","114","197703.050562","204608.063558","205375.501205","206142.463965","206909.874405","207676.868082","208444.331082","194567.508014","198470.025071","199237.525171","200004.914587","200772.022967","201539.415165","202306.236634","203073.550613","203840.925189","207686.140129","Mapping"
"Blocked","Female","tile","15","F_dime.wav","None","729.182647076","114","197703.050562","204608.063558","205375.501205","206142.463965","206909.874405","207676.868082","208444.331082","209211.411327","198470.025071","199237.525171","200004.914587","200772.022967","201539.415165","202306.236634","203073.550613","203840.925189","208453.763898","Mapping"
"Blocked","Female","ball","2","F_done.wav","None","731.015105266","114","212346.987265","204608.063558","205375.501205","206142.463965","206909.874405","207676.868082","208444.331082","209211.411327","198470.025071","199237.525171","200004.914587","200772.022967","201539.415165","202306.236634","203073.550613","203840.925189","209220.753556","Mapping"
"Blocked","Female","ball","2","F_ball.wav","None","723.627457395","114","212346.987265","204608.063558","205375.501205","206142.463965","206909.874405","207676.868082","208444.331082","209211.411327","213114.546416","199237.525171","200004.914587","200772.022967","201539.415165","202306.236634","203073.550613","203840.925189","212355.900364","Mapping"
"Blocked","Female","ball","2","F_greet.wav","space","627.437158488","114","212346.987265","204608.063558","205375.501205","206142.463965","206909.874405","207676.868082","208444.331082","209211.411327","213114.546416","213881.750948","200004.914587","200772.022967","201539.415165","202306.236634","203073.550613","203840.925189","213123.576382","Mapping"
"Blocked","Female","ball","2","F_ball.wav","None","723.865518812","114","212346.987265","204608.063558","205375.501205","206142.463965","206909.874405","207676.868082","208444.331082","209211.411327","213114.546416","213881.750948","214648.624049","200772.022967","201539.415165","202306.236634","203073.550613","203840.925189","213890.799465","Mapping"
"Blocked","Female","ball","2","F_cling.wav","None","725.234838668","114","212346.987265","204608.063558","205375.501205","206142.463965","206909.874405","207676.868082","208444.331082","209211.411327","213114.546416","213881.750948","214648.624049","215416.150737","201539.415165","202306.236634","203073.550613","203840.925189","214657.750785","Mapping"
"Blocked","Female","ball","2","F_park.wav","space","0.0231876038015","114","212346.987265","204608.063558","205375.501205","206142.463965","206909.874405","207676.868082","208444.331082","209211.411327","213114.546416","213881.750948","214648.624049","215416.150737","216183.309821","202306.236634","203073.550613","203840.925189","215425.639204","Mapping"
"Blocked","Female","ball","2","F_ball.wav","None","725.601515733","114","212346.987265","204608.063558","205375.501205","206142.463965","206909.874405","207676.868082","208444.331082","209211.411327","213114.546416","213881.750948","214648.624049","215416.150737","216183.309821","216950.330396","203073.550613","203840.925189","216192.605056","Mapping"
"Blocked","Female","ball","2","F_done.wav","space","582.874446176","114","212346.987265","204608.063558","205375.501205","206142.463965","206909.874405","207676.868082","208444.331082","209211.411327","213114.546416","213881.750948","214648.624049","215416.150737","216183.309821","216950.330396","217717.930049","203840.925189","216960.017969","Mapping"
"Blocked","Female","ball","2","F_depth.wav","None","725.75610131","114","212346.987265","204608.063558","205375.501205","206142.463965","206909.874405","207676.868082","208444.331082","209211.411327","213114.546416","213881.750948","214648.624049","215416.150737","216183.309821","216950.330396","217717.930049","218485.042138","217726.770493","Mapping"
"Blocked","Female","ball","2","F_tile.wav","None","726.657954045","114","212346.987265","219252.395382","205375.501205","206142.463965","206909.874405","207676.868082","208444.331082","209211.411327","213114.546416","213881.750948","214648.624049","215416.150737","216183.309821","216950.330396","217717.930049","218485.042138","218494.378802","Mapping"
"Blocked","Female","ball","2","F_cad.wav","None","728.173821233","114","212346.987265","219252.395382","220019.92207","206142.463965","206909.874405","207676.868082","208444.331082","209211.411327","213114.546416","213881.750948","214648.624049","215416.150737","216183.309821","216950.330396","217717.930049","218485.042138","219261.355475","Mapping"
"Blocked","Female","ball","2","F_jaw.wav","None","728.828027379","114","212346.987265","219252.395382","220019.92207","220786.714168","206909.874405","207676.868082","208444.331082","209211.411327","213114.546416","213881.750948","214648.624049","215416.150737","216183.309821","216950.330396","217717.930049","218485.042138","220028.932558","Mapping"
"Blocked","Female","ball","2","F_cling.wav","None","730.611945968","114","212346.987265","219252.395382","220019.92207","220786.714168","221554.223233","207676.868082","208444.331082","209211.411327","213114.546416","213881.750948","214648.624049","215416.150737","216183.309821","216950.330396","217717.930049","218485.042138","220795.674879","Mapping"
"Blocked","Female","ball","2","F_greet.wav","None","730.743653141","114","212346.987265","219252.395382","220019.92207","220786.714168","221554.223233","222321.339651","208444.331082","209211.411327","213114.546416","213881.750948","214648.624049","215416.150737","216183.309821","216950.330396","217717.930049","218485.042138","221563.438702","Mapping"
"Blocked","Female","ball","2","F_ball.wav","None","731.441452168","114","212346.987265","219252.395382","220019.92207","220786.714168","221554.223233","222321.339651","223088.143189","209211.411327","213114.546416","213881.750948","214648.624049","215416.150737","216183.309821","216950.330396","217717.930049","218485.042138","222330.662403","Mapping"
"Blocked","Female","ball","2","F_knife.wav","space","437.16047192","114","212346.987265","219252.395382","220019.92207","220786.714168","221554.223233","222321.339651","223088.143189","223855.401825","213114.546416","213881.750948","214648.624049","215416.150737","216183.309821","216950.330396","217717.930049","218485.042138","223097.57384","Mapping"
"Blocked","Female","cave","10","F_cad.wav","None","735.418013763","114","226991.327127","219252.395382","220019.92207","220786.714168","221554.223233","222321.339651","223088.143189","223855.401825","213114.546416","213881.750948","214648.624049","215416.150737","216183.309821","216950.330396","217717.930049","218485.042138","223864.4321","Mapping"
"Blocked","Female","cave","10","F_priest.wav","None","723.733812105","114","226991.327127","219252.395382","220019.92207","220786.714168","221554.223233","222321.339651","223088.143189","223855.401825","227758.448183","213881.750948","214648.624049","215416.150737","216183.309821","216950.330396","217717.930049","218485.042138","227000.3843","Mapping"
"Blocked","Female","cave","10","F_priest.wav","None","724.707702175","114","226991.327127","219252.395382","220019.92207","220786.714168","221554.223233","222321.339651","223088.143189","223855.401825","227758.448183","228525.857077","214648.624049","215416.150737","216183.309821","216950.330396","217717.930049","218485.042138","227767.394981","Mapping"
"Blocked","Female","cave","10","F_ball.wav","None","724.470567424","114","226991.327127","219252.395382","220019.92207","220786.714168","221554.223233","222321.339651","223088.143189","223855.401825","227758.448183","228525.857077","229293.20661","215416.150737","216183.309821","216950.330396","217717.930049","218485.042138","228535.346471","Mapping"
"Blocked","Female","cave","10","F_cave.wav","None","726.275818888","114","226991.327127","219252.395382","220019.92207","220786.714168","221554.223233","222321.339651","223088.143189","223855.401825","227758.448183","228525.857077","229293.20661","230060.254392","216183.309821","216950.330396","217717.930049","218485.042138","229302.234412","Mapping"
"Blocked","Female","cave","10","F_lash.wav","space","417.254787404","114","226991.327127","219252.395382","220019.92207","220786.714168","221554.223233","222321.339651","223088.143189","223855.401825","227758.448183","228525.857077","229293.20661","230060.254392","230827.354115","216950.330396","217717.930049","218485.042138","230069.329807","Mapping"
"Blocked","Female","cave","10","F_cave.wav","None","726.240263786","114","226991.327127","219252.395382","220019.92207","220786.714168","221554.223233","222321.339651","223088.143189","223855.401825","227758.448183","228525.857077","229293.20661","230060.254392","230827.354115","231594.511653","217717.930049","218485.042138","230836.67161","Mapping"
"Blocked","Female","cave","10","F_park.wav","space","467.226761393","114","226991.327127","219252.395382","220019.92207","220786.714168","221554.223233","222321.339651","223088.143189","223855.401825","227758.448183","228525.857077","229293.20661","230060.254392","230827.354115","231594.511653","232362.137585","218485.042138","231603.363536","Mapping"
"Blocked","Female","cave","10","F_gnash.wav","None","726.700001396","114","226991.327127","219252.395382","220019.92207","220786.714168","221554.223233","222321.339651","223088.143189","223855.401825","227758.448183","228525.857077","229293.20661","230060.254392","230827.354115","231594.511653","232362.137585","233129.164035","232371.451062","Mapping"
"Blocked","Female","cave","10","F_park.wav","None","728.144140448","114","226991.327127","233896.492545","220019.92207","220786.714168","221554.223233","222321.339651","223088.143189","223855.401825","227758.448183","228525.857077","229293.20661","230060.254392","230827.354115","231594.511653","232362.137585","233129.164035","233138.203894","Mapping"
"Blocked","Female","cave","10","F_cave.wav","None","729.282199871","114","226991.327127","233896.492545","234663.619475","220786.714168","221554.223233","222321.339651","223088.143189","223855.401825","227758.448183","228525.857077","229293.20661","230060.254392","230827.354115","231594.511653","232362.137585","233129.164035","233905.446145","Mapping"
"Blocked","Female","cave","10","F_park.wav","space","381.542412098","114","226991.327127","233896.492545","234663.619475","235430.907792","221554.223233","222321.339651","223088.143189","223855.401825","227758.448183","228525.857077","229293.20661","230060.254392","230827.354115","231594.511653","232362.137585","233129.164035","234672.946245","Mapping"
"Blocked","Female","cave","10","F_cave.wav","None","729.993293993","114","226991.327127","233896.492545","234663.619475","235430.907792","236198.148497","222321.339651","223088.143189","223855.401825","227758.448183","228525.857077","229293.20661","230060.254392","230827.354115","231594.511653","232362.137585","233129.164035","235440.267953","Mapping"
"Blocked","Female","cave","10","F_cad.wav","space","495.275089517","114","226991.327127","233896.492545","234663.619475","235430.907792","236198.148497","236965.425993","223088.143189","223855.401825","227758.448183","228525.857077","229293.20661","230060.254392","230827.354115","231594.511653","232362.137585","233129.164035","236207.184028","Mapping"
"Blocked","Female","cave","10","F_tile.wav","None","731.138464529","114","226991.327127","233896.492545","234663.619475","235430.907792","236198.148497","236965.425993","237732.560962","223855.401825","227758.448183","228525.857077","229293.20661","230060.254392","230827.354115","231594.511653","232362.137585","233129.164035","236974.327344","Mapping"
"Blocked","Female","cave","10","F_dime.wav","None","731.515344232","114","226991.327127","233896.492545","234663.619475","235430.907792","236198.148497","236965.425993","237732.560962","238499.901529","227758.448183","228525.857077","229293.20661","230060.254392","230827.354115","231594.511653","232362.137585","233129.164035","237741.982338","Mapping"
"Blocked","Female","done","21","F_romp.wav","None","732.301567215","114","241635.513022","233896.492545","234663.619475","235430.907792","236198.148497","236965.425993","237732.560962","238499.901529","227758.448183","228525.857077","229293.20661","230060.254392","230827.354115","231594.511653","232362.137585","233129.164035","238509.485221","Mapping"
"Blocked","Female","done","21","F_park.wav","None","723.014679737","114","241635.513022","233896.492545","234663.619475","235430.907792","236198.148497","236965.425993","237732.560962","238499.901529","242402.788972","228525.857077","229293.20661","230060.254392","230827.354115","231594.511653","232362.137585","233129.164035","241644.676859","Mapping"
"Blocked","Female","done","21","F_done.wav","None","723.754527047","114","241635.513022","233896.492545","234663.619475","235430.907792","236198.148497","236965.425993","237732.560962","238499.901529","242402.788972","243170.007108","229293.20661","230060.254392","230827.354115","231594.511653","232362.137585","233129.164035","242412.240339","Mapping"
"Blocked","Female","done","21","F_jolt.wav","space","434.811388608","114","241635.513022","233896.492545","234663.619475","235430.907792","236198.148497","236965.425993","237732.560962","238499.901529","242402.788972","243170.007108","243937.026137","230060.254392","230827.354115","231594.511653","232362.137585","233129.164035","243179.513197","Mapping"
"Blocked","Female","done","21","F_done.wav","None","725.593168288","114","241635.513022","233896.492545","234663.619475","235430.907792","236198.148497","236965.425993","237732.560962","238499.901529","242402.788972","243170.007108","243937.026137","244704.458219","230827.354115","231594.511653","232362.137585","233129.164035","243945.858852","Mapping"
"Blocked","Female","done","21","F_greet.wav","space","460.723652504","114","241635.513022","233896.492545","234663.619475","235430.907792","236198.148497","236965.425993","237732.560962","238499.901529","242402.788972","243170.007108","243937.026137","244704.458219","245471.351107","231594.511653","232362.137585","233129.164035","244713.483857","Mapping"
"Blocked","Female","done","21","F_bluff.wav","None","725.625012536","114","241635.513022","233896.492545","234663.619475","235430.907792","236198.148497","236965.425993","237732.560962","238499.901529","242402.788972","243170.007108","243937.026137","244704.458219","245471.351107","246238.818125","232362.137585","233129.164035","245480.970971","Mapping"
"Blocked","Female","done","21","F_greet.wav","None","726.726281457","114","241635.513022","233896.492545","234663.619475","235430.907792","236198.148497","236965.425993","237732.560962","238499.901529","242402.788972","243170.007108","243937.026137","244704.458219","245471.351107","246238.818125","247006.079235","233129.164035","246247.818719","Mapping"
"Blocked","Female","done","21","F_done.wav","None","727.759840898","114","241635.513022","233896.492545","234663.619475","235430.907792","236198.148497","236965.425993","237732.560962","238499.901529","242402.788972","243170.007108","243937.026137","244704.458219","245471.351107","246238.818125","247006.079235","247773.379301","247015.279554","Mapping"
"Blocked","Female","done","21","F_gnash.wav","space","447.503797244","114","241635.513022","248540.628972","234663.619475","235430.907792","236198.148497","236965.425993","237732.560962","238499.901529","242402.788972","243170.007108","243937.026137","244704.458219","245471.351107","246238.818125","247006.079235","247773.379301","247782.660623","Mapping"
"Blocked","Female","done","21","F_lash.wav","None","728.433834389","114","241635.513022","248540.628972","249307.512893","235430.907792","236198.148497","236965.425993","237732.560962","238499.901529","242402.788972","243170.007108","243937.026137","244704.458219","245471.351107","246238.818125","247006.079235","247773.379301","248550.366631","Mapping"
"Blocked","Female","done","21","F_gnash.wav","None","730.435409117","114","241635.513022","248540.628972","249307.512893","250074.860571","236198.148497","236965.425993","237732.560962","238499.901529","242402.788972","243170.007108","243937.026137","244704.458219","245471.351107","246238.818125","247006.079235","247773.379301","249316.770718","Mapping"
"Blocked","Female","done","21","F_done.wav","None","731.539768633","114","241635.513022","248540.628972","249307.512893","250074.860571","250842.21567","236965.425993","237732.560962","238499.901529","242402.788972","243170.007108","243937.026137","244704.458219","245471.351107","246238.818125","247006.079235","247773.379301","250084.021626","Mapping"
"Blocked","Female","done","21","F_romp.wav","space","458.969723899","114","241635.513022","248540.628972","249307.512893","250074.860571","250842.21567","251609.283548","237732.560962","238499.901529","242402.788972","243170.007108","243937.026137","244704.458219","245471.351107","246238.818125","247006.079235","247773.379301","250851.146082","Mapping"
"Blocked","Female","done","21","F_ball.wav","None","732.893320732","114","241635.513022","248540.628972","249307.512893","250074.860571","250842.21567","251609.283548","252376.714393","238499.901529","242402.788972","243170.007108","243937.026137","244704.458219","245471.351107","246238.818125","247006.079235","247773.379301","251618.213961","Mapping"
"Blocked","Female","done","21","F_park.wav","None","733.457558323","114","241635.513022","248540.628972","249307.512893","250074.860571","250842.21567","251609.283548","252376.714393","253144.029609","242402.788972","243170.007108","243937.026137","244704.458219","245471.351107","246238.818125","247006.079235","247773.379301","252386.081356","Mapping"
"Blocked","Female","ball","6","F_jolt.wav","None","734.921175521","114","256296.385819","248540.628972","249307.512893","250074.860571","250842.21567","251609.283548","252376.714393","253144.029609","242402.788972","243170.007108","243937.026137","244704.458219","245471.351107","246238.818125","247006.079235","247773.379301","253153.123264","Mapping"
"Blocked","Female","ball","6","F_priest.wav","None","722.932749428","114","256296.385819","248540.628972","249307.512893","250074.860571","250842.21567","251609.283548","252376.714393","253144.029609","257063.57922","243170.007108","243937.026137","244704.458219","245471.351107","246238.818125","247006.079235","247773.379301","256305.586447","Mapping"
"Blocked","Female","ball","6","F_bluff.wav","None","725.06572213","114","256296.385819","248540.628972","249307.512893","250074.860571","250842.21567","251609.283548","252376.714393","253144.029609","257063.57922","257830.917005","243937.026137","244704.458219","245471.351107","246238.818125","247006.079235","247773.379301","257072.744912","Mapping"
"Blocked","Female","ball","6","F_knife.wav","None","726.689798757","114","256296.385819","248540.628972","249307.512893","250074.860571","250842.21567","251609.283548","252376.714393","253144.029609","257063.57922","257830.917005","258598.071451","244704.458219","245471.351107","246238.818125","247006.079235","247773.379301","257839.717257","Mapping"
"Blocked","Female","ball","6","F_done.wav","None","731.610568706","114","256296.385819","248540.628972","249307.512893","250074.860571","250842.21567","251609.283548","252376.714393","253144.029609","257063.57922","257830.917005","258598.071451","259365.368735","245471.351107","246238.818125","247006.079235","247773.379301","258602.641931","Mapping"
"Blocked","Female","ball","6","F_ball.wav","None","727.792303544","114","256296.385819","248540.628972","249307.512893","250074.860571","250842.21567","251609.283548","252376.714393","253144.029609","257063.57922","257830.917005","258598.071451","259365.368735","260132.201024","246238.818125","247006.079235","247773.379301","259374.917181","Mapping"
"Blocked","Female","ball","6","F_romp.wav","space","400.256859139","114","256296.385819","248540.628972","249307.512893","250074.860571","250842.21567","251609.283548","252376.714393","253144.029609","257063.57922","257830.917005","258598.071451","259365.368735","260132.201024","260899.75121","247006.079235","247773.379301","260141.622711","Mapping"
"Blocked","Female","ball","6","F_bluff.wav","None","728.945203591","114","256296.385819","248540.628972","249307.512893","250074.860571","250842.21567","251609.283548","252376.714393","253144.029609","257063.57922","257830.917005","258598.071451","259365.368735","260132.201024","260899.75121","261667.002118","247773.379301","260908.756442","Mapping"
"Blocked","Female","ball","6","F_ball.wav","None","730.263818987","114","256296.385819","248540.628972","249307.512893","250074.860571","250842.21567","251609.283548","252376.714393","253144.029609","257063.57922","257830.917005","258598.071451","259365.368735","260132.201024","260899.75121","261667.002118","262434.308367","261675.925419","Mapping"
"Blocked","Female","ball","6","F_dime.wav","space","522.119505331","114","256296.385819","263201.212075","249307.512893","250074.860571","250842.21567","251609.283548","252376.714393","253144.029609","257063.57922","257830.917005","258598.071451","259365.368735","260132.201024","260899.75121","261667.002118","262434.308367","262443.752313","Mapping"
"Blocked","Female","ball","6","F_park.wav","None","729.345889762","114","256296.385819","263201.212075","263968.67662","250074.860571","250842.21567","251609.283548","252376.714393","253144.029609","257063.57922","257830.917005","258598.071451","259365.368735","260132.201024","260899.75121","261667.002118","262434.308367","263212.576284","Mapping"
"Blocked","Female","ball","6","F_ball.wav","None","732.730078511","114","256296.385819","263201.212075","263968.67662","264735.926291","250842.21567","251609.283548","252376.714393","253144.029609","257063.57922","257830.917005","258598.071451","259365.368735","260132.201024","260899.75121","261667.002118","262434.308367","263977.701948","Mapping"
"Blocked","Female","ball","6","F_priest.wav","space","428.930950351","114","256296.385819","263201.212075","263968.67662","264735.926291","265503.228831","251609.283548","252376.714393","253144.029609","257063.57922","257830.917005","258598.071451","259365.368735","260132.201024","260899.75121","261667.002118","262434.308367","264744.85083","Mapping"
"Blocked","Female","ball","6","F_ball.wav","None","733.590193093","114","256296.385819","263201.212075","263968.67662","264735.926291","265503.228831","266270.183243","252376.714393","253144.029609","257063.57922","257830.917005","258598.071451","259365.368735","260132.201024","260899.75121","261667.002118","262434.308367","265512.446772","Mapping"
"Blocked","Female","ball","6","F_tile.wav","space","630.232994445","114","256296.385819","263201.212075","263968.67662","264735.926291","265503.228831","266270.183243","267037.638822","253144.029609","257063.57922","257830.917005","258598.071451","259365.368735","260132.201024","260899.75121","261667.002118","262434.308367","266279.49239","Mapping"
"Blocked","Female","ball","6","F_cad.wav","None","735.066485591","114","256296.385819","263201.212075","263968.67662","264735.926291","265503.228831","266270.183243","267037.638822","267804.464001","257063.57922","257830.917005","258598.071451","259365.368735","260132.201024","260899.75121","261667.002118","262434.308367","267046.801422","Mapping"
"Blocked","Female","ball","4","F_cling.wav","None","736.960778013","114","270957.074968","263201.212075","263968.67662","264735.926291","265503.228831","266270.183243","267037.638822","267804.464001","257063.57922","257830.917005","258598.071451","259365.368735","260132.201024","260899.75121","261667.002118","262434.308367","267813.53014","Mapping"
"Blocked","Female","ball","4","F_gnash.wav","None","722.748792265","114","270957.074968","263201.212075","263968.67662","264735.926291","265503.228831","266270.183243","267037.638822","267804.464001","271724.112856","257830.917005","258598.071451","259365.368735","260132.201024","260899.75121","261667.002118","262434.308367","270966.36371","Mapping"
"Blocked","Female","ball","4","F_ball.wav","None","724.209317472","114","270957.074968","263201.212075","263968.67662","264735.926291","265503.228831","266270.183243","267037.638822","267804.464001","271724.112856","272491.378913","258598.071451","259365.368735","260132.201024","260899.75121","261667.002118","262434.308367","271733.413038","Mapping"
"Blocked","Female","ball","4","F_lash.wav","space","545.103916898","114","270957.074968","263201.212075","263968.67662","264735.926291","265503.228831","266270.183243","267037.638822","267804.464001","271724.112856","272491.378913","273258.666303","259365.368735","260132.201024","260899.75121","261667.002118","262434.308367","272500.524509","Mapping"
"Blocked","Female","ball","4","F_ball.wav","None","724.977608304","114","270957.074968","263201.212075","263968.67662","264735.926291","265503.228831","266270.183243","267037.638822","267804.464001","271724.112856","272491.378913","273258.666303","274026.127447","260132.201024","260899.75121","261667.002118","262434.308367","273267.64371","Mapping"
"Blocked","Female","ball","4","F_romp.wav","space","418.282472994","114","270957.074968","263201.212075","263968.67662","264735.926291","265503.228831","266270.183243","267037.638822","267804.464001","271724.112856","272491.378913","273258.666303","274026.127447","274793.034247","260899.75121","261667.002118","262434.308367","274035.271497","Mapping"
"Blocked","Female","ball","4","F_bluff.wav","None","725.137140602","114","270957.074968","263201.212075","263968.67662","264735.926291","265503.228831","266270.183243","267037.638822","267804.464001","271724.112856","272491.378913","273258.666303","274026.127447","274793.034247","275560.521053","261667.002118","262434.308367","274802.419451","Mapping"
"Blocked","Female","ball","4","F_bluff.wav","None","726.801719051","114","270957.074968","263201.212075","263968.67662","264735.926291","265503.228831","266270.183243","267037.638822","267804.464001","271724.112856","272491.378913","273258.666303","274026.127447","274793.034247","275560.521053","276327.695904","262434.308367","275569.31543","Mapping"
"Blocked","Female","ball","4","F_depth.wav","None","727.519614622","114","270957.074968","263201.212075","263968.67662","264735.926291","265503.228831","266270.183243","267037.638822","267804.464001","271724.112856","272491.378913","273258.666303","274026.127447","274793.034247","275560.521053","276327.695904","277095.08903","276337.163038","Mapping"
"Blocked","Female","ball","4","F_gnash.wav","None","729.857876897","114","270957.074968","277862.21998","263968.67662","264735.926291","265503.228831","266270.183243","267037.638822","267804.464001","271724.112856","272491.378913","273258.666303","274026.127447","274793.034247","275560.521053","276327.695904","277095.08903","277104.084988","Mapping"
"Blocked","Female","ball","4","F_ball.wav","None","730.880615767","114","270957.074968","277862.21998","278629.254777","264735.926291","265503.228831","266270.183243","267037.638822","267804.464001","271724.112856","272491.378913","273258.666303","274026.127447","274793.034247","275560.521053","276327.695904","277095.08903","277871.298795","Mapping"
"Blocked","Female","ball","4","F_greet.wav","space","358.476688154","114","270957.074968","277862.21998","278629.254777","279396.751476","265503.228831","266270.183243","267037.638822","267804.464001","271724.112856","272491.378913","273258.666303","274026.127447","274793.034247","275560.521053","276327.695904","277095.08903","278638.922872","Mapping"
