"Condition","Talker","Target","Trial","current_stimulus","response_response","response_time_response","subject_nr","time_Audio1","time_Audio10","time_Audio11","time_Audio12","time_Audio13","time_Audio14","time_Audio15","time_Audio16","time_Audio2","time_Audio3","time_Audio4","time_Audio5","time_Audio6","time_Audio7","time_Audio8","time_Audio9","time_response","title"
"Mixed","both","done","38","F_jolt.wav","NA","NA","316","221176.043529","NA","NA","NA","NA","NA","NA","NA","NA","NA","NA","NA","NA","NA","NA","NA","NA","Mapping"
"Mixed","both","done","38","F_priest.wav","None","716.238363646","316","221176.043529","NA","NA","NA","NA","NA","NA","NA","221942.466578","NA","NA","NA","NA","NA","NA","NA","221192.942936","Mapping"
"Mixed","both","done","38","F_done.wav","None","723.462814","316","221176.043529","NA","NA","NA","NA","NA","NA","NA","221942.466578","222708.616317","NA","NA","NA","NA","NA","NA","221952.410825","Mapping"
"Mixed","both","done","38","F_park.wav","space","317.285904661","316","221176.043529","NA","NA","NA","NA","NA","NA","NA","221942.466578","222708.616317","223475.225179","NA","NA","NA","NA","NA","222718.19914","Mapping"
"Mixed","both","done","38","M_done.wav","None","724.601808004","316","221176.043529","NA","NA","NA","NA","NA","NA","NA","221942.466578","222708.616317","223475.225179","224242.763724","NA","NA","NA","NA","223484.657126","Mapping"
"Mixed","both","done","38","M_bluff.wav","space","494.752867147","316","221176.043529","NA","NA","NA","NA","NA","NA","NA","221942.466578","222708.616317","223475.225179","224242.763724","225009.46441","NA","NA","NA","224252.752492","Mapping"
"Mixed","both","done","38","F_gnash.wav","None","722.891771235","316","221176.043529","NA","NA","NA","NA","NA","NA","NA","221942.466578","222708.616317","223475.225179","224242.763724","225009.46441","225775.494809","NA","NA","225019.812437","Mapping"
"Mixed","both","done","38","M_done.wav","None","724.210085813","316","221176.043529","NA","NA","NA","NA","NA","NA","NA","221942.466578","222708.616317","223475.225179","224242.763724","225009.46441","225775.494809","226542.806421","NA","225785.345376","Mapping"
"Mixed","both","done","38","F_priest.wav","space","434.545096476","316","221176.043529","NA","NA","NA","NA","NA","NA","NA","221942.466578","222708.616317","223475.225179","224242.763724","225009.46441","225775.494809","226542.806421","227292.122916","226552.911747","Mapping"
"Mixed","both","done","38","M_park.wav","None","734.840387944","316","221176.043529","228075.458976","NA","NA","NA","NA","NA","NA","221942.466578","222708.616317","223475.225179","224242.763724","225009.46441","225775.494809","226542.806421","227292.122916","227302.044284","Mapping"
"Mixed","both","done","38","F_done.wav","None","729.907838628","316","221176.043529","228075.458976","228842.690203","NA","NA","NA","NA","NA","221942.466578","222708.616317","223475.225179","224242.763724","225009.46441","225775.494809","226542.806421","227292.122916","228079.813062","Mapping"
"Mixed","both","done","38","M_bluff.wav","space","454.086388461","316","221176.043529","228075.458976","228842.690203","229592.132222","NA","NA","NA","NA","221942.466578","222708.616317","223475.225179","224242.763724","225009.46441","225775.494809","226542.806421","227292.122916","228853.320196","Mapping"
"Mixed","both","done","38","M_jaw.wav","None","734.914280474","316","221176.043529","228075.458976","228842.690203","229592.132222","230375.211668","NA","NA","NA","221942.466578","222708.616317","223475.225179","224242.763724","225009.46441","225775.494809","226542.806421","227292.122916","229602.054827","Mapping"
"Mixed","both","done","38","M_jolt.wav","None","731.09011678","316","221176.043529","228075.458976","228842.690203","229592.132222","230375.211668","231141.798269","NA","NA","221942.466578","222708.616317","223475.225179","224242.763724","225009.46441","225775.494809","226542.806421","227292.122916","230378.798386","Mapping"
"Mixed","both","done","38","M_jaw.wav","None","736.979248002","316","221176.043529","228075.458976","228842.690203","229592.132222","230375.211668","231141.798269","231908.838118","NA","221942.466578","222708.616317","223475.225179","224242.763724","225009.46441","225775.494809","226542.806421","227292.122916","231145.657369","Mapping"
"Mixed","both","done","38","F_jolt.wav","None","725.997415837","316","221176.043529","228075.458976","228842.690203","229592.132222","230375.211668","231141.798269","231908.838118","232675.400294","221942.466578","222708.616317","223475.225179","224242.763724","225009.46441","225775.494809","226542.806421","227292.122916","231920.343999","Mapping"
"Mixed","both","tile","33","M_jolt.wav","None","725.39081797","316","235959.156366","228075.458976","228842.690203","229592.132222","230375.211668","231141.798269","231908.838118","232675.400294","221942.466578","222708.616317","223475.225179","224242.763724","225009.46441","225775.494809","226542.806421","227292.122916","232685.070923","Mapping"
"Mixed","both","tile","33","F_park.wav","None","719.63432245","316","235959.156366","228075.458976","228842.690203","229592.132222","230375.211668","231141.798269","231908.838118","232675.400294","236708.283338","222708.616317","223475.225179","224242.763724","225009.46441","225775.494809","226542.806421","227292.122916","235969.172959","Mapping"
"Mixed","both","tile","33","M_cad.wav","None","735.532008111","316","235959.156366","228075.458976","228842.690203","229592.132222","230375.211668","231141.798269","231908.838118","232675.400294","236708.283338","237491.856533","223475.225179","224242.763724","225009.46441","225775.494809","226542.806421","227292.122916","236717.723323","Mapping"
"Mixed","both","tile","33","F_tile.wav","None","720.052015036","316","235959.156366","228075.458976","228842.690203","229592.132222","230375.211668","231141.798269","231908.838118","232675.400294","236708.283338","237491.856533","238259.633142","224242.763724","225009.46441","225775.494809","226542.806421","227292.122916","237501.064638","Mapping"
"Mixed","both","tile","33","M_lash.wav","space","461.391223595","316","235959.156366","228075.458976","228842.690203","229592.132222","230375.211668","231141.798269","231908.838118","232675.400294","236708.283338","237491.856533","238259.633142","239025.140109","225009.46441","225775.494809","226542.806421","227292.122916","238269.839876","Mapping"
"Mixed","both","tile","33","M_park.wav","None","730.750026647","316","235959.156366","228075.458976","228842.690203","229592.132222","230375.211668","231141.798269","231908.838118","232675.400294","236708.283338","237491.856533","238259.633142","239025.140109","239791.821936","225775.494809","226542.806421","227292.122916","239030.100175","Mapping"
"Mixed","both","tile","33","M_cad.wav","None","723.519392312","316","235959.156366","228075.458976","228842.690203","229592.132222","230375.211668","231141.798269","231908.838118","232675.400294","236708.283338","237491.856533","238259.633142","239025.140109","239791.821936","240558.461715","226542.806421","227292.122916","239801.309534","Mapping"
"Mixed","both","tile","33","F_tile.wav","None","720.800214447","316","235959.156366","228075.458976","228842.690203","229592.132222","230375.211668","231141.798269","231908.838118","232675.400294","236708.283338","237491.856533","238259.633142","239025.140109","239791.821936","240558.461715","241308.278762","227292.122916","240567.897063","Mapping"
"Mixed","both","tile","33","F_park.wav","space","509.563500062","316","235959.156366","228075.458976","228842.690203","229592.132222","230375.211668","231141.798269","231908.838118","232675.400294","236708.283338","237491.856533","238259.633142","239025.140109","239791.821936","240558.461715","241308.278762","242075.25554","241317.585493","Mapping"
"Mixed","both","tile","33","F_priest.wav","None","731.423714664","316","235959.156366","242841.605623","228842.690203","229592.132222","230375.211668","231141.798269","231908.838118","232675.400294","236708.283338","237491.856533","238259.633142","239025.140109","239791.821936","240558.461715","241308.278762","242075.25554","242084.960177","Mapping"
"Mixed","both","tile","33","M_tile.wav","None","729.884650558","316","235959.156366","242841.605623","243608.074429","229592.132222","230375.211668","231141.798269","231908.838118","232675.400294","236708.283338","237491.856533","238259.633142","239025.140109","239791.821936","240558.461715","241308.278762","242075.25554","242850.481676","Mapping"
"Mixed","both","tile","33","F_greet.wav","space","431.244672742","316","235959.156366","242841.605623","243608.074429","244375.074086","230375.211668","231141.798269","231908.838118","232675.400294","236708.283338","237491.856533","238259.633142","239025.140109","239791.821936","240558.461715","241308.278762","242075.25554","243611.912505","Mapping"
"Mixed","both","tile","33","F_depth.wav","None","735.267665237","316","235959.156366","242841.605623","243608.074429","244375.074086","245141.405928","231141.798269","231908.838118","232675.400294","236708.283338","237491.856533","238259.633142","239025.140109","239791.821936","240558.461715","241308.278762","242075.25554","244384.519945","Mapping"
"Mixed","both","tile","33","M_tile.wav","None","736.428610515","316","235959.156366","242841.605623","243608.074429","244375.074086","245141.405928","245908.107542","231908.838118","232675.400294","236708.283338","237491.856533","238259.633142","239025.140109","239791.821936","240558.461715","241308.278762","242075.25554","245150.444607","Mapping"
"Mixed","both","tile","33","M_cling.wav","space","478.345045354","316","235959.156366","242841.605623","243608.074429","244375.074086","245141.405928","245908.107542","246675.168724","232675.400294","236708.283338","237491.856533","238259.633142","239025.140109","239791.821936","240558.461715","241308.278762","242075.25554","245916.750479","Mapping"
"Mixed","both","tile","33","F_romp.wav","None","737.885743845","316","235959.156366","242841.605623","243608.074429","244375.074086","245141.405928","245908.107542","246675.168724","247441.981331","236708.283338","237491.856533","238259.633142","239025.140109","239791.821936","240558.461715","241308.278762","242075.25554","246679.600103","Mapping"
"Mixed","both","tile","35","F_park.wav","None","733.049965929","316","250575.47799","242841.605623","243608.074429","244375.074086","245141.405928","245908.107542","246675.168724","247441.981331","236708.283338","237491.856533","238259.633142","239025.140109","239791.821936","240558.461715","241308.278762","242075.25554","247451.447905","Mapping"
"Mixed","both","tile","35","F_tile.wav","None","720.239992253","316","250575.47799","242841.605623","243608.074429","244375.074086","245141.405928","245908.107542","246675.168724","247441.981331","251324.872087","237491.856533","238259.633142","239025.140109","239791.821936","240558.461715","241308.278762","242075.25554","250585.329794","Mapping"
"Mixed","both","tile","35","M_lash.wav","space","628.410605248","316","250575.47799","242841.605623","243608.074429","244375.074086","245141.405928","245908.107542","246675.168724","247441.981331","251324.872087","252091.963877","238259.633142","239025.140109","239791.821936","240558.461715","241308.278762","242075.25554","251334.600841","Mapping"
"Mixed","both","tile","35","F_tile.wav","None","731.304064859","316","250575.47799","242841.605623","243608.074429","244375.074086","245141.405928","245908.107542","246675.168724","247441.981331","251324.872087","252091.963877","252858.522035","239025.140109","239791.821936","240558.461715","241308.278762","242075.25554","252101.96223","Mapping"
"Mixed","both","tile","35","M_gnash.wav","space","349.156096578","316","250575.47799","242841.605623","243608.074429","244375.074086","245141.405928","245908.107542","246675.168724","247441.981331","251324.872087","252091.963877","252858.522035","253625.278372","239791.821936","240558.461715","241308.278762","242075.25554","252869.817677","Mapping"
"Mixed","both","tile","35","M_tile.wav","None","741.016122513","316","250575.47799","242841.605623","243608.074429","244375.074086","245141.405928","245908.107542","246675.168724","247441.981331","251324.872087","252091.963877","252858.522035","253625.278372","254391.401832","240558.461715","241308.278762","242075.25554","253629.019058","Mapping"
"Mixed","both","tile","35","F_dime.wav","space","626.510426868","316","250575.47799","242841.605623","243608.074429","244375.074086","245141.405928","245908.107542","246675.168724","247441.981331","251324.872087","252091.963877","252858.522035","253625.278372","254391.401832","255158.009766","241308.278762","242075.25554","254400.423197","Mapping"
"Mixed","both","tile","35","M_romp.wav","None","733.714997303","316","250575.47799","242841.605623","243608.074429","244375.074086","245141.405928","245908.107542","246675.168724","247441.981331","251324.872087","252091.963877","252858.522035","253625.278372","254391.401832","255158.009766","255942.345073","242075.25554","255166.972697","Mapping"
"Mixed","both","tile","35","M_tile.wav","None","726.881342009","316","250575.47799","242841.605623","243608.074429","244375.074086","245141.405928","245908.107542","246675.168724","247441.981331","251324.872087","252091.963877","252858.522035","253625.278372","254391.401832","255158.009766","255942.345073","256708.60024","255946.917435","Mapping"
"Mixed","both","tile","35","M_romp.wav","space","420.333331916","316","250575.47799","257457.907769","243608.074429","244375.074086","245141.405928","245908.107542","246675.168724","247441.981331","251324.872087","252091.963877","252858.522035","253625.278372","254391.401832","255158.009766","255942.345073","256708.60024","256718.556854","Mapping"
"Mixed","both","tile","35","M_priest.wav","None","734.400743619","316","250575.47799","257457.907769","258242.298109","244375.074086","245141.405928","245908.107542","246675.168724","247441.981331","251324.872087","252091.963877","252858.522035","253625.278372","254391.401832","255158.009766","255942.345073","256708.60024","257467.170908","Mapping"
"Mixed","both","tile","35","F_romp.wav","None","727.952626999","316","250575.47799","257457.907769","258242.298109","259008.783611","245141.405928","245908.107542","246675.168724","247441.981331","251324.872087","252091.963877","252858.522035","253625.278372","254391.401832","255158.009766","255942.345073","256708.60024","258246.817603","Mapping"
"Mixed","both","tile","35","F_reek.wav","None","719.548990484","316","250575.47799","257457.907769","258242.298109","259008.783611","259775.290445","245908.107542","246675.168724","247441.981331","251324.872087","252091.963877","252858.522035","253625.278372","254391.401832","255158.009766","255942.345073","256708.60024","259019.325798","Mapping"
"Mixed","both","tile","35","F_depth.wav","None","720.44466529","316","250575.47799","257457.907769","258242.298109","259008.783611","259775.290445","260524.7943","246675.168724","247441.981331","251324.872087","252091.963877","252858.522035","253625.278372","254391.401832","255158.009766","255942.345073","256708.60024","259785.512948","Mapping"
"Mixed","both","tile","35","M_bluff.wav","None","735.433381982","316","250575.47799","257457.907769","258242.298109","259008.783611","259775.290445","260524.7943","261291.743251","247441.981331","251324.872087","252091.963877","252858.522035","253625.278372","254391.401832","255158.009766","255942.345073","256708.60024","260534.584269","Mapping"
"Mixed","both","tile","35","F_gnash.wav","None","732.621761039","316","250575.47799","257457.907769","258242.298109","259008.783611","259775.290445","260524.7943","261291.743251","262058.3382","251324.872087","252091.963877","252858.522035","253625.278372","254391.401832","255158.009766","255942.345073","256708.60024","261301.521163","Mapping"
"Mixed","both","done","39","F_reek.wav","None","729.72635366","316","265192.06272","257457.907769","258242.298109","259008.783611","259775.290445","260524.7943","261291.743251","262058.3382","251324.872087","252091.963877","252858.522035","253625.278372","254391.401832","255158.009766","255942.345073","256708.60024","262068.421575","Mapping"
"Mixed","both","done","39","M_jaw.wav","None","718.746995553","316","265192.06272","257457.907769","258242.298109","259008.783611","259775.290445","260524.7943","261291.743251","262058.3382","265941.352627","252091.963877","252858.522035","253625.278372","254391.401832","255158.009766","255942.345073","256708.60024","265203.593025","Mapping"
"Mixed","both","done","39","F_done.wav","None","734.77267893","316","265192.06272","257457.907769","258242.298109","259008.783611","259775.290445","260524.7943","261291.743251","262058.3382","265941.352627","266707.685087","252858.522035","253625.278372","254391.401832","255158.009766","255942.345073","256708.60024","265951.471866","Mapping"
"Mixed","both","done","39","M_depth.wav","space","381.259095855","316","265192.06272","257457.907769","258242.298109","259008.783611","259775.290445","260524.7943","261291.743251","262058.3382","265941.352627","266707.685087","267474.58148","253625.278372","254391.401832","255158.009766","255942.345073","256708.60024","266717.469801","Mapping"
"Mixed","both","done","39","F_done.wav","None","733.109017834","316","265192.06272","257457.907769","258242.298109","259008.783611","259775.290445","260524.7943","261291.743251","262058.3382","265941.352627","266707.685087","267474.58148","268241.567533","254391.401832","255158.009766","255942.345073","256708.60024","267483.999205","Mapping"
"Mixed","both","done","39","F_depth.wav","space","647.403733339","316","265192.06272","257457.907769","258242.298109","259008.783611","259775.290445","260524.7943","261291.743251","262058.3382","265941.352627","266707.685087","267474.58148","268241.567533","269008.211022","255158.009766","255942.345073","256708.60024","268251.281446","Mapping"
"Mixed","both","done","39","F_jolt.wav","None","726.44138895","316","265192.06272","257457.907769","258242.298109","259008.783611","259775.290445","260524.7943","261291.743251","262058.3382","265941.352627","266707.685087","267474.58148","268241.567533","269008.211022","269774.394461","255942.345073","256708.60024","269018.151558","Mapping"
"Mixed","both","done","39","M_dime.wav","None","723.733650055","316","265192.06272","257457.907769","258242.298109","259008.783611","259775.290445","260524.7943","261291.743251","262058.3382","265941.352627","266707.685087","267474.58148","268241.567533","269008.211022","269774.394461","270541.583023","256708.60024","269784.965093","Mapping"
"Mixed","both","done","39","M_done.wav","None","724.213486537","316","265192.06272","257457.907769","258242.298109","259008.783611","259775.290445","260524.7943","261291.743251","262058.3382","265941.352627","266707.685087","267474.58148","268241.567533","269008.211022","269774.394461","270541.583023","271307.877764","270551.577046","Mapping"
"Mixed","both","done","39","M_bluff.wav","space","501.185524743","316","265192.06272","272058.130436","258242.298109","259008.783611","259775.290445","260524.7943","261291.743251","262058.3382","265941.352627","266707.685087","267474.58148","268241.567533","269008.211022","269774.394461","270541.583023","271307.877764","271317.449766","Mapping"
"Mixed","both","done","39","M_done.wav","None","736.358119175","316","265192.06272","272058.130436","272824.712399","259008.783611","259775.290445","260524.7943","261291.743251","262058.3382","265941.352627","266707.685087","267474.58148","268241.567533","269008.211022","269774.394461","270541.583023","271307.877764","272067.251045","Mapping"
"Mixed","both","done","39","F_reek.wav","None","733.052129857","316","265192.06272","272058.130436","272824.712399","273591.00745","259775.290445","260524.7943","261291.743251","262058.3382","265941.352627","266707.685087","267474.58148","268241.567533","269008.211022","269774.394461","270541.583023","271307.877764","272834.534523","Mapping"
"Mixed","both","done","39","M_cad.wav","None","731.43979162","316","265192.06272","272058.130436","272824.712399","273591.00745","274358.092438","260524.7943","261291.743251","262058.3382","265941.352627","266707.685087","267474.58148","268241.567533","269008.211022","269774.394461","270541.583023","271307.877764","273600.244927","Mapping"
"Mixed","both","done","39","F_bluff.wav","None","726.218475029","316","265192.06272","272058.130436","272824.712399","273591.00745","274358.092438","275124.383779","261291.743251","262058.3382","265941.352627","266707.685087","267474.58148","268241.567533","269008.211022","269774.394461","270541.583023","271307.877764","274369.501239","Mapping"
"Mixed","both","done","39","M_knife.wav","None","729.246826377","316","265192.06272","272058.130436","272824.712399","273591.00745","274358.092438","275124.383779","275890.899271","262058.3382","265941.352627","266707.685087","267474.58148","268241.567533","269008.211022","269774.394461","270541.583023","271307.877764","275133.625585","Mapping"
"Mixed","both","done","39","F_gnash.wav","None","741.385893896","316","265192.06272","272058.130436","272824.712399","273591.00745","274358.092438","275124.383779","275890.899271","276658.065881","265941.352627","266707.685087","267474.58148","268241.567533","269008.211022","269774.394461","270541.583023","271307.877764","275894.475786","Mapping"
"Mixed","both","cave","15","F_bluff.wav","None","731.875726022","316","279791.827192","272058.130436","272824.712399","273591.00745","274358.092438","275124.383779","275890.899271","276658.065881","265941.352627","266707.685087","267474.58148","268241.567533","269008.211022","269774.394461","270541.583023","271307.877764","276667.995906","Mapping"
"Mixed","both","cave","15","F_park.wav","None","720.135182608","316","279791.827192","272058.130436","272824.712399","273591.00745","274358.092438","275124.383779","275890.899271","276658.065881","280540.818437","266707.685087","267474.58148","268241.567533","269008.211022","269774.394461","270541.583023","271307.877764","279801.897582","Mapping"
"Mixed","both","cave","15","M_cave.wav","None","735.832524486","316","279791.827192","272058.130436","272824.712399","273591.00745","274358.092438","275124.383779","275890.899271","276658.065881","280540.818437","281324.947217","267474.58148","268241.567533","269008.211022","269774.394461","270541.583023","271307.877764","280550.224723","Mapping"
"Mixed","both","cave","15","M_priest.wav","space","434.920123313","316","279791.827192","272058.130436","272824.712399","273591.00745","274358.092438","275124.383779","275890.899271","276658.065881","280540.818437","281324.947217","282074.390782","268241.567533","269008.211022","269774.394461","270541.583023","271307.877764","281335.540418","Mapping"
"Mixed","both","cave","15","M_park.wav","None","734.516992699","316","279791.827192","272058.130436","272824.712399","273591.00745","274358.092438","275124.383779","275890.899271","276658.065881","280540.818437","281324.947217","282074.390782","282840.886177","269008.211022","269774.394461","270541.583023","271307.877764","282083.954128","Mapping"
"Mixed","both","cave","15","F_romp.wav","None","732.76243452","316","279791.827192","272058.130436","272824.712399","273591.00745","274358.092438","275124.383779","275890.899271","276658.065881","280540.818437","281324.947217","282074.390782","282840.886177","283607.931282","269774.394461","270541.583023","271307.877764","282849.88961","Mapping"
"Mixed","both","cave","15","M_gnash.wav","None","728.705154732","316","279791.827192","272058.130436","272824.712399","273591.00745","274358.092438","275124.383779","275890.899271","276658.065881","280540.818437","281324.947217","282074.390782","282840.886177","283607.931282","284374.620838","270541.583023","271307.877764","283617.938909","Mapping"
"Mixed","both","cave","15","F_cave.wav","None","726.281546056","316","279791.827192","272058.130436","272824.712399","273591.00745","274358.092438","275124.383779","275890.899271","276658.065881","280540.818437","281324.947217","282074.390782","282840.886177","283607.931282","284374.620838","285140.812625","271307.877764","284384.371852","Mapping"
"Mixed","both","cave","15","F_priest.wav","space","524.573549628","316","279791.827192","272058.130436","272824.712399","273591.00745","274358.092438","275124.383779","275890.899271","276658.065881","280540.818437","281324.947217","282074.390782","282840.886177","283607.931282","284374.620838","285140.812625","285907.649347","285149.826569","Mapping"
"Mixed","both","cave","15","M_cave.wav","None","724.481539801","316","279791.827192","286674.753195","272824.712399","273591.00745","274358.092438","275124.383779","275890.899271","276658.065881","280540.818437","281324.947217","282074.390782","282840.886177","283607.931282","284374.620838","285140.812625","285907.649347","285916.788198","Mapping"
"Mixed","both","cave","15","M_park.wav","space","629.267633427","316","279791.827192","286674.753195","287424.25674","273591.00745","274358.092438","275124.383779","275890.899271","276658.065881","280540.818437","281324.947217","282074.390782","282840.886177","283607.931282","284374.620838","285140.812625","285907.649347","286685.065049","Mapping"
"Mixed","both","cave","15","F_cling.wav","None","733.288647607","316","279791.827192","286674.753195","287424.25674","288208.274217","274358.092438","275124.383779","275890.899271","276658.065881","280540.818437","281324.947217","282074.390782","282840.886177","283607.931282","284374.620838","285140.812625","285907.649347","287435.489311","Mapping"
"Mixed","both","cave","15","M_priest.wav","None","718.257883098","316","279791.827192","286674.753195","287424.25674","288208.274217","288957.829085","275124.383779","275890.899271","276658.065881","280540.818437","281324.947217","282074.390782","282840.886177","283607.931282","284374.620838","285140.812625","285907.649347","288218.63863","Mapping"
"Mixed","both","cave","15","F_cave.wav","space","490.507918876","316","279791.827192","286674.753195","287424.25674","288208.274217","288957.829085","289724.099711","275890.899271","276658.065881","280540.818437","281324.947217","282074.390782","282840.886177","283607.931282","284374.620838","285140.812625","285907.649347","288967.7891","Mapping"
"Mixed","both","cave","15","F_dime.wav","None","731.806161813","316","279791.827192","286674.753195","287424.25674","288208.274217","288957.829085","289724.099711","290490.66838","276658.065881","280540.818437","281324.947217","282074.390782","282840.886177","283607.931282","284374.620838","285140.812625","285907.649347","289733.217847","Mapping"
"Mixed","both","cave","15","M_priest.wav","None","729.187156074","316","279791.827192","286674.753195","287424.25674","288208.274217","288957.829085","289724.099711","290490.66838","291257.322072","280540.818437","281324.947217","282074.390782","282840.886177","283607.931282","284374.620838","285140.812625","285907.649347","290500.022724","Mapping"
"Mixed","both","done","46","F_cling.wav","None","726.911949925","316","294374.736469","286674.753195","287424.25674","288208.274217","288957.829085","289724.099711","290490.66838","291257.322072","280540.818437","281324.947217","282074.390782","282840.886177","283607.931282","284374.620838","285140.812625","285907.649347","291266.377137","Mapping"
"Mixed","both","done","46","M_jolt.wav","None","719.849816058","316","294374.736469","286674.753195","287424.25674","288208.274217","288957.829085","289724.099711","290490.66838","291257.322072","295124.199203","281324.947217","282074.390782","282840.886177","283607.931282","284374.620838","285140.812625","285907.649347","294384.882296","Mapping"
"Mixed","both","done","46","M_knife.wav","None","735.318678897","316","294374.736469","286674.753195","287424.25674","288208.274217","288957.829085","289724.099711","290490.66838","291257.322072","295124.199203","295890.818886","282074.390782","282840.886177","283607.931282","284374.620838","285140.812625","285907.649347","295133.590957","Mapping"
"Mixed","both","done","46","M_done.wav","None","733.00358979","316","294374.736469","286674.753195","287424.25674","288208.274217","288957.829085","289724.099711","290490.66838","291257.322072","295124.199203","295890.818886","296657.683743","282840.886177","283607.931282","284374.620838","285140.812625","285907.649347","295900.109231","Mapping"
"Mixed","both","done","46","F_gnash.wav","space","374.287548941","316","294374.736469","286674.753195","287424.25674","288208.274217","288957.829085","289724.099711","290490.66838","291257.322072","295124.199203","295890.818886","296657.683743","297424.309609","283607.931282","284374.620838","285140.812625","285907.649347","296667.930979","Mapping"
"Mixed","both","done","46","M_priest.wav","None","726.957398932","316","294374.736469","286674.753195","287424.25674","288208.274217","288957.829085","289724.099711","290490.66838","291257.322072","295124.199203","295890.818886","296657.683743","297424.309609","298191.128708","284374.620838","285140.812625","285907.649347","297433.977454","Mapping"
"Mixed","both","done","46","M_bluff.wav","None","724.426507019","316","294374.736469","286674.753195","287424.25674","288208.274217","288957.829085","289724.099711","290490.66838","291257.322072","295124.199203","295890.818886","296657.683743","297424.309609","298191.128708","298958.013352","285140.812625","285907.649347","298200.736265","Mapping"
"Mixed","both","done","46","F_done.wav","None","721.130720805","316","294374.736469","286674.753195","287424.25674","288208.274217","288957.829085","289724.099711","290490.66838","291257.322072","295124.199203","295890.818886","296657.683743","297424.309609","298191.128708","298958.013352","299724.211941","285907.649347","298968.1666","Mapping"
"Mixed","both","done","46","F_knife.wav","space","372.542575467","316","294374.736469","286674.753195","287424.25674","288208.274217","288957.829085","289724.099711","290490.66838","291257.322072","295124.199203","295890.818886","296657.683743","297424.309609","298191.128708","298958.013352","299724.211941","300491.452753","299733.577415","Mapping"
"Mixed","both","done","46","M_done.wav","None","717.680038419","316","294374.736469","301240.860145","287424.25674","288208.274217","288957.829085","289724.099711","290490.66838","291257.322072","295124.199203","295890.818886","296657.683743","297424.309609","298191.128708","298958.013352","299724.211941","300491.452753","300502.993261","Mapping"
"Mixed","both","done","46","F_bluff.wav","space","639.297212008","316","294374.736469","301240.860145","302007.574744","288208.274217","288957.829085","289724.099711","290490.66838","291257.322072","295124.199203","295890.818886","296657.683743","297424.309609","298191.128708","298958.013352","299724.211941","300491.452753","301250.797281","Mapping"
"Mixed","both","done","46","F_greet.wav","None","730.8523627","316","294374.736469","301240.860145","302007.574744","302773.772714","288957.829085","289724.099711","290490.66838","291257.322072","295124.199203","295890.818886","296657.683743","297424.309609","298191.128708","298958.013352","299724.211941","300491.452753","302017.452209","Mapping"
"Mixed","both","done","46","M_park.wav","None","729.491382372","316","294374.736469","301240.860145","302007.574744","302773.772714","303540.587176","289724.099711","290490.66838","291257.322072","295124.199203","295890.818886","296657.683743","297424.309609","298191.128708","298958.013352","299724.211941","300491.452753","302783.052547","Mapping"
"Mixed","both","done","46","M_depth.wav","None","726.612670813","316","294374.736469","301240.860145","302007.574744","302773.772714","303540.587176","304307.949801","290490.66838","291257.322072","295124.199203","295890.818886","296657.683743","297424.309609","298191.128708","298958.013352","299724.211941","300491.452753","303550.17711","Mapping"
"Mixed","both","done","46","F_done.wav","None","723.042338621","316","294374.736469","301240.860145","302007.574744","302773.772714","303540.587176","304307.949801","305073.973707","291257.322072","295124.199203","295890.818886","296657.683743","297424.309609","298191.128708","298958.013352","299724.211941","300491.452753","304317.973815","Mapping"
"Mixed","both","done","46","F_jolt.wav","space","389.83988855","316","294374.736469","301240.860145","302007.574744","302773.772714","303540.587176","304307.949801","305073.973707","305823.44448","295124.199203","295890.818886","296657.683743","297424.309609","298191.128708","298958.013352","299724.211941","300491.452753","305084.200229","Mapping"
"Mixed","both","done","47","F_lash.wav","None","735.923730768","316","308957.828157","301240.860145","302007.574744","302773.772714","303540.587176","304307.949801","305073.973707","305823.44448","295124.199203","295890.818886","296657.683743","297424.309609","298191.128708","298958.013352","299724.211941","300491.452753","305833.028849","Mapping"
"Mixed","both","done","47","F_romp.wav","None","722.941548098","316","308957.828157","301240.860145","302007.574744","302773.772714","303540.587176","304307.949801","305073.973707","305823.44448","309724.349832","295890.818886","296657.683743","297424.309609","298191.128708","298958.013352","299724.211941","300491.452753","308967.982023","Mapping"
"Mixed","both","done","47","F_done.wav","None","721.275413875","316","308957.828157","301240.860145","302007.574744","302773.772714","303540.587176","304307.949801","305073.973707","305823.44448","309724.349832","310490.986828","296657.683743","297424.309609","298191.128708","298958.013352","299724.211941","300491.452753","309734.431661","Mapping"
"Mixed","both","done","47","F_reek.wav","space","436.571726575","316","308957.828157","301240.860145","302007.574744","302773.772714","303540.587176","304307.949801","305073.973707","305823.44448","309724.349832","310490.986828","311240.829846","297424.309609","298191.128708","298958.013352","299724.211941","300491.452753","310501.38185","Mapping"
"Mixed","both","done","47","M_reek.wav","None","733.025850262","316","308957.828157","301240.860145","302007.574744","302773.772714","303540.587176","304307.949801","305073.973707","305823.44448","309724.349832","310490.986828","311240.829846","312024.39964","298191.128708","298958.013352","299724.211941","300491.452753","311250.40865","Mapping"
"Mixed","both","done","47","F_done.wav","None","726.319883484","316","308957.828157","301240.860145","302007.574744","302773.772714","303540.587176","304307.949801","305073.973707","305823.44448","309724.349832","310490.986828","311240.829846","312024.39964","312791.234198","298958.013352","299724.211941","300491.452753","312030.460362","Mapping"
"Mixed","both","done","47","F_knife.wav","space","480.443094857","316","308957.828157","301240.860145","302007.574744","302773.772714","303540.587176","304307.949801","305073.973707","305823.44448","309724.349832","310490.986828","311240.829846","312024.39964","312791.234198","313540.670652","299724.211941","300491.452753","312801.454536","Mapping"
"Mixed","both","done","47","F_knife.wav","None","734.128052834","316","308957.828157","301240.860145","302007.574744","302773.772714","303540.587176","304307.949801","305073.973707","305823.44448","309724.349832","310490.986828","311240.829846","312024.39964","312791.234198","313540.670652","314307.369793","300491.452753","313550.523075","Mapping"
"Mixed","both","done","47","M_jolt.wav","None","731.846972834","316","308957.828157","301240.860145","302007.574744","302773.772714","303540.587176","304307.949801","305073.973707","305823.44448","309724.349832","310490.986828","311240.829846","312024.39964","312791.234198","313540.670652","314307.369793","315073.537773","314317.214795","Mapping"
"Mixed","both","done","47","M_depth.wav","None","730.706742033","316","308957.828157","315840.37666","302007.574744","302773.772714","303540.587176","304307.949801","305073.973707","305823.44448","309724.349832","310490.986828","311240.829846","312024.39964","312791.234198","313540.670652","314307.369793","315073.537773","315082.897373","Mapping"
"Mixed","both","done","47","M_done.wav","None","731.291079428","316","308957.828157","315840.37666","316607.275835","302773.772714","303540.587176","304307.949801","305073.973707","305823.44448","309724.349832","310490.986828","311240.829846","312024.39964","312791.234198","313540.670652","314307.369793","315073.537773","315849.59064","Mapping"
"Mixed","both","done","47","F_depth.wav","space","400.8396524","316","308957.828157","315840.37666","316607.275835","317373.560683","303540.587176","304307.949801","305073.973707","305823.44448","309724.349832","310490.986828","311240.829846","312024.39964","312791.234198","313540.670652","314307.369793","315073.537773","316616.995622","Mapping"
"Mixed","both","done","47","M_jaw.wav","None","725.961242337","316","308957.828157","315840.37666","316607.275835","317373.560683","318140.437907","304307.949801","305073.973707","305823.44448","309724.349832","310490.986828","311240.829846","312024.39964","312791.234198","313540.670652","314307.369793","315073.537773","317382.760132","Mapping"
"Mixed","both","done","47","M_dime.wav","None","723.093970679","316","308957.828157","315840.37666","316607.275835","317373.560683","318140.437907","318907.058517","305073.973707","305823.44448","309724.349832","310490.986828","311240.829846","312024.39964","312791.234198","313540.670652","314307.369793","315073.537773","318149.840173","Mapping"
"Mixed","both","done","47","M_done.wav","None","720.692312811","316","308957.828157","315840.37666","316607.275835","317373.560683","318140.437907","318907.058517","319657.189066","305823.44448","309724.349832","310490.986828","311240.829846","312024.39964","312791.234198","313540.670652","314307.369793","315073.537773","318916.479334","Mapping"
"Mixed","both","done","47","M_knife.wav","space","558.661440387","316","308957.828157","315840.37666","316607.275835","317373.560683","318140.437907","318907.058517","319657.189066","320423.851723","309724.349832","310490.986828","311240.829846","312024.39964","312791.234198","313540.670652","314307.369793","315073.537773","319667.1194","Mapping"
"Mixed","both","done","37","F_depth.wav","None","731.371773407","316","323557.447936","315840.37666","316607.275835","317373.560683","318140.437907","318907.058517","319657.189066","320423.851723","309724.349832","310490.986828","311240.829846","312024.39964","312791.234198","313540.670652","314307.369793","315073.537773","320433.630253","Mapping"
"Mixed","both","done","37","F_done.wav","None","719.543425366","316","323557.447936","315840.37666","316607.275835","317373.560683","318140.437907","318907.058517","319657.189066","320423.851723","324306.977452","310490.986828","311240.829846","312024.39964","312791.234198","313540.670652","314307.369793","315073.537773","323567.651888","Mapping"
"Mixed","both","done","37","M_bluff.wav","space","573.079423979","316","323557.447936","315840.37666","316607.275835","317373.560683","318140.437907","318907.058517","319657.189066","320423.851723","324306.977452","325073.455842","311240.829846","312024.39964","312791.234198","313540.670652","314307.369793","315073.537773","324316.616544","Mapping"
"Mixed","both","done","37","F_done.wav","None","731.161844917","316","323557.447936","315840.37666","316607.275835","317373.560683","318140.437907","318907.058517","319657.189066","320423.851723","324306.977452","325073.455842","325840.079544","312024.39964","312791.234198","313540.670652","314307.369793","315073.537773","325083.993702","Mapping"
"Mixed","both","done","37","F_park.wav","None","730.242982041","316","323557.447936","315840.37666","316607.275835","317373.560683","318140.437907","318907.058517","319657.189066","320423.851723","324306.977452","325073.455842","325840.079544","326606.665218","312791.234198","313540.670652","314307.369793","315073.537773","325849.355359","Mapping"
"Mixed","both","done","37","M_jolt.wav","space","137.644527014","316","323557.447936","315840.37666","316607.275835","317373.560683","318140.437907","318907.058517","319657.189066","320423.851723","324306.977452","325073.455842","325840.079544","326606.665218","327373.53564","313540.670652","314307.369793","315073.537773","326615.994828","Mapping"
"Mixed","both","done","37","F_bluff.wav","None","724.264500197","316","323557.447936","315840.37666","316607.275835","317373.560683","318140.437907","318907.058517","319657.189066","320423.851723","324306.977452","325073.455842","325840.079544","326606.665218","327373.53564","328140.903213","314307.369793","315073.537773","327382.96635","Mapping"
"Mixed","both","done","37","M_knife.wav","None","720.401381142","316","323557.447936","315840.37666","316607.275835","317373.560683","318140.437907","318907.058517","319657.189066","320423.851723","324306.977452","325073.455842","325840.079544","326606.665218","327373.53564","328140.903213","328907.398608","315073.537773","328151.316166","Mapping"
"Mixed","both","done","37","M_cling.wav","None","718.666919507","316","323557.447936","315840.37666","316607.275835","317373.560683","318140.437907","318907.058517","319657.189066","320423.851723","324306.977452","325073.455842","325840.079544","326606.665218","327373.53564","328140.903213","328907.398608","329657.071271","328917.531759","Mapping"
"Mixed","both","done","37","F_greet.wav","None","733.420664445","316","323557.447936","330423.267077","316607.275835","317373.560683","318140.437907","318907.058517","319657.189066","320423.851723","324306.977452","325073.455842","325840.079544","326606.665218","327373.53564","328140.903213","328907.398608","329657.071271","329667.168249","Mapping"
"Mixed","both","done","37","M_jolt.wav","None","732.411832083","316","323557.447936","330423.267077","331190.470787","317373.560683","318140.437907","318907.058517","319657.189066","320423.851723","324306.977452","325073.455842","325840.079544","326606.665218","327373.53564","328140.903213","328907.398608","329657.071271","330432.447666","Mapping"
"Mixed","both","done","37","M_done.wav","None","728.873654269","316","323557.447936","330423.267077","331190.470787","331957.059862","318140.437907","318907.058517","319657.189066","320423.851723","324306.977452","325073.455842","325840.079544","326606.665218","327373.53564","328140.903213","328907.398608","329657.071271","331200.232004","Mapping"
"Mixed","both","done","37","M_romp.wav","space","434.761208482","316","323557.447936","330423.267077","331190.470787","331957.059862","332723.233408","318907.058517","319657.189066","320423.851723","324306.977452","325073.455842","325840.079544","326606.665218","327373.53564","328140.903213","328907.398608","329657.071271","331966.836537","Mapping"
"Mixed","both","done","37","M_done.wav","None","725.271168165","316","323557.447936","330423.267077","331190.470787","331957.059862","332723.233408","333490.110322","319657.189066","320423.851723","324306.977452","325073.455842","325840.079544","326606.665218","327373.53564","328140.903213","328907.398608","329657.071271","332732.426982","Mapping"
"Mixed","both","done","37","F_jaw.wav","space","645.994212944","316","323557.447936","330423.267077","331190.470787","331957.059862","332723.233408","333490.110322","334256.75072","320423.851723","324306.977452","325073.455842","325840.079544","326606.665218","327373.53564","328140.903213","328907.398608","329657.071271","333499.508569","Mapping"
"Mixed","both","done","37","F_reek.wav","None","722.736565862","316","323557.447936","330423.267077","331190.470787","331957.059862","332723.233408","333490.110322","334256.75072","335023.878992","324306.977452","325073.455842","325840.079544","326606.665218","327373.53564","328140.903213","328907.398608","329657.071271","334266.09919","Mapping"
"Mixed","both","cave","16","F_reek.wav","None","718.701546546","316","338140.72482","330423.267077","331190.470787","331957.059862","332723.233408","333490.110322","334256.75072","335023.878992","324306.977452","325073.455842","325840.079544","326606.665218","327373.53564","328140.903213","328907.398608","329657.071271","335034.577931","Mapping"
"Mixed","both","cave","16","M_cave.wav","None","719.121094793","316","338140.72482","330423.267077","331190.470787","331957.059862","332723.233408","333490.110322","334256.75072","335023.878992","338889.712355","325073.455842","325840.079544","326606.665218","327373.53564","328140.903213","328907.398608","329657.071271","338151.013485","Mapping"
"Mixed","both","cave","16","F_knife.wav","None","735.600644723","316","338140.72482","330423.267077","331190.470787","331957.059862","332723.233408","333490.110322","334256.75072","335023.878992","338889.712355","339656.515996","325840.079544","326606.665218","327373.53564","328140.903213","328907.398608","329657.071271","338899.028052","Mapping"
"Mixed","both","cave","16","F_reek.wav","space","463.264503982","316","338140.72482","330423.267077","331190.470787","331957.059862","332723.233408","333490.110322","334256.75072","335023.878992","338889.712355","339656.515996","340423.498956","326606.665218","327373.53564","328140.903213","328907.398608","329657.071271","339666.157253","Mapping"
"Mixed","both","cave","16","M_cave.wav","None","729.347307701","316","338140.72482","330423.267077","331190.470787","331957.059862","332723.233408","333490.110322","334256.75072","335023.878992","338889.712355","339656.515996","340423.498956","341190.223758","327373.53564","328140.903213","328907.398608","329657.071271","340433.262955","Mapping"
"Mixed","both","cave","16","M_cling.wav","space","409.453527071","316","338140.72482","330423.267077","331190.470787","331957.059862","332723.233408","333490.110322","334256.75072","335023.878992","338889.712355","339656.515996","340423.498956","341190.223758","341957.185386","328140.903213","328907.398608","329657.071271","341199.924376","Mapping"
"Mixed","both","cave","16","F_cave.wav","None","722.711213864","316","338140.72482","330423.267077","331190.470787","331957.059862","332723.233408","333490.110322","334256.75072","335023.878992","338889.712355","339656.515996","340423.498956","341190.223758","341957.185386","342723.851445","328907.398608","329657.071271","341967.841041","Mapping"
"Mixed","both","cave","16","M_jaw.wav","None","721.856659278","316","338140.72482","330423.267077","331190.470787","331957.059862","332723.233408","333490.110322","334256.75072","335023.878992","338889.712355","339656.515996","340423.498956","341190.223758","341957.185386","342723.851445","343490.63468","329657.071271","342733.846396","Mapping"
"Mixed","both","cave","16","F_romp.wav","space","0.0398834235966","316","338140.72482","330423.267077","331190.470787","331957.059862","332723.233408","333490.110322","334256.75072","335023.878992","338889.712355","339656.515996","340423.498956","341190.223758","341957.185386","342723.851445","343490.63468","344240.070825","343501.192327","Mapping"
"Mixed","both","cave","16","F_cave.wav","None","733.947495464","316","338140.72482","345006.821907","331190.470787","331957.059862","332723.233408","333490.110322","334256.75072","335023.878992","338889.712355","339656.515996","340423.498956","341190.223758","341957.185386","342723.851445","343490.63468","344240.070825","344249.819675","Mapping"
"Mixed","both","cave","16","M_greet.wav","space","368.805598933","316","338140.72482","345006.821907","345789.871672","331957.059862","332723.233408","333490.110322","334256.75072","335023.878992","338889.712355","339656.515996","340423.498956","341190.223758","341957.185386","342723.851445","343490.63468","344240.070825","345016.516033","Mapping"
"Mixed","both","cave","16","M_knife.wav","None","727.702196687","316","338140.72482","345006.821907","345789.871672","346557.280364","332723.233408","333490.110322","334256.75072","335023.878992","338889.712355","339656.515996","340423.498956","341190.223758","341957.185386","342723.851445","343490.63468","344240.070825","345793.764162","Mapping"
"Mixed","both","cave","16","M_lash.wav","None","718.472140376","316","338140.72482","345006.821907","345789.871672","346557.280364","347306.751756","333490.110322","334256.75072","335023.878992","338889.712355","339656.515996","340423.498956","341190.223758","341957.185386","342723.851445","343490.63468","344240.070825","346567.267586","Mapping"
"Mixed","both","cave","16","M_greet.wav","None","733.61760797","316","338140.72482","345006.821907","345789.871672","346557.280364","347306.751756","348072.976314","334256.75072","335023.878992","338889.712355","339656.515996","340423.498956","341190.223758","341957.185386","342723.851445","343490.63468","344240.070825","347316.613144","Mapping"
"Mixed","both","cave","16","F_bluff.wav","None","732.90032614","316","338140.72482","345006.821907","345789.871672","346557.280364","347306.751756","348072.976314","348839.705444","335023.878992","338889.712355","339656.515996","340423.498956","341190.223758","341957.185386","342723.851445","343490.63468","344240.070825","348081.852677","Mapping"
"Mixed","both","cave","16","F_greet.wav","None","730.078811292","316","338140.72482","345006.821907","345789.871672","346557.280364","347306.751756","348072.976314","348839.705444","349606.70572","338889.712355","339656.515996","340423.498956","341190.223758","341957.185386","342723.851445","343490.63468","344240.070825","348849.108638","Mapping"
"Mixed","both","cave","22","F_bluff.wav","None","727.180622052","316","352740.506914","345006.821907","345789.871672","346557.280364","347306.751756","348072.976314","348839.705444","349606.70572","338889.712355","339656.515996","340423.498956","341190.223758","341957.185386","342723.851445","343490.63468","344240.070825","349616.810736","Mapping"
"Mixed","both","cave","22","M_cave.wav","None","719.269188587","316","352740.506914","345006.821907","345789.871672","346557.280364","347306.751756","348072.976314","348839.705444","349606.70572","353489.444363","339656.515996","340423.498956","341190.223758","341957.185386","342723.851445","343490.63468","344240.070825","352750.590289","Mapping"
"Mixed","both","cave","22","M_bluff.wav","space","494.448021986","316","352740.506914","345006.821907","345789.871672","346557.280364","347306.751756","348072.976314","348839.705444","349606.70572","353489.444363","354256.202556","340423.498956","341190.223758","341957.185386","342723.851445","343490.63468","344240.070825","353498.713376","Mapping"
"Mixed","both","cave","22","F_cave.wav","None","732.493454125","316","352740.506914","345006.821907","345789.871672","346557.280364","347306.751756","348072.976314","348839.705444","349606.70572","353489.444363","354256.202556","355022.85532","341190.223758","341957.185386","342723.851445","343490.63468","344240.070825","354265.367995","Mapping"
"Mixed","both","cave","22","F_priest.wav","space","360.56025885","316","352740.506914","345006.821907","345789.871672","346557.280364","347306.751756","348072.976314","348839.705444","349606.70572","353489.444363","354256.202556","355022.85532","355789.525398","341957.185386","342723.851445","343490.63468","344240.070825","355032.595203","Mapping"
"Mixed","both","cave","22","F_knife.wav","None","726.980896201","316","352740.506914","345006.821907","345789.871672","346557.280364","347306.751756","348072.976314","348839.705444","349606.70572","353489.444363","354256.202556","355022.85532","355789.525398","356556.120346","342723.851445","343490.63468","344240.070825","355798.908186","Mapping"
"Mixed","both","cave","22","M_cave.wav","None","725.237467792","316","352740.506914","345006.821907","345789.871672","346557.280364","347306.751756","348072.976314","348839.705444","349606.70572","353489.444363","354256.202556","355022.85532","355789.525398","356556.120346","357323.025087","343490.63468","344240.070825","356565.186851","Mapping"
"Mixed","both","cave","22","M_cling.wav","space","372.826087289","316","352740.506914","345006.821907","345789.871672","346557.280364","347306.751756","348072.976314","348839.705444","349606.70572","353489.444363","354256.202556","355022.85532","355789.525398","356556.120346","357323.025087","358073.027947","344240.070825","357332.265037","Mapping"
"Mixed","both","cave","22","F_depth.wav","None","736.410369165","316","352740.506914","345006.821907","345789.871672","346557.280364","347306.751756","348072.976314","348839.705444","349606.70572","353489.444363","354256.202556","355022.85532","355789.525398","356556.120346","357323.025087","358073.027947","358840.018019","358082.085485","Mapping"
"Mixed","both","cave","22","F_jolt.wav","None","733.208881225","316","352740.506914","359606.516196","345789.871672","346557.280364","347306.751756","348072.976314","348839.705444","349606.70572","353489.444363","354256.202556","355022.85532","355789.525398","356556.120346","357323.025087","358073.027947","358840.018019","358849.90816","Mapping"
"Mixed","both","cave","22","F_reek.wav","None","731.819456443","316","352740.506914","359606.516196","360372.776929","346557.280364","347306.751756","348072.976314","348839.705444","349606.70572","353489.444363","354256.202556","355022.85532","355789.525398","356556.120346","357323.025087","358073.027947","358840.018019","359616.223617","Mapping"
"Mixed","both","cave","22","M_jaw.wav","None","729.818796739","316","352740.506914","359606.516196","360372.776929","361139.919733","347306.751756","348072.976314","348839.705444","349606.70572","353489.444363","354256.202556","355022.85532","355789.525398","356556.120346","357323.025087","358073.027947","358840.018019","360382.669853","Mapping"
"Mixed","both","cave","22","M_greet.wav","None","727.619956713","316","352740.506914","359606.516196","360372.776929","361139.919733","361906.206745","348072.976314","348839.705444","349606.70572","353489.444363","354256.202556","355022.85532","355789.525398","356556.120346","357323.025087","358073.027947","358840.018019","361149.33282","Mapping"
"Mixed","both","cave","22","F_cave.wav","None","725.418952759","316","352740.506914","359606.516196","360372.776929","361139.919733","361906.206745","362673.356351","348839.705444","349606.70572","353489.444363","354256.202556","355022.85532","355789.525398","356556.120346","357323.025087","358073.027947","358840.018019","361915.850475","Mapping"
"Mixed","both","cave","22","M_cad.wav","space","437.493372243","316","352740.506914","359606.516196","360372.776929","361139.919733","361906.206745","362673.356351","363439.66315","349606.70572","353489.444363","354256.202556","355022.85532","355789.525398","356556.120346","357323.025087","358073.027947","358840.018019","362683.521656","Mapping"
"Mixed","both","cave","22","M_priest.wav","None","720.457959455","316","352740.506914","359606.516196","360372.776929","361139.919733","361906.206745","362673.356351","363439.66315","364189.712695","353489.444363","354256.202556","355022.85532","355789.525398","356556.120346","357323.025087","358073.027947","358840.018019","363449.070672","Mapping"
"Mixed","both","tile","28","M_cad.wav","None","734.580991324","316","367323.478335","359606.516196","360372.776929","361139.919733","361906.206745","362673.356351","363439.66315","364189.712695","353489.444363","354256.202556","355022.85532","355789.525398","356556.120346","357323.025087","358073.027947","358840.018019","364199.499263","Mapping"
"Mixed","both","tile","28","M_cling.wav","None","719.991417602","316","367323.478335","359606.516196","360372.776929","361139.919733","361906.206745","362673.356351","363439.66315","364189.712695","368089.5211","354256.202556","355022.85532","355789.525398","356556.120346","357323.025087","358073.027947","358840.018019","367333.602211","Mapping"
"Mixed","both","tile","28","F_tile.wav","None","719.754281454","316","367323.478335","359606.516196","360372.776929","361139.919733","361906.206745","362673.356351","363439.66315","364189.712695","368089.5211","368839.354224","355022.85532","355789.525398","356556.120346","357323.025087","358073.027947","358840.018019","368099.084446","Mapping"
"Mixed","both","tile","28","F_jolt.wav","space","304.391527083","316","367323.478335","359606.516196","360372.776929","361139.919733","361906.206745","362673.356351","363439.66315","364189.712695","368089.5211","368839.354224","369605.909599","355789.525398","356556.120346","357323.025087","358073.027947","358840.018019","368848.512243","Mapping"
"Mixed","both","tile","28","M_cling.wav","None","731.865213718","316","367323.478335","359606.516196","360372.776929","361139.919733","361906.206745","362673.356351","363439.66315","364189.712695","368089.5211","368839.354224","369605.909599","370373.009118","356556.120346","357323.025087","358073.027947","358840.018019","369615.29115","Mapping"
"Mixed","both","tile","28","F_knife.wav","None","728.95187512","316","367323.478335","359606.516196","360372.776929","361139.919733","361906.206745","362673.356351","363439.66315","364189.712695","368089.5211","368839.354224","369605.909599","370373.009118","371139.80472","357323.025087","358073.027947","358840.018019","370382.79043","Mapping"
"Mixed","both","tile","28","M_tile.wav","None","726.676978637","316","367323.478335","359606.516196","360372.776929","361139.919733","361906.206745","362673.356351","363439.66315","364189.712695","368089.5211","368839.354224","369605.909599","370373.009118","371139.80472","371905.855833","358073.027947","358840.018019","371149.777102","Mapping"
"Mixed","both","tile","28","M_park.wav","space","390.007151291","316","367323.478335","359606.516196","360372.776929","361139.919733","361906.206745","362673.356351","363439.66315","364189.712695","368089.5211","368839.354224","369605.909599","370373.009118","371139.80472","371905.855833","372672.751607","358840.018019","371914.841025","Mapping"
"Mixed","both","tile","28","F_tile.wav","None","721.257481724","316","367323.478335","359606.516196","360372.776929","361139.919733","361906.206745","362673.356351","363439.66315","364189.712695","368089.5211","368839.354224","369605.909599","370373.009118","371139.80472","371905.855833","372672.751607","373439.99953","372683.834848","Mapping"
"Mixed","both","tile","28","M_romp.wav","space","478.556829039","316","367323.478335","374189.672811","360372.776929","361139.919733","361906.206745","362673.356351","363439.66315","364189.712695","368089.5211","368839.354224","369605.909599","370373.009118","371139.80472","371905.855833","372672.751607","373439.99953","373450.232545","Mapping"
"Mixed","both","tile","28","F_lash.wav","None","734.459486324","316","367323.478335","374189.672811","374956.243336","361139.919733","361906.206745","362673.356351","363439.66315","364189.712695","368089.5211","368839.354224","369605.909599","370373.009118","371139.80472","371905.855833","372672.751607","373439.99953","374199.101666","Mapping"
"Mixed","both","tile","28","F_jolt.wav","None","731.958893593","316","367323.478335","374189.672811","374956.243336","375722.881878","361906.206745","362673.356351","363439.66315","364189.712695","368089.5211","368839.354224","369605.909599","370373.009118","371139.80472","371905.855833","372672.751607","373439.99953","374966.322691","Mapping"
"Mixed","both","tile","28","F_depth.wav","None","731.009732001","316","367323.478335","374189.672811","374956.243336","375722.881878","376489.679026","362673.356351","363439.66315","364189.712695","368089.5211","368839.354224","369605.909599","370373.009118","371139.80472","371905.855833","372672.751607","373439.99953","375732.466247","Mapping"
"Mixed","both","tile","28","M_tile.wav","None","728.806872852","316","367323.478335","374189.672811","374956.243336","375722.881878","376489.679026","377255.810215","363439.66315","364189.712695","368089.5211","368839.354224","369605.909599","370373.009118","371139.80472","371905.855833","372672.751607","373439.99953","376499.392011","Mapping"
"Mixed","both","tile","28","F_bluff.wav","space","415.676874574","316","367323.478335","374189.672811","374956.243336","375722.881878","376489.679026","377255.810215","378023.236221","364189.712695","368089.5211","368839.354224","369605.909599","370373.009118","371139.80472","371905.855833","372672.751607","373439.99953","377265.072735","Mapping"
"Mixed","both","tile","28","M_reek.wav","None","722.658963874","316","367323.478335","374189.672811","374956.243336","375722.881878","376489.679026","377255.810215","378023.236221","378789.351024","368089.5211","368839.354224","369605.909599","370373.009118","371139.80472","371905.855833","372672.751607","373439.99953","378034.063466","Mapping"
"Mixed","both","ball","7","M_cling.wav","None","723.603797145","316","381923.082036","374189.672811","374956.243336","375722.881878","376489.679026","377255.810215","378023.236221","378789.351024","368089.5211","368839.354224","369605.909599","370373.009118","371139.80472","371905.855833","372672.751607","373439.99953","378798.654664","Mapping"
"Mixed","both","ball","7","F_ball.wav","None","720.584102441","316","381923.082036","374189.672811","374956.243336","375722.881878","376489.679026","377255.810215","378023.236221","378789.351024","382689.808075","368839.354224","369605.909599","370373.009118","371139.80472","371905.855833","372672.751607","373439.99953","381932.834905","Mapping"
"Mixed","both","ball","7","M_priest.wav","space","308.433039114","316","381923.082036","374189.672811","374956.243336","375722.881878","376489.679026","377255.810215","378023.236221","378789.351024","382689.808075","383439.783727","369605.909599","370373.009118","371139.80472","371905.855833","372672.751607","373439.99953","382700.262766","Mapping"
"Mixed","both","ball","7","F_bluff.wav","None","735.299200751","316","381923.082036","374189.672811","374956.243336","375722.881878","376489.679026","377255.810215","378023.236221","378789.351024","382689.808075","383439.783727","384205.602342","370373.009118","371139.80472","371905.855833","372672.751607","373439.99953","383449.489911","Mapping"
"Mixed","both","ball","7","F_ball.wav","space","329.753313679","316","381923.082036","374189.672811","374956.243336","375722.881878","376489.679026","377255.810215","378023.236221","378789.351024","382689.808075","383439.783727","384205.602342","384972.316941","371139.80472","371905.855833","372672.751607","373439.99953","384214.864244","Mapping"
"Mixed","both","ball","7","M_knife.wav","space","594.982799143","316","381923.082036","374189.672811","374956.243336","375722.881878","376489.679026","377255.810215","378023.236221","378789.351024","382689.808075","383439.783727","384205.602342","384972.316941","385739.577849","371905.855833","372672.751607","373439.99953","384981.604504","Mapping"
"Mixed","both","ball","7","F_cad.wav","None","727.561214007","316","381923.082036","374189.672811","374956.243336","375722.881878","376489.679026","377255.810215","378023.236221","378789.351024","382689.808075","383439.783727","384205.602342","384972.316941","385739.577849","386506.100451","372672.751607","373439.99953","385749.218797","Mapping"
"Mixed","both","ball","7","M_cling.wav","None","728.496153373","316","381923.082036","374189.672811","374956.243336","375722.881878","376489.679026","377255.810215","378023.236221","378789.351024","382689.808075","383439.783727","384205.602342","384972.316941","385739.577849","386506.100451","387272.467848","373439.99953","386516.054282","Mapping"
"Mixed","both","ball","7","M_ball.wav","None","727.573580574","316","381923.082036","374189.672811","374956.243336","375722.881878","376489.679026","377255.810215","378023.236221","378789.351024","382689.808075","383439.783727","384205.602342","384972.316941","385739.577849","386506.100451","387272.467848","388038.913157","387281.644109","Mapping"
"Mixed","both","ball","7","F_park.wav","space","464.26962642","316","381923.082036","388806.016387","374956.243336","375722.881878","376489.679026","377255.810215","378023.236221","378789.351024","382689.808075","383439.783727","384205.602342","384972.316941","385739.577849","386506.100451","387272.467848","388038.913157","388048.270284","Mapping"
"Mixed","both","ball","7","F_reek.wav","None","725.64186668","316","381923.082036","388806.016387","389572.406045","375722.881878","376489.679026","377255.810215","378023.236221","378789.351024","382689.808075","383439.783727","384205.602342","384972.316941","385739.577849","386506.100451","387272.467848","388038.913157","388815.705257","Mapping"
"Mixed","both","ball","7","M_bluff.wav","None","724.19771878","316","381923.082036","388806.016387","389572.406045","390339.096837","376489.679026","377255.810215","378023.236221","378789.351024","382689.808075","383439.783727","384205.602342","384972.316941","385739.577849","386506.100451","387272.467848","388038.913157","389581.888696","Mapping"
"Mixed","both","ball","7","F_depth.wav","None","720.525668468","316","381923.082036","388806.016387","389572.406045","390339.096837","391105.683129","377255.810215","378023.236221","378789.351024","382689.808075","383439.783727","384205.602342","384972.316941","385739.577849","386506.100451","387272.467848","388038.913157","390350.383205","Mapping"
"Mixed","both","ball","7","F_cling.wav","None","720.323159825","316","381923.082036","388806.016387","389572.406045","390339.096837","391105.683129","391855.421955","378023.236221","378789.351024","382689.808075","383439.783727","384205.602342","384972.316941","385739.577849","386506.100451","387272.467848","388038.913157","391115.352521","Mapping"
"Mixed","both","ball","7","M_ball.wav","None","735.665570945","316","381923.082036","388806.016387","389572.406045","390339.096837","391105.683129","391855.421955","392622.076574","378789.351024","382689.808075","383439.783727","384205.602342","384972.316941","385739.577849","386506.100451","387272.467848","388038.913157","391864.885129","Mapping"
"Mixed","both","ball","7","M_dime.wav","space","353.378474712","316","381923.082036","388806.016387","389572.406045","390339.096837","391105.683129","391855.421955","392622.076574","393388.832911","382689.808075","383439.783727","384205.602342","384972.316941","385739.577849","386506.100451","387272.467848","388038.913157","392631.059292","Mapping"
"Mixed","both","ball","8","F_park.wav","None","730.818044394","316","396522.87959","388806.016387","389572.406045","390339.096837","391105.683129","391855.421955","392622.076574","393388.832911","382689.808075","383439.783727","384205.602342","384972.316941","385739.577849","386506.100451","387272.467848","388038.913157","393398.182618","Mapping"
"Mixed","both","ball","8","F_depth.wav","None","719.810241833","316","396522.87959","388806.016387","389572.406045","390339.096837","391105.683129","391855.421955","392622.076574","393388.832911","397272.355309","383439.783727","384205.602342","384972.316941","385739.577849","386506.100451","387272.467848","388038.913157","396533.227926","Mapping"
"Mixed","both","ball","8","F_jaw.wav","None","735.779037699","316","396522.87959","388806.016387","389572.406045","390339.096837","391105.683129","391855.421955","392622.076574","393388.832911","397272.355309","398039.122159","384205.602342","384972.316941","385739.577849","386506.100451","387272.467848","388038.913157","397282.076333","Mapping"
"Mixed","both","ball","8","F_reek.wav","None","733.381399419","316","396522.87959","388806.016387","389572.406045","390339.096837","391105.683129","391855.421955","392622.076574","393388.832911","397272.355309","398039.122159","398805.849433","384972.316941","385739.577849","386506.100451","387272.467848","388038.913157","398049.301686","Mapping"
"Mixed","both","ball","8","M_jolt.wav","None","733.060477767","316","396522.87959","388806.016387","389572.406045","390339.096837","391105.683129","391855.421955","392622.076574","393388.832911","397272.355309","398039.122159","398805.849433","399572.030709","385739.577849","386506.100451","387272.467848","388038.913157","398815.376915","Mapping"
"Mixed","both","ball","8","M_depth.wav","None","731.857484672","316","396522.87959","388806.016387","389572.406045","390339.096837","391105.683129","391855.421955","392622.076574","393388.832911","397272.355309","398039.122159","398805.849433","399572.030709","400338.778698","386506.100451","387272.467848","388038.913157","399581.425555","Mapping"
"Mixed","both","ball","8","M_ball.wav","None","730.058406014","316","396522.87959","388806.016387","389572.406045","390339.096837","391105.683129","391855.421955","392622.076574","393388.832911","397272.355309","398039.122159","398805.849433","399572.030709","400338.778698","401105.748674","387272.467848","388038.913157","400348.009373","Mapping"
"Mixed","both","ball","8","M_lash.wav","space","372.961814515","316","396522.87959","388806.016387","389572.406045","390339.096837","391105.683129","391855.421955","392622.076574","393388.832911","397272.355309","398039.122159","398805.849433","399572.030709","400338.778698","401105.748674","401872.398346","388038.913157","401115.347265","Mapping"
"Mixed","both","ball","8","M_ball.wav","None","724.908507895","316","396522.87959","388806.016387","389572.406045","390339.096837","391105.683129","391855.421955","392622.076574","393388.832911","397272.355309","398039.122159","398805.849433","399572.030709","400338.778698","401105.748674","401872.398346","402638.934552","401881.717445","Mapping"
"Mixed","both","ball","8","F_cad.wav","None","722.764391452","316","396522.87959","403406.167016","389572.406045","390339.096837","391105.683129","391855.421955","392622.076574","393388.832911","397272.355309","398039.122159","398805.849433","399572.030709","400338.778698","401105.748674","401872.398346","402638.934552","402648.716174","Mapping"
"Mixed","both","ball","8","F_knife.wav","space","7.58092664182","316","396522.87959","403406.167016","404155.572553","390339.096837","391105.683129","391855.421955","392622.076574","393388.832911","397272.355309","398039.122159","398805.849433","399572.030709","400338.778698","401105.748674","401872.398346","402638.934552","403416.688798","Mapping"
"Mixed","both","ball","8","M_romp.wav","None","734.677144326","316","396522.87959","403406.167016","404155.572553","404922.365373","391105.683129","391855.421955","392622.076574","393388.832911","397272.355309","398039.122159","398805.849433","399572.030709","400338.778698","401105.748674","401872.398346","402638.934552","404165.327277","Mapping"
"Mixed","both","ball","8","F_ball.wav","None","732.413068879","316","396522.87959","403406.167016","404155.572553","404922.365373","405689.109652","391855.421955","392622.076574","393388.832911","397272.355309","398039.122159","398805.849433","399572.030709","400338.778698","401105.748674","401872.398346","402638.934552","404932.293852","Mapping"
"Mixed","both","ball","8","M_romp.wav","space","442.560102325","316","396522.87959","403406.167016","404155.572553","404922.365373","405689.109652","406455.783131","392622.076574","393388.832911","397272.355309","398039.122159","398805.849433","399572.030709","400338.778698","401105.748674","401872.398346","402638.934552","405693.681397","Mapping"
"Mixed","both","ball","8","F_ball.wav","None","727.38962248","316","396522.87959","403406.167016","404155.572553","404922.365373","405689.109652","406455.783131","407221.890205","393388.832911","397272.355309","398039.122159","398805.849433","399572.030709","400338.778698","401105.748674","401872.398346","402638.934552","406465.827859","Mapping"
"Mixed","both","ball","8","M_park.wav","space","416.974165477","316","396522.87959","403406.167016","404155.572553","404922.365373","405689.109652","406455.783131","407221.890205","407988.752279","397272.355309","398039.122159","398805.849433","399572.030709","400338.778698","401105.748674","401872.398346","402638.934552","407231.264336","Mapping"
"Mixed","both","ball","9","F_dime.wav","None","723.5234119","316","411105.507209","403406.167016","404155.572553","404922.365373","405689.109652","406455.783131","407221.890205","407988.752279","397272.355309","398039.122159","398805.849433","399572.030709","400338.778698","401105.748674","401872.398346","402638.934552","407998.246061","Mapping"
"Mixed","both","ball","9","M_cling.wav","None","723.169717938","316","411105.507209","403406.167016","404155.572553","404922.365373","405689.109652","406455.783131","407221.890205","407988.752279","411872.124419","398039.122159","398805.849433","399572.030709","400338.778698","401105.748674","401872.398346","402638.934552","411115.116313","Mapping"
"Mixed","both","ball","9","M_greet.wav","None","721.653532237","316","411105.507209","403406.167016","404155.572553","404922.365373","405689.109652","406455.783131","407221.890205","407988.752279","411872.124419","412639.599274","398805.849433","399572.030709","400338.778698","401105.748674","401872.398346","402638.934552","411881.552656","Mapping"
"Mixed","both","ball","9","F_cling.wav","None","717.938507441","316","411105.507209","403406.167016","404155.572553","404922.365373","405689.109652","406455.783131","407221.890205","407988.752279","411872.124419","412639.599274","413388.47087","399572.030709","400338.778698","401105.748674","401872.398346","402638.934552","412650.120748","Mapping"
"Mixed","both","ball","9","M_ball.wav","None","735.302292742","316","411105.507209","403406.167016","404155.572553","404922.365373","405689.109652","406455.783131","407221.890205","407988.752279","411872.124419","412639.599274","413388.47087","414155.114668","400338.778698","401105.748674","401872.398346","402638.934552","413397.572619","Mapping"
"Mixed","both","ball","9","F_reek.wav","space","396.004802082","316","411105.507209","403406.167016","404155.572553","404922.365373","405689.109652","406455.783131","407221.890205","407988.752279","411872.124419","412639.599274","413388.47087","414155.114668","414922.173376","401105.748674","401872.398346","402638.934552","414164.063068","Mapping"
"Mixed","both","ball","9","M_cling.wav","None","735.034857411","316","411105.507209","403406.167016","404155.572553","404922.365373","405689.109652","406455.783131","407221.890205","407988.752279","411872.124419","412639.599274","413388.47087","414155.114668","414922.173376","415688.505219","401872.398346","402638.934552","414926.626089","Mapping"
"Mixed","both","ball","9","M_cad.wav","None","728.597871494","316","411105.507209","403406.167016","404155.572553","404922.365373","405689.109652","406455.783131","407221.890205","407988.752279","411872.124419","412639.599274","413388.47087","414155.114668","414922.173376","415688.505219","416455.521261","402638.934552","415697.901611","Mapping"
"Mixed","both","ball","9","F_depth.wav","None","724.618503358","316","411105.507209","403406.167016","404155.572553","404922.365373","405689.109652","406455.783131","407221.890205","407988.752279","411872.124419","412639.599274","413388.47087","414155.114668","414922.173376","415688.505219","416455.521261","417221.713667","416466.806083","Mapping"
"Mixed","both","ball","9","F_gnash.wav","None","725.153682288","316","411105.507209","417988.533385","404155.572553","404922.365373","405689.109652","406455.783131","407221.890205","407988.752279","411872.124419","412639.599274","413388.47087","414155.114668","414922.173376","415688.505219","416455.521261","417221.713667","417231.241766","Mapping"
"Mixed","both","ball","9","M_ball.wav","None","723.544435576","316","411105.507209","417988.533385","418755.883334","404922.365373","405689.109652","406455.783131","407221.890205","407988.752279","411872.124419","412639.599274","413388.47087","414155.114668","414922.173376","415688.505219","416455.521261","417221.713667","417997.929158","Mapping"
"Mixed","both","ball","9","M_jolt.wav","space","354.091736954","316","411105.507209","417988.533385","418755.883334","419505.25579","405689.109652","406455.783131","407221.890205","407988.752279","411872.124419","412639.599274","413388.47087","414155.114668","414922.173376","415688.505219","416455.521261","417221.713667","418765.897763","Mapping"
"Mixed","both","ball","9","F_ball.wav","None","734.643444419","316","411105.507209","417988.533385","418755.883334","419505.25579","420271.659669","406455.783131","407221.890205","407988.752279","411872.124419","412639.599274","413388.47087","414155.114668","414922.173376","415688.505219","416455.521261","417221.713667","419515.409656","Mapping"
"Mixed","both","ball","9","F_reek.wav","space","623.023880646","316","411105.507209","417988.533385","418755.883334","419505.25579","420271.659669","421038.346443","407221.890205","407988.752279","411872.124419","412639.599274","413388.47087","414155.114668","414922.173376","415688.505219","416455.521261","417221.713667","420280.94816","Mapping"
"Mixed","both","ball","9","F_ball.wav","None","736.560627352","316","411105.507209","417988.533385","418755.883334","419505.25579","420271.659669","421038.346443","421805.451528","407988.752279","411872.124419","412639.599274","413388.47087","414155.114668","414922.173376","415688.505219","416455.521261","417221.713667","421041.966552","Mapping"
"Mixed","both","ball","9","M_park.wav","space","512.995013501","316","411105.507209","417988.533385","418755.883334","419505.25579","420271.659669","421038.346443","421805.451528","422571.616107","411872.124419","412639.599274","413388.47087","414155.114668","414922.173376","415688.505219","416455.521261","417221.713667","421814.937889","Mapping"
"Mixed","both","done","41","M_jolt.wav","None","726.048738696","316","425705.431833","417988.533385","418755.883334","419505.25579","420271.659669","421038.346443","421805.451528","422571.616107","411872.124419","412639.599274","413388.47087","414155.114668","414922.173376","415688.505219","416455.521261","417221.713667","422581.078971","Mapping"
"Mixed","both","done","41","F_knife.wav","None","720.116941724","316","425705.431833","417988.533385","418755.883334","419505.25579","420271.659669","421038.346443","421805.451528","422571.616107","426455.276396","412639.599274","413388.47087","414155.114668","414922.173376","415688.505219","416455.521261","417221.713667","425715.793773","Mapping"
"Mixed","both","done","41","F_jaw.wav","None","736.263202969","316","425705.431833","417988.533385","418755.883334","419505.25579","420271.659669","421038.346443","421805.451528","422571.616107","426455.276396","427221.618751","413388.47087","414155.114668","414922.173376","415688.505219","416455.521261","417221.713667","426464.663204","Mapping"
"Mixed","both","done","41","F_lash.wav","None","735.085871536","316","425705.431833","417988.533385","418755.883334","419505.25579","420271.659669","421038.346443","421805.451528","422571.616107","426455.276396","427221.618751","427988.711468","414155.114668","414922.173376","415688.505219","416455.521261","417221.713667","427230.769968","Mapping"
"Mixed","both","done","41","M_done.wav","None","733.061714564","316","425705.431833","417988.533385","418755.883334","419505.25579","420271.659669","421038.346443","421805.451528","422571.616107","426455.276396","427221.618751","427988.711468","428754.857498","414922.173376","415688.505219","416455.521261","417221.713667","427997.909371","Mapping"
"Mixed","both","done","41","M_greet.wav","space","475.841360632","316","425705.431833","417988.533385","418755.883334","419505.25579","420271.659669","421038.346443","421805.451528","422571.616107","426455.276396","427221.618751","427988.711468","428754.857498","429521.814798","415688.505219","416455.521261","417221.713667","428763.945335","Mapping"
"Mixed","both","done","41","F_done.wav","None","727.930057328","316","425705.431833","417988.533385","418755.883334","419505.25579","420271.659669","421038.346443","421805.451528","422571.616107","426455.276396","427221.618751","427988.711468","428754.857498","429521.814798","430288.18776","416455.521261","417221.713667","429531.732146","Mapping"
"Mixed","both","done","41","M_greet.wav","None","727.009339724","316","425705.431833","417988.533385","418755.883334","419505.25579","420271.659669","421038.346443","421805.451528","422571.616107","426455.276396","427221.618751","427988.711468","428754.857498","429521.814798","430288.18776","431055.199783","417221.713667","430297.511496","Mapping"
"Mixed","both","done","41","F_dime.wav","space","39.0207492746","316","425705.431833","417988.533385","418755.883334","419505.25579","420271.659669","421038.346443","421805.451528","422571.616107","426455.276396","427221.618751","427988.711468","428754.857498","429521.814798","430288.18776","431055.199783","431821.649421","431064.774877","Mapping"
"Mixed","both","done","41","F_cling.wav","None","722.507159691","316","425705.431833","432588.305895","418755.883334","419505.25579","420271.659669","421038.346443","421805.451528","422571.616107","426455.276396","427221.618751","427988.711468","428754.857498","429521.814798","430288.18776","431055.199783","431821.649421","431830.785489","Mapping"
"Mixed","both","done","41","M_reek.wav","None","720.76002229","316","425705.431833","432588.305895","433338.124178","419505.25579","420271.659669","421038.346443","421805.451528","422571.616107","426455.276396","427221.618751","427988.711468","428754.857498","429521.814798","430288.18776","431055.199783","431821.649421","432597.578926","Mapping"
"Mixed","both","done","41","M_dime.wav","None","736.278661527","316","425705.431833","432588.305895","433338.124178","434105.143004","420271.659669","421038.346443","421805.451528","422571.616107","426455.276396","427221.618751","427988.711468","428754.857498","429521.814798","430288.18776","431055.199783","431821.649421","433347.149563","Mapping"
"Mixed","both","done","41","F_done.wav","None","733.362230472","316","425705.431833","432588.305895","433338.124178","434105.143004","434871.814009","421038.346443","421805.451528","422571.616107","426455.276396","427221.618751","427988.711468","428754.857498","429521.814798","430288.18776","431055.199783","431821.649421","434115.083231","Mapping"
"Mixed","both","done","41","M_lash.wav","space","366.047465242","316","425705.431833","432588.305895","433338.124178","434105.143004","434871.814009","435638.259318","421805.451528","422571.616107","426455.276396","427221.618751","427988.711468","428754.857498","429521.814798","430288.18776","431055.199783","431821.649421","434881.643243","Mapping"
"Mixed","both","done","41","M_done.wav","None","729.270941578","316","425705.431833","432588.305895","433338.124178","434105.143004","434871.814009","435638.259318","436405.175498","422571.616107","426455.276396","427221.618751","427988.711468","428754.857498","429521.814798","430288.18776","431055.199783","431821.649421","435647.76423","Mapping"
"Mixed","both","done","41","F_dime.wav","space","622.224359307","316","425705.431833","432588.305895","433338.124178","434105.143004","434871.814009","435638.259318","436405.175498","437171.985322","426455.276396","427221.618751","427988.711468","428754.857498","429521.814798","430288.18776","431055.199783","431821.649421","436409.442397","Mapping"
"Mixed","both","cave","18","M_knife.wav","None","723.292459734","316","440288.95791","432588.305895","433338.124178","434105.143004","434871.814009","435638.259318","436405.175498","437171.985322","426455.276396","427221.618751","427988.711468","428754.857498","429521.814798","430288.18776","431055.199783","431821.649421","437182.320982","Mapping"
"Mixed","both","cave","18","F_reek.wav","None","720.365516841","316","440288.95791","432588.305895","433338.124178","434105.143004","434871.814009","435638.259318","436405.175498","437171.985322","441054.824447","427221.618751","427988.711468","428754.857498","429521.814798","430288.18776","431055.199783","431821.649421","440299.1328","Mapping"
"Mixed","both","cave","18","F_cave.wav","None","720.45950545","316","440288.95791","432588.305895","433338.124178","434105.143004","434871.814009","435638.259318","436405.175498","437171.985322","441054.824447","441804.582442","427988.711468","428754.857498","429521.814798","430288.18776","431055.199783","431821.649421","441064.126541","Mapping"
"Mixed","both","cave","18","M_bluff.wav","space","498.017427046","316","440288.95791","432588.305895","433338.124178","434105.143004","434871.814009","435638.259318","436405.175498","437171.985322","441054.824447","441804.582442","442571.63373","428754.857498","429521.814798","430288.18776","431055.199783","431821.649421","441813.571652","Mapping"
"Mixed","both","cave","18","M_priest.wav","None","731.466690078","316","440288.95791","432588.305895","433338.124178","434105.143004","434871.814009","435638.259318","436405.175498","437171.985322","441054.824447","441804.582442","442571.63373","443338.065126","429521.814798","430288.18776","431055.199783","431821.649421","442581.516142","Mapping"
"Mixed","both","cave","18","F_gnash.wav","None","728.992376942","316","440288.95791","432588.305895","433338.124178","434105.143004","434871.814009","435638.259318","436405.175498","437171.985322","441054.824447","441804.582442","442571.63373","443338.065126","444105.019643","430288.18776","431055.199783","431821.649421","443348.981104","Mapping"
"Mixed","both","cave","18","M_cad.wav","None","727.983235382","316","440288.95791","432588.305895","433338.124178","434105.143004","434871.814009","435638.259318","436405.175498","437171.985322","441054.824447","441804.582442","442571.63373","443338.065126","444105.019643","444871.214213","431055.199783","431821.649421","444115.094361","Mapping"
"Mixed","both","cave","18","F_greet.wav","None","727.828648407","316","440288.95791","432588.305895","433338.124178","434105.143004","434871.814009","435638.259318","436405.175498","437171.985322","441054.824447","441804.582442","442571.63373","443338.065126","444105.019643","444871.214213","445638.43802","431821.649421","444880.585871","Mapping"
"Mixed","both","cave","18","M_depth.wav","None","725.260965526","316","440288.95791","432588.305895","433338.124178","434105.143004","434871.814009","435638.259318","436405.175498","437171.985322","441054.824447","441804.582442","442571.63373","443338.065126","444105.019643","444871.214213","445638.43802","446405.490236","445648.135856","Mapping"
"Mixed","both","cave","18","M_cave.wav","None","721.537901554","316","440288.95791","447171.940182","433338.124178","434105.143004","434871.814009","435638.259318","436405.175498","437171.985322","441054.824447","441804.582442","442571.63373","443338.065126","444105.019643","444871.214213","445638.43802","446405.490236","446416.779077","Mapping"
"Mixed","both","cave","18","F_cling.wav","space","449.46239423","316","440288.95791","447171.940182","447921.704361","434105.143004","434871.814009","435638.259318","436405.175498","437171.985322","441054.824447","441804.582442","442571.63373","443338.065126","444105.019643","444871.214213","445638.43802","446405.490236","447182.060967","Mapping"
"Mixed","both","cave","18","M_cave.wav","None","735.670826863","316","440288.95791","447171.940182","447921.704361","448688.240876","434871.814009","435638.259318","436405.175498","437171.985322","441054.824447","441804.582442","442571.63373","443338.065126","444105.019643","444871.214213","445638.43802","446405.490236","447931.167843","Mapping"
"Mixed","both","cave","18","F_reek.wav","space","476.841535885","316","440288.95791","447171.940182","447921.704361","448688.240876","449454.880036","435638.259318","436405.175498","437171.985322","441054.824447","441804.582442","442571.63373","443338.065126","444105.019643","444871.214213","445638.43802","446405.490236","448698.618583","Mapping"
"Mixed","both","cave","18","F_cave.wav","None","730.477644596","316","440288.95791","447171.940182","447921.704361","448688.240876","449454.880036","450221.539911","436405.175498","437171.985322","441054.824447","441804.582442","442571.63373","443338.065126","444105.019643","444871.214213","445638.43802","446405.490236","449464.577254","Mapping"
"Mixed","both","cave","18","M_jaw.wav","space","287.877658848","316","440288.95791","447171.940182","447921.704361","448688.240876","449454.880036","450221.539911","450987.792606","437171.985322","441054.824447","441804.582442","442571.63373","443338.065126","444105.019643","444871.214213","445638.43802","446405.490236","450231.574746","Mapping"
"Mixed","both","cave","18","F_gnash.wav","None","726.846405305","316","440288.95791","447171.940182","447921.704361","448688.240876","449454.880036","450221.539911","450987.792606","451754.875739","441054.824447","441804.582442","442571.63373","443338.065126","444105.019643","444871.214213","445638.43802","446405.490236","450996.907032","Mapping"
"Mixed","both","cave","13","M_park.wav","None","724.013142288","316","454871.716929","447171.940182","447921.704361","448688.240876","449454.880036","450221.539911","450987.792606","451754.875739","441054.824447","441804.582442","442571.63373","443338.065126","444105.019643","444871.214213","445638.43802","446405.490236","451764.845029","Mapping"
"Mixed","both","cave","13","F_jolt.wav","None","720.1017919","316","454871.716929","447171.940182","447921.704361","448688.240876","449454.880036","450221.539911","450987.792606","451754.875739","455621.492237","441804.582442","442571.63373","443338.065126","444105.019643","444871.214213","445638.43802","446405.490236","454881.814216","Mapping"
"Mixed","both","cave","13","M_cave.wav","None","735.716584604","316","454871.716929","447171.940182","447921.704361","448688.240876","449454.880036","450221.539911","450987.792606","451754.875739","455621.492237","456388.07822","442571.63373","443338.065126","444105.019643","444871.214213","445638.43802","446405.490236","455631.345587","Mapping"
"Mixed","both","cave","13","M_reek.wav","space","377.864683047","316","454871.716929","447171.940182","447921.704361","448688.240876","449454.880036","450221.539911","450987.792606","451754.875739","455621.492237","456388.07822","457154.78107","443338.065126","444105.019643","444871.214213","445638.43802","446405.490236","456397.489452","Mapping"
"Mixed","both","cave","13","M_cave.wav","None","730.956553947","316","454871.716929","447171.940182","447921.704361","448688.240876","449454.880036","450221.539911","450987.792606","451754.875739","455621.492237","456388.07822","457154.78107","457921.417139","444105.019643","444871.214213","445638.43802","446405.490236","457164.688216","Mapping"
"Mixed","both","cave","13","M_jolt.wav","space","412.136532366","316","454871.716929","447171.940182","447921.704361","448688.240876","449454.880036","450221.539911","450987.792606","451754.875739","455621.492237","456388.07822","457154.78107","457921.417139","458687.659012","444871.214213","445638.43802","446405.490236","457931.146819","Mapping"
"Mixed","both","cave","13","F_cave.wav","None","727.5275141","316","454871.716929","447171.940182","447921.704361","448688.240876","449454.880036","450221.539911","450987.792606","451754.875739","455621.492237","456388.07822","457154.78107","457921.417139","458687.659012","459454.72143","445638.43802","446405.490236","458696.868354","Mapping"
"Mixed","both","cave","13","F_park.wav","space","662.436043844","316","454871.716929","447171.940182","447921.704361","448688.240876","449454.880036","450221.539911","450987.792606","451754.875739","455621.492237","456388.07822","457154.78107","457921.417139","458687.659012","459454.72143","460221.788178","446405.490236","459464.812225","Mapping"
"Mixed","both","cave","13","F_park.wav","None","720.986027736","316","454871.716929","447171.940182","447921.704361","448688.240876","449454.880036","450221.539911","450987.792606","451754.875739","455621.492237","456388.07822","457154.78107","457921.417139","458687.659012","459454.72143","460221.788178","460988.529365","460231.958121","Mapping"
"Mixed","both","cave","13","F_jaw.wav","None","719.168088865","316","454871.716929","461737.932429","447921.704361","448688.240876","449454.880036","450221.539911","450987.792606","451754.875739","455621.492237","456388.07822","457154.78107","457921.417139","458687.659012","459454.72143","460221.788178","460988.529365","460998.706419","Mapping"
"Mixed","both","cave","13","M_depth.wav","None","735.222835094","316","454871.716929","461737.932429","462504.16781","448688.240876","449454.880036","450221.539911","450987.792606","451754.875739","455621.492237","456388.07822","457154.78107","457921.417139","458687.659012","459454.72143","460221.788178","460988.529365","461747.820097","Mapping"
"Mixed","both","cave","13","M_gnash.wav","None","734.746090136","316","454871.716929","461737.932429","462504.16781","463271.490552","449454.880036","450221.539911","450987.792606","451754.875739","455621.492237","456388.07822","457154.78107","457921.417139","458687.659012","459454.72143","460221.788178","460988.529365","462513.620471","Mapping"
"Mixed","both","cave","13","F_cave.wav","None","732.168203685","316","454871.716929","461737.932429","462504.16781","463271.490552","464037.544138","450221.539911","450987.792606","451754.875739","455621.492237","456388.07822","457154.78107","457921.417139","458687.659012","459454.72143","460221.788178","460988.529365","463281.241565","Mapping"
"Mixed","both","cave","13","F_reek.wav","space","560.125994496","316","454871.716929","461737.932429","462504.16781","463271.490552","464037.544138","464804.136305","450987.792606","451754.875739","455621.492237","456388.07822","457154.78107","457921.417139","458687.659012","459454.72143","460221.788178","460988.529365","464047.053688","Mapping"
"Mixed","both","cave","13","F_reek.wav","None","728.83222485","316","454871.716929","461737.932429","462504.16781","463271.490552","464037.544138","464804.136305","465571.283437","451754.875739","455621.492237","456388.07822","457154.78107","457921.417139","458687.659012","459454.72143","460221.788178","460988.529365","464813.384603","Mapping"
"Mixed","both","cave","13","M_greet.wav","None","726.40521545","316","454871.716929","461737.932429","462504.16781","463271.490552","464037.544138","464804.136305","465571.283437","466338.053687","455621.492237","456388.07822","457154.78107","457921.417139","458687.659012","459454.72143","460221.788178","460988.529365","465580.974471","Mapping"
"Mixed","both","done","43","M_bluff.wav","None","724.4456755","316","469454.794086","461737.932429","462504.16781","463271.490552","464037.544138","464804.136305","465571.283437","466338.053687","455621.492237","456388.07822","457154.78107","457921.417139","458687.659012","459454.72143","460221.788178","460988.529365","466347.985876","Mapping"
"Mixed","both","done","43","M_bluff.wav","None","719.861564226","316","469454.794086","461737.932429","462504.16781","463271.490552","464037.544138","464804.136305","465571.283437","466338.053687","470221.543313","456388.07822","457154.78107","457921.417139","458687.659012","459454.72143","460221.788178","460988.529365","469464.860766","Mapping"
"Mixed","both","done","43","F_done.wav","None","718.589007854","316","469454.794086","461737.932429","462504.16781","463271.490552","464037.544138","464804.136305","465571.283437","466338.053687","470221.543313","470970.763655","457154.78107","457921.417139","458687.659012","459454.72143","460221.788178","460988.529365","470231.459734","Mapping"
"Mixed","both","done","43","M_priest.wav","space","466.99375147","316","469454.794086","461737.932429","462504.16781","463271.490552","464037.544138","464804.136305","465571.283437","466338.053687","470221.543313","470970.763655","471737.984679","457921.417139","458687.659012","459454.72143","460221.788178","460988.529365","470980.068531","Mapping"
"Mixed","both","done","43","M_done.wav","None","731.38383124","316","469454.794086","461737.932429","462504.16781","463271.490552","464037.544138","464804.136305","465571.283437","466338.053687","470221.543313","470970.763655","471737.984679","472504.05527","458687.659012","459454.72143","460221.788178","460988.529365","471747.97252","Mapping"
"Mixed","both","done","43","F_greet.wav","space","429.53834543","316","469454.794086","461737.932429","462504.16781","463271.490552","464037.544138","464804.136305","465571.283437","466338.053687","470221.543313","470970.763655","471737.984679","472504.05527","473271.101921","459454.72143","460221.788178","460988.529365","472513.47516","Mapping"
"Mixed","both","done","43","F_done.wav","None","727.269045077","316","469454.794086","461737.932429","462504.16781","463271.490552","464037.544138","464804.136305","465571.283437","466338.053687","470221.543313","470970.763655","471737.984679","472504.05527","473271.101921","474037.346577","460221.788178","460988.529365","473280.871485","Mapping"
"Mixed","both","done","43","F_lash.wav","space","600.522564724","316","469454.794086","461737.932429","462504.16781","463271.490552","464037.544138","464804.136305","465571.283437","466338.053687","470221.543313","470970.763655","471737.984679","472504.05527","473271.101921","474037.346577","474804.065195","460988.529365","474046.414936","Mapping"
"Mixed","both","done","43","M_done.wav","None","725.71081249","316","469454.794086","461737.932429","462504.16781","463271.490552","464037.544138","464804.136305","465571.283437","466338.053687","470221.543313","470970.763655","471737.984679","472504.05527","473271.101921","474037.346577","474804.065195","475571.344035","474813.280411","Mapping"
"Mixed","both","done","43","F_knife.wav","space","505.082343239","316","469454.794086","476338.137782","462504.16781","463271.490552","464037.544138","464804.136305","465571.283437","466338.053687","470221.543313","470970.763655","471737.984679","472504.05527","473271.101921","474037.346577","474804.065195","475571.344035","475581.876948","Mapping"
"Mixed","both","done","43","M_jaw.wav","None","719.495812431","316","469454.794086","476338.137782","477088.082826","463271.490552","464037.544138","464804.136305","465571.283437","466338.053687","470221.543313","470970.763655","471737.984679","472504.05527","473271.101921","474037.346577","474804.065195","475571.344035","476348.35472","Mapping"
"Mixed","both","done","43","F_lash.wav","None","735.304147936","316","469454.794086","476338.137782","477088.082826","477854.342322","464037.544138","464804.136305","465571.283437","466338.053687","470221.543313","470970.763655","471737.984679","472504.05527","473271.101921","474037.346577","474804.065195","475571.344035","477097.885163","Mapping"
"Mixed","both","done","43","M_park.wav","None","734.325614292","316","469454.794086","476338.137782","477088.082826","477854.342322","478620.710956","464804.136305","465571.283437","466338.053687","470221.543313","470970.763655","471737.984679","472504.05527","473271.101921","474037.346577","474804.065195","475571.344035","477864.092099","Mapping"
"Mixed","both","done","43","F_lash.wav","None","733.158176765","316","469454.794086","476338.137782","477088.082826","477854.342322","478620.710956","479387.878494","465571.283437","466338.053687","470221.543313","470970.763655","471737.984679","472504.05527","473271.101921","474037.346577","474804.065195","475571.344035","478630.447748","Mapping"
"Mixed","both","done","43","M_cling.wav","None","731.784520205","316","469454.794086","476338.137782","477088.082826","477854.342322","478620.710956","479387.878494","480153.90611","466338.053687","470221.543313","470970.763655","471737.984679","472504.05527","473271.101921","474037.346577","474804.065195","475571.344035","479397.393917","Mapping"
"Mixed","both","done","43","F_gnash.wav","None","731.126908213","316","469454.794086","476338.137782","477088.082826","477854.342322","478620.710956","479387.878494","480153.90611","480920.569386","470221.543313","470970.763655","471737.984679","472504.05527","473271.101921","474037.346577","474804.065195","475571.344035","480163.315178","Mapping"
