"Condition","Talker","Target","Trial","current_stimulus","response_response","response_time_response","subject_nr","time_Audio1","time_Audio10","time_Audio11","time_Audio12","time_Audio13","time_Audio14","time_Audio15","time_Audio16","time_Audio2","time_Audio3","time_Audio4","time_Audio5","time_Audio6","time_Audio7","time_Audio8","time_Audio9","time_response","title"
"Mixed","Male","done","41","F_cling.wav","NA","NA","236","71978.1711354","NA","NA","NA","NA","NA","NA","NA","NA","NA","NA","NA","NA","NA","NA","NA","NA","Mapping"
"Mixed","Male","done","41","M_done.wav","None","715.06597905","236","71978.1711354","NA","NA","NA","NA","NA","NA","NA","72727.9727235","NA","NA","NA","NA","NA","NA","NA","71993.5926946","Mapping"
"Mixed","Male","done","41","M_cad.wav","space","583.973141504","236","71978.1711354","NA","NA","NA","NA","NA","NA","NA","72727.9727235","73494.5253156","NA","NA","NA","NA","NA","NA","72738.0397121","Mapping"
"Mixed","Male","done","41","F_dime.wav","None","732.969889883","236","71978.1711354","NA","NA","NA","NA","NA","NA","NA","72727.9727235","73494.5253156","74260.9440356","NA","NA","NA","NA","NA","73504.7453449","Mapping"
"Mixed","Male","done","41","F_jaw.wav","None","732.184899156","236","71978.1711354","NA","NA","NA","NA","NA","NA","NA","72727.9727235","73494.5253156","74260.9440356","75027.7315993","NA","NA","NA","NA","74270.1722373","Mapping"
"Mixed","Male","done","41","M_done.wav","None","729.121920303","236","71978.1711354","NA","NA","NA","NA","NA","NA","NA","72727.9727235","73494.5253156","74260.9440356","75027.7315993","75794.5176172","NA","NA","NA","75037.8925765","Mapping"
"Mixed","Male","done","41","M_greet.wav","space","501.461307169","236","71978.1711354","NA","NA","NA","NA","NA","NA","NA","72727.9727235","73494.5253156","74260.9440356","75027.7315993","75794.5176172","76561.2513847","NA","NA","75804.4952546","Mapping"
"Mixed","Male","done","41","M_done.wav","None","725.200676592","236","71978.1711354","NA","NA","NA","NA","NA","NA","NA","72727.9727235","73494.5253156","74260.9440356","75027.7315993","75794.5176172","76561.2513847","77327.6608295","NA","76570.9705534","Mapping"
"Mixed","Male","done","41","F_jaw.wav","space","592.604638892","236","71978.1711354","NA","NA","NA","NA","NA","NA","NA","72727.9727235","73494.5253156","74260.9440356","75027.7315993","75794.5176172","76561.2513847","77327.6608295","78094.4301521","77337.3398058","Mapping"
"Mixed","Male","done","41","M_lash.wav","None","721.770399949","236","71978.1711354","78845.1227773","NA","NA","NA","NA","NA","NA","72727.9727235","73494.5253156","74260.9440356","75027.7315993","75794.5176172","76561.2513847","77327.6608295","78094.4301521","78103.7977908","Mapping"
"Mixed","Male","done","41","F_lash.wav","None","735.371547402","236","71978.1711354","78845.1227773","79611.4134997","NA","NA","NA","NA","NA","72727.9727235","73494.5253156","74260.9440356","75027.7315993","75794.5176172","76561.2513847","77327.6608295","78094.4301521","78854.9968418","Mapping"
"Mixed","Male","done","41","F_knife.wav","None","733.772194362","236","71978.1711354","78845.1227773","79611.4134997","80377.8680839","NA","NA","NA","NA","72727.9727235","73494.5253156","74260.9440356","75027.7315993","75794.5176172","76561.2513847","77327.6608295","78094.4301521","79621.2792165","Mapping"
"Mixed","Male","done","41","M_done.wav","None","732.594244531","236","71978.1711354","78845.1227773","79611.4134997","80377.8680839","81144.4463372","NA","NA","NA","72727.9727235","73494.5253156","74260.9440356","75027.7315993","75794.5176172","76561.2513847","77327.6608295","78094.4301521","80387.0965947","Mapping"
"Mixed","Male","done","41","M_park.wav","space","560.061686207","236","71978.1711354","78845.1227773","79611.4134997","80377.8680839","81144.4463372","81911.5415283","NA","NA","72727.9727235","73494.5253156","74260.9440356","75027.7315993","75794.5176172","76561.2513847","77327.6608295","78094.4301521","81153.7858413","Mapping"
"Mixed","Male","done","41","F_gnash.wav","None","727.802987443","236","71978.1711354","78845.1227773","79611.4134997","80377.8680839","81144.4463372","81911.5415283","82677.8000967","NA","72727.9727235","73494.5253156","74260.9440356","75027.7315993","75794.5176172","76561.2513847","77327.6608295","78094.4301521","81921.255441","Mapping"
"Mixed","Male","done","41","F_cad.wav","None","726.955852937","236","71978.1711354","78845.1227773","79611.4134997","80377.8680839","81144.4463372","81911.5415283","82677.8000967","83444.3795867","72727.9727235","73494.5253156","74260.9440356","75027.7315993","75794.5176172","76561.2513847","77327.6608295","78094.4301521","82686.8588714","Mapping"
"Mixed","Female","done","46","M_ball.wav","None","724.963231594","236","86578.5734316","78845.1227773","79611.4134997","80377.8680839","81144.4463372","81911.5415283","82677.8000967","83444.3795867","72727.9727235","73494.5253156","74260.9440356","75027.7315993","75794.5176172","76561.2513847","77327.6608295","78094.4301521","83453.5425529","Mapping"
"Mixed","Female","done","46","M_tile.wav","None","720.615947153","236","86578.5734316","78845.1227773","79611.4134997","80377.8680839","81144.4463372","81911.5415283","82677.8000967","83444.3795867","87345.0379092","73494.5253156","74260.9440356","75027.7315993","75794.5176172","76561.2513847","77327.6608295","78094.4301521","86588.6673182","Mapping"
"Mixed","Female","done","46","F_done.wav","None","724.574291613","236","86578.5734316","78845.1227773","79611.4134997","80377.8680839","81144.4463372","81911.5415283","82677.8000967","83444.3795867","87345.0379092","88094.4446832","74260.9440356","75027.7315993","75794.5176172","76561.2513847","77327.6608295","78094.4301521","87349.748163","Mapping"
"Mixed","Female","done","46","F_greet.wav","space","513.566983747","236","86578.5734316","78845.1227773","79611.4134997","80377.8680839","81144.4463372","81911.5415283","82677.8000967","83444.3795867","87345.0379092","88094.4446832","88861.8419365","75027.7315993","75794.5176172","76561.2513847","77327.6608295","78094.4301521","88104.1814748","Mapping"
"Mixed","Female","done","46","M_tile.wav","None","732.101731584","236","86578.5734316","78845.1227773","79611.4134997","80377.8680839","81144.4463372","81911.5415283","82677.8000967","83444.3795867","87345.0379092","88094.4446832","88861.8419365","89627.701053","75794.5176172","76561.2513847","77327.6608295","78094.4301521","88871.5675977","Mapping"
"Mixed","Female","done","46","F_done.wav","None","731.22367973","236","86578.5734316","78845.1227773","79611.4134997","80377.8680839","81144.4463372","81911.5415283","82677.8000967","83444.3795867","87345.0379092","88094.4446832","88861.8419365","89627.701053","90394.6861784","76561.2513847","77327.6608295","78094.4301521","89637.1132127","Mapping"
"Mixed","Female","done","46","F_bluff.wav","space","533.659222536","236","86578.5734316","78845.1227773","79611.4134997","80377.8680839","81144.4463372","81911.5415283","82677.8000967","83444.3795867","87345.0379092","88094.4446832","88861.8419365","89627.701053","90394.6861784","91161.3327591","77327.6608295","78094.4301521","90404.0630923","Mapping"
"Mixed","Female","done","46","M_jaw.wav","None","726.468904992","236","86578.5734316","78845.1227773","79611.4134997","80377.8680839","81144.4463372","81911.5415283","82677.8000967","83444.3795867","87345.0379092","88094.4446832","88861.8419365","89627.701053","90394.6861784","91161.3327591","91928.1132118","78094.4301521","91171.2411419","Mapping"
"Mixed","Female","done","46","F_reek.wav","None","724.613865954","236","86578.5734316","78845.1227773","79611.4134997","80377.8680839","81144.4463372","81911.5415283","82677.8000967","83444.3795867","87345.0379092","88094.4446832","88861.8419365","89627.701053","90394.6861784","91161.3327591","91928.1132118","92694.5755252","91937.826197","Mapping"
"Mixed","Female","done","46","M_knife.wav","None","723.309464054","236","86578.5734316","93461.0712295","79611.4134997","80377.8680839","81144.4463372","81911.5415283","82677.8000967","83444.3795867","87345.0379092","88094.4446832","88861.8419365","89627.701053","90394.6861784","91161.3327591","91928.1132118","92694.5755252","92703.8794744","Mapping"
"Mixed","Female","done","46","F_done.wav","None","721.608084044","236","86578.5734316","93461.0712295","94228.2344386","80377.8680839","81144.4463372","81911.5415283","82677.8000967","83444.3795867","87345.0379092","88094.4446832","88861.8419365","89627.701053","90394.6861784","91161.3327591","91928.1132118","92694.5755252","93470.3770336","Mapping"
"Mixed","Female","done","46","M_cad.wav","space","619.673370849","236","86578.5734316","93461.0712295","94228.2344386","94977.8264073","81144.4463372","81911.5415283","82677.8000967","83444.3795867","87345.0379092","88094.4446832","88861.8419365","89627.701053","90394.6861784","91161.3327591","91928.1132118","92694.5755252","94237.9604091","Mapping"
"Mixed","Female","done","46","M_romp.wav","None","733.640486607","236","86578.5734316","93461.0712295","94228.2344386","94977.8264073","95744.5750152","81911.5415283","82677.8000967","83444.3795867","87345.0379092","88094.4446832","88861.8419365","89627.701053","90394.6861784","91161.3327591","91928.1132118","92694.5755252","94987.7252056","Mapping"
"Mixed","Female","done","46","F_park.wav","None","732.225091662","236","86578.5734316","93461.0712295","94228.2344386","94977.8264073","95744.5750152","96510.8453321","82677.8000967","83444.3795867","87345.0379092","88094.4446832","88861.8419365","89627.701053","90394.6861784","91161.3327591","91928.1132118","92694.5755252","95753.944509","Mapping"
"Mixed","Female","done","46","F_done.wav","None","730.594821391","236","86578.5734316","93461.0712295","94228.2344386","94977.8264073","95744.5750152","96510.8453321","97277.8703409","83444.3795867","87345.0379092","88094.4446832","88861.8419365","89627.701053","90394.6861784","91161.3327591","91928.1132118","92694.5755252","96520.4680387","Mapping"
"Mixed","Female","done","46","M_priest.wav","space","554.139473592","236","86578.5734316","93461.0712295","94228.2344386","94977.8264073","95744.5750152","96510.8453321","97277.8703409","98044.1431311","87345.0379092","88094.4446832","88861.8419365","89627.701053","90394.6861784","91161.3327591","91928.1132118","92694.5755252","97287.4673861","Mapping"
"Mixed","Male","tile","30","F_gnash.wav","None","727.912743925","236","101178.266484","93461.0712295","94228.2344386","94977.8264073","95744.5750152","96510.8453321","97277.8703409","98044.1431311","87345.0379092","88094.4446832","88861.8419365","89627.701053","90394.6861784","91161.3327591","91928.1132118","92694.5755252","98053.2489002","Mapping"
"Mixed","Male","tile","30","M_tile.wav","None","720.73250555","236","101178.266484","93461.0712295","94228.2344386","94977.8264073","95744.5750152","96510.8453321","97277.8703409","98044.1431311","101944.912756","88094.4446832","88861.8419365","89627.701053","90394.6861784","91161.3327591","91928.1132118","92694.5755252","101188.446012","Mapping"
"Mixed","Male","tile","30","M_romp.wav","None","718.532738159","236","101178.266484","93461.0712295","94228.2344386","94977.8264073","95744.5750152","96510.8453321","97277.8703409","98044.1431311","101944.912756","102694.247492","88861.8419365","89627.701053","90394.6861784","91161.3327591","91928.1132118","92694.5755252","101955.38909","Mapping"
"Mixed","Male","tile","30","M_tile.wav","None","734.967148746","236","101178.266484","93461.0712295","94228.2344386","94977.8264073","95744.5750152","96510.8453321","97277.8703409","98044.1431311","101944.912756","102694.247492","103461.087306","89627.701053","90394.6861784","91161.3327591","91928.1132118","92694.5755252","102703.94471","Mapping"
"Mixed","Male","tile","30","F_priest.wav","space","666.991710779","236","101178.266484","93461.0712295","94228.2344386","94977.8264073","95744.5750152","96510.8453321","97277.8703409","98044.1431311","101944.912756","102694.247492","103461.087306","104227.91599","90394.6861784","91161.3327591","91928.1132118","92694.5755252","103470.46824","Mapping"
"Mixed","Male","tile","30","M_lash.wav","None","730.926873512","236","101178.266484","93461.0712295","94228.2344386","94977.8264073","95744.5750152","96510.8453321","97277.8703409","98044.1431311","101944.912756","102694.247492","103461.087306","104227.91599","104994.041923","91161.3327591","91928.1132118","92694.5755252","104237.471915","Mapping"
"Mixed","Male","tile","30","F_done.wav","None","729.757271241","236","101178.266484","93461.0712295","94228.2344386","94977.8264073","95744.5750152","96510.8453321","97277.8703409","98044.1431311","101944.912756","102694.247492","103461.087306","104227.91599","104994.041923","105760.652331","91928.1132118","92694.5755252","105003.431204","Mapping"
"Mixed","Male","tile","30","M_tile.wav","None","728.661561385","236","101178.266484","93461.0712295","94228.2344386","94977.8264073","95744.5750152","96510.8453321","97277.8703409","98044.1431311","101944.912756","102694.247492","103461.087306","104227.91599","104994.041923","105760.652331","106527.703001","92694.5755252","105769.88517","Mapping"
"Mixed","Male","tile","30","M_gnash.wav","space","519.603590481","236","101178.266484","93461.0712295","94228.2344386","94977.8264073","95744.5750152","96510.8453321","97277.8703409","98044.1431311","101944.912756","102694.247492","103461.087306","104227.91599","104994.041923","105760.652331","106527.703001","107293.956313","106537.863978","Mapping"
"Mixed","Male","tile","30","F_cling.wav","None","725.018264377","236","101178.266484","108061.480018","94228.2344386","94977.8264073","95744.5750152","96510.8453321","97277.8703409","98044.1431311","101944.912756","102694.247492","103461.087306","104227.91599","104994.041923","105760.652331","106527.703001","107293.956313","107303.158235","Mapping"
"Mixed","Male","tile","30","F_reek.wav","None","722.355355625","236","101178.266484","108061.480018","108828.34673","94977.8264073","95744.5750152","96510.8453321","97277.8703409","98044.1431311","101944.912756","102694.247492","103461.087306","104227.91599","104994.041923","105760.652331","106527.703001","107293.956313","108071.372942","Mapping"
"Mixed","Male","tile","30","M_tile.wav","None","720.564315212","236","101178.266484","108061.480018","108828.34673","109594.656003","95744.5750152","96510.8453321","97277.8703409","98044.1431311","101944.912756","102694.247492","103461.087306","104227.91599","104994.041923","105760.652331","106527.703001","107293.956313","108838.436907","Mapping"
"Mixed","Male","tile","30","F_bluff.wav","space","668.584880303","236","101178.266484","108061.480018","108828.34673","109594.656003","110344.179026","96510.8453321","97277.8703409","98044.1431311","101944.912756","102694.247492","103461.087306","104227.91599","104994.041923","105760.652331","106527.703001","107293.956313","109604.780189","Mapping"
"Mixed","Male","tile","30","F_greet.wav","None","735.285597271","236","101178.266484","108061.480018","108828.34673","109594.656003","110344.179026","111110.975865","97277.8703409","98044.1431311","101944.912756","102694.247492","103461.087306","104227.91599","104994.041923","105760.652331","106527.703001","107293.956313","110353.512656","Mapping"
"Mixed","Male","tile","30","F_done.wav","None","733.326675836","236","101178.266484","108061.480018","108828.34673","109594.656003","110344.179026","111110.975865","111877.607915","98044.1431311","101944.912756","102694.247492","103461.087306","104227.91599","104994.041923","105760.652331","106527.703001","107293.956313","111120.482632","Mapping"
"Mixed","Male","tile","30","M_knife.wav","space","577.567072818","236","101178.266484","108061.480018","108828.34673","109594.656003","110344.179026","111110.975865","111877.607915","112644.096817","101944.912756","102694.247492","103461.087306","104227.91599","104994.041923","105760.652331","106527.703001","107293.956313","111887.746631","Mapping"
"Mixed","Male","cave","18","F_knife.wav","None","729.472522624","236","115778.117216","108061.480018","108828.34673","109594.656003","110344.179026","111110.975865","111877.607915","112644.096817","101944.912756","102694.247492","103461.087306","104227.91599","104994.041923","105760.652331","106527.703001","107293.956313","112654.265833","Mapping"
"Mixed","Male","cave","18","F_jaw.wav","None","721.078470233","236","115778.117216","108061.480018","108828.34673","109594.656003","110344.179026","111110.975865","111877.607915","112644.096817","116544.622813","102694.247492","103461.087306","104227.91599","104994.041923","105760.652331","106527.703001","107293.956313","115787.68458","Mapping"
"Mixed","Male","cave","18","F_reek.wav","None","718.854278326","236","115778.117216","108061.480018","108828.34673","109594.656003","110344.179026","111110.975865","111877.607915","112644.096817","116544.622813","117293.728762","103461.087306","104227.91599","104994.041923","105760.652331","106527.703001","107293.956313","116554.810689","Mapping"
"Mixed","Male","cave","18","M_jaw.wav","None","735.406483989","236","115778.117216","108061.480018","108828.34673","109594.656003","110344.179026","111110.975865","111877.607915","112644.096817","116544.622813","117293.728762","118060.866","104227.91599","104994.041923","105760.652331","106527.703001","107293.956313","117303.160399","Mapping"
"Mixed","Male","cave","18","F_dime.wav","None","738.576436765","236","115778.117216","108061.480018","108828.34673","109594.656003","110344.179026","111110.975865","111877.607915","112644.096817","116544.622813","117293.728762","118060.866","118827.531131","104994.041923","105760.652331","106527.703001","107293.956313","118064.808577","Mapping"
"Mixed","Male","cave","18","M_cave.wav","None","731.3680636","236","115778.117216","108061.480018","108828.34673","109594.656003","110344.179026","111110.975865","111877.607915","112644.096817","116544.622813","117293.728762","118060.866","118827.531131","119594.13381","105760.652331","106527.703001","107293.956313","118837.34769","Mapping"
"Mixed","Male","cave","18","F_romp.wav","space","597.357249353","236","115778.117216","108061.480018","108828.34673","109594.656003","110344.179026","111110.975865","111877.607915","112644.096817","116544.622813","117293.728762","118060.866","118827.531131","119594.13381","120360.832641","106527.703001","107293.956313","119603.802274","Mapping"
"Mixed","Male","cave","18","M_greet.wav","None","727.844725829","236","115778.117216","108061.480018","108828.34673","109594.656003","110344.179026","111110.975865","111877.607915","112644.096817","116544.622813","117293.728762","118060.866","118827.531131","119594.13381","120360.832641","121127.47211","107293.956313","120370.251602","Mapping"
"Mixed","Male","cave","18","M_cave.wav","None","726.339052315","236","115778.117216","108061.480018","108828.34673","109594.656003","110344.179026","111110.975865","111877.607915","112644.096817","116544.622813","117293.728762","118060.866","118827.531131","119594.13381","120360.832641","121127.47211","121894.194748","121136.983515","Mapping"
"Mixed","Male","cave","18","F_done.wav","space","584.915501415","236","115778.117216","122661.191931","108828.34673","109594.656003","110344.179026","111110.975865","111877.607915","112644.096817","116544.622813","117293.728762","118060.866","118827.531131","119594.13381","120360.832641","121127.47211","121894.194748","121904.228345","Mapping"
"Mixed","Male","cave","18","F_tile.wav","None","721.388261882","236","115778.117216","122661.191931","123427.786879","109594.656003","110344.179026","111110.975865","111877.607915","112644.096817","116544.622813","117293.728762","118060.866","118827.531131","119594.13381","120360.832641","121127.47211","121894.194748","122671.181626","Mapping"
"Mixed","Male","cave","18","M_cave.wav","None","720.059435465","236","115778.117216","122661.191931","123427.786879","124176.872732","110344.179026","111110.975865","111877.607915","112644.096817","116544.622813","117293.728762","118060.866","118827.531131","119594.13381","120360.832641","121127.47211","121894.194748","123437.536038","Mapping"
"Mixed","Male","cave","18","M_knife.wav","space","551.048669149","236","115778.117216","122661.191931","123427.786879","124176.872732","124943.617939","111110.975865","111877.607915","112644.096817","116544.622813","117293.728762","118060.866","118827.531131","119594.13381","120360.832641","121127.47211","121894.194748","124186.095677","Mapping"
"Mixed","Male","cave","18","M_cave.wav","None","734.032209031","236","115778.117216","122661.191931","123427.786879","124176.872732","124943.617939","125710.306258","111877.607915","112644.096817","116544.622813","117293.728762","118060.866","118827.531131","119594.13381","120360.832641","121127.47211","121894.194748","124953.054832","Mapping"
"Mixed","Male","cave","18","M_lash.wav","space","553.475987865","236","115778.117216","122661.191931","123427.786879","124176.872732","124943.617939","125710.306258","126477.01591","112644.096817","116544.622813","117293.728762","118060.866","118827.531131","119594.13381","120360.832641","121127.47211","121894.194748","125719.571869","Mapping"
"Mixed","Male","cave","18","F_romp.wav","None","730.536387651","236","115778.117216","122661.191931","123427.786879","124176.872732","124943.617939","125710.306258","126477.01591","127244.075237","116544.622813","117293.728762","118060.866","118827.531131","119594.13381","120360.832641","121127.47211","121894.194748","126486.411683","Mapping"
"Mixed","Female","tile","35","F_greet.wav","None","727.684574085","236","130377.802539","122661.191931","123427.786879","124176.872732","124943.617939","125710.306258","126477.01591","127244.075237","116544.622813","117293.728762","118060.866","118827.531131","119594.13381","120360.832641","121127.47211","121894.194748","127254.501484","Mapping"
"Mixed","Female","tile","35","F_ball.wav","None","721.25902737","236","130377.802539","122661.191931","123427.786879","124176.872732","124943.617939","125710.306258","126477.01591","127244.075237","131144.200854","117293.728762","118060.866","118827.531131","119594.13381","120360.832641","121127.47211","121894.194748","130387.371141","Mapping"
"Mixed","Female","tile","35","M_priest.wav","None","719.571250957","236","130377.802539","122661.191931","123427.786879","124176.872732","124943.617939","125710.306258","126477.01591","127244.075237","131144.200854","131893.851565","118060.866","118827.531131","119594.13381","120360.832641","121127.47211","121894.194748","131154.001026","Mapping"
"Mixed","Female","tile","35","M_cad.wav","None","734.959110385","236","130377.802539","122661.191931","123427.786879","124176.872732","124943.617939","125710.306258","126477.01591","127244.075237","131144.200854","131893.851565","132660.580077","118827.531131","119594.13381","120360.832641","121127.47211","121894.194748","131903.626694","Mapping"
"Mixed","Female","tile","35","M_jaw.wav","None","733.28895669","236","130377.802539","122661.191931","123427.786879","124176.872732","124943.617939","125710.306258","126477.01591","127244.075237","131144.200854","131893.851565","132660.580077","133427.235933","119594.13381","120360.832641","121127.47211","121894.194748","132670.345622","Mapping"
"Mixed","Female","tile","35","M_cave.wav","None","731.65559466","236","130377.802539","122661.191931","123427.786879","124176.872732","124943.617939","125710.306258","126477.01591","127244.075237","131144.200854","131893.851565","132660.580077","133427.235933","134193.626209","120360.832641","121127.47211","121894.194748","133437.044453","Mapping"
"Mixed","Female","tile","35","F_gnash.wav","None","730.785581283","236","130377.802539","122661.191931","123427.786879","124176.872732","124943.617939","125710.306258","126477.01591","127244.075237","131144.200854","131893.851565","132660.580077","133427.235933","134193.626209","134960.565268","121127.47211","121894.194748","134202.940052","Mapping"
"Mixed","Female","tile","35","F_tile.wav","None","728.333837818","236","130377.802539","122661.191931","123427.786879","124176.872732","124943.617939","125710.306258","126477.01591","127244.075237","131144.200854","131893.851565","132660.580077","133427.235933","134193.626209","134960.565268","135727.384676","121894.194748","134970.395739","Mapping"
"Mixed","Female","tile","35","M_park.wav","space","567.737220088","236","130377.802539","122661.191931","123427.786879","124176.872732","124943.617939","125710.306258","126477.01591","127244.075237","131144.200854","131893.851565","132660.580077","133427.235933","134193.626209","134960.565268","135727.384676","136493.833077","135737.173409","Mapping"
"Mixed","Female","tile","35","F_tile.wav","None","724.932005047","236","130377.802539","137260.846337","123427.786879","124176.872732","124943.617939","125710.306258","126477.01591","127244.075237","131144.200854","131893.851565","132660.580077","133427.235933","134193.626209","134960.565268","135727.384676","136493.833077","136503.541424","Mapping"
"Mixed","Female","tile","35","M_greet.wav","space","577.755050035","236","130377.802539","137260.846337","138027.66049","124176.872732","124943.617939","125710.306258","126477.01591","127244.075237","131144.200854","131893.851565","132660.580077","133427.235933","134193.626209","134960.565268","135727.384676","136493.833077","137271.084298","Mapping"
"Mixed","Female","tile","35","F_tile.wav","None","721.382387565","236","130377.802539","137260.846337","138027.66049","138794.193604","124943.617939","125710.306258","126477.01591","127244.075237","131144.200854","131893.851565","132660.580077","133427.235933","134193.626209","134960.565268","135727.384676","136493.833077","138037.696561","Mapping"
"Mixed","Female","tile","35","M_depth.wav","space","580.059008789","236","130377.802539","137260.846337","138027.66049","138794.193604","139543.529886","125710.306258","126477.01591","127244.075237","131144.200854","131893.851565","132660.580077","133427.235933","134193.626209","134960.565268","135727.384676","136493.833077","138804.769182","Mapping"
"Mixed","Female","tile","35","F_lash.wav","None","735.569108976","236","130377.802539","137260.846337","138027.66049","138794.193604","139543.529886","140310.398762","126477.01591","127244.075237","131144.200854","131893.851565","132660.580077","133427.235933","134193.626209","134960.565268","135727.384676","136493.833077","139553.28059","Mapping"
"Mixed","Female","tile","35","F_tile.wav","None","733.153229579","236","130377.802539","137260.846337","138027.66049","138794.193604","139543.529886","140310.398762","141077.222499","127244.075237","131144.200854","131893.851565","132660.580077","133427.235933","134193.626209","134960.565268","135727.384676","136493.833077","140320.82872","Mapping"
"Mixed","Female","tile","35","M_ball.wav","space","617.665909231","236","130377.802539","137260.846337","138027.66049","138794.193604","139543.529886","140310.398762","141077.222499","141843.737063","131144.200854","131893.851565","132660.580077","133427.235933","134193.626209","134960.565268","135727.384676","136493.833077","141087.13552","Mapping"
"Mixed","Male","ball","4","M_knife.wav","None","729.943084414","236","144977.574122","137260.846337","138027.66049","138794.193604","139543.529886","140310.398762","141077.222499","141843.737063","131144.200854","131893.851565","132660.580077","133427.235933","134193.626209","134960.565268","135727.384676","136493.833077","141853.800032","Mapping"
"Mixed","Male","ball","4","F_tile.wav","None","720.489804517","236","144977.574122","137260.846337","138027.66049","138794.193604","139543.529886","140310.398762","141077.222499","141843.737063","145744.158868","131893.851565","132660.580077","133427.235933","134193.626209","134960.565268","135727.384676","136493.833077","144987.673265","Mapping"
"Mixed","Male","ball","4","M_tile.wav","None","719.237962272","236","144977.574122","137260.846337","138027.66049","138794.193604","139543.529886","140310.398762","141077.222499","141843.737063","145744.158868","146493.642008","132660.580077","133427.235933","134193.626209","134960.565268","135727.384676","136493.833077","145754.051174","Mapping"
"Mixed","Male","ball","4","M_ball.wav","None","735.141522484","236","144977.574122","137260.846337","138027.66049","138794.193604","139543.529886","140310.398762","141077.222499","141843.737063","145744.158868","146493.642008","147260.335274","133427.235933","134193.626209","134960.565268","135727.384676","136493.833077","146503.26626","Mapping"
"Mixed","Male","ball","4","F_dime.wav","space","530.547394301","236","144977.574122","137260.846337","138027.66049","138794.193604","139543.529886","140310.398762","141077.222499","141843.737063","145744.158868","146493.642008","147260.335274","148026.986183","134193.626209","134960.565268","135727.384676","136493.833077","147270.121842","Mapping"
"Mixed","Male","ball","4","M_ball.wav","None","731.499153073","236","144977.574122","137260.846337","138027.66049","138794.193604","139543.529886","140310.398762","141077.222499","141843.737063","145744.158868","146493.642008","147260.335274","148026.986183","148793.626271","134960.565268","135727.384676","136493.833077","148036.608271","Mapping"
"Mixed","Male","ball","4","F_dime.wav","space","421.063908259","236","144977.574122","137260.846337","138027.66049","138794.193604","139543.529886","140310.398762","141077.222499","141843.737063","145744.158868","146493.642008","147260.335274","148026.986183","148793.626271","149560.298513","135727.384676","136493.833077","148803.583812","Mapping"
"Mixed","Male","ball","4","F_jolt.wav","None","728.290553554","236","144977.574122","137260.846337","138027.66049","138794.193604","139543.529886","140310.398762","141077.222499","141843.737063","145744.158868","146493.642008","147260.335274","148026.986183","148793.626271","149560.298513","150326.472986","136493.833077","149570.041179","Mapping"
"Mixed","Male","ball","4","F_reek.wav","None","727.858020226","236","144977.574122","137260.846337","138027.66049","138794.193604","139543.529886","140310.398762","141077.222499","141843.737063","145744.158868","146493.642008","147260.335274","148026.986183","148793.626271","149560.298513","150326.472986","151093.570341","150335.599779","Mapping"
"Mixed","Male","ball","4","F_bluff.wav","None","725.770482793","236","144977.574122","151859.965873","138027.66049","138794.193604","139543.529886","140310.398762","141077.222499","141843.737063","145744.158868","146493.642008","147260.335274","148026.986183","148793.626271","149560.298513","150326.472986","151093.570341","151102.960859","Mapping"
"Mixed","Male","ball","4","F_gnash.wav","None","724.120734609","236","144977.574122","151859.965873","152627.288925","138794.193604","139543.529886","140310.398762","141077.222499","141843.737063","145744.158868","146493.642008","147260.335274","148026.986183","148793.626271","149560.298513","150326.472986","151093.570341","151869.610531","Mapping"
"Mixed","Male","ball","4","M_ball.wav","None","721.262428444","236","144977.574122","151859.965873","152627.288925","153393.97879","139543.529886","140310.398762","141077.222499","141843.737063","145744.158868","146493.642008","147260.335274","148026.986183","148793.626271","149560.298513","150326.472986","151093.570341","152637.856774","Mapping"
"Mixed","Male","ball","4","M_gnash.wav","space","452.460446744","236","144977.574122","151859.965873","152627.288925","153393.97879","154143.128332","140310.398762","141077.222499","141843.737063","145744.158868","146493.642008","147260.335274","148026.986183","148793.626271","149560.298513","150326.472986","151093.570341","153403.984253","Mapping"
"Mixed","Male","ball","4","M_ball.wav","None","736.31978163","236","144977.574122","151859.965873","152627.288925","153393.97879","154143.128332","154910.140974","141077.222499","141843.737063","145744.158868","146493.642008","147260.335274","148026.986183","148793.626271","149560.298513","150326.472986","151093.570341","154152.562134","Mapping"
"Mixed","Male","ball","4","F_romp.wav","None","734.270272427","236","144977.574122","151859.965873","152627.288925","153393.97879","154143.128332","154910.140974","155676.348528","141843.737063","145744.158868","146493.642008","147260.335274","148026.986183","148793.626271","149560.298513","150326.472986","151093.570341","154919.686696","Mapping"
"Mixed","Male","ball","4","M_bluff.wav","space","0.0188595149666","236","144977.574122","151859.965873","152627.288925","153393.97879","154143.128332","154910.140974","155676.348528","156443.473091","145744.158868","146493.642008","147260.335274","148026.986183","148793.626271","149560.298513","150326.472986","151093.570341","155685.519842","Mapping"
"Mixed","Male","done","38","F_bluff.wav","None","730.289667496","236","159577.176896","151859.965873","152627.288925","153393.97879","154143.128332","154910.140974","155676.348528","156443.473091","145744.158868","146493.642008","147260.335274","148026.986183","148793.626271","149560.298513","150326.472986","151093.570341","156453.425995","Mapping"
"Mixed","Male","done","38","M_done.wav","None","720.950472518","236","159577.176896","151859.965873","152627.288925","153393.97879","154143.128332","154910.140974","155676.348528","156443.473091","160343.596544","146493.642008","147260.335274","148026.986183","148793.626271","149560.298513","150326.472986","151093.570341","159587.167828","Mapping"
"Mixed","Male","done","38","F_tile.wav","space","623.085097177","236","159577.176896","151859.965873","152627.288925","153393.97879","154143.128332","154910.140974","155676.348528","156443.473091","160343.596544","161110.493555","147260.335274","148026.986183","148793.626271","149560.298513","150326.472986","151093.570341","160353.393315","Mapping"
"Mixed","Male","done","38","F_ball.wav","None","718.731227447","236","159577.176896","151859.965873","152627.288925","153393.97879","154143.128332","154910.140974","155676.348528","156443.473091","160343.596544","161110.493555","161859.871576","148026.986183","148793.626271","149560.298513","150326.472986","151093.570341","161120.510457","Mapping"
"Mixed","Male","done","38","M_jolt.wav","None","734.779480728","236","159577.176896","151859.965873","152627.288925","153393.97879","154143.128332","154910.140974","155676.348528","156443.473091","160343.596544","161110.493555","161859.871576","162626.237736","148793.626271","149560.298513","150326.472986","151093.570341","161869.538494","Mapping"
"Mixed","Male","done","38","M_done.wav","None","734.20751025","236","159577.176896","151859.965873","152627.288925","153393.97879","154143.128332","154910.140974","155676.348528","156443.473091","160343.596544","161110.493555","161859.871576","162626.237736","163393.366009","149560.298513","150326.472986","151093.570341","162635.328665","Mapping"
"Mixed","Male","done","38","F_jolt.wav","space","629.557019798","236","159577.176896","151859.965873","152627.288925","153393.97879","154143.128332","154910.140974","155676.348528","156443.473091","160343.596544","161110.493555","161859.871576","162626.237736","163393.366009","164160.018773","150326.472986","151093.570341","163402.795791","Mapping"
"Mixed","Male","done","38","F_depth.wav","None","729.492618935","236","159577.176896","151859.965873","152627.288925","153393.97879","154143.128332","154910.140974","155676.348528","156443.473091","160343.596544","161110.493555","161859.871576","162626.237736","163393.366009","164160.018773","164926.690706","151093.570341","164169.762676","Mapping"
"Mixed","Male","done","38","F_cad.wav","None","727.95479151","236","159577.176896","151859.965873","152627.288925","153393.97879","154143.128332","154910.140974","155676.348528","156443.473091","160343.596544","161110.493555","161859.871576","162626.237736","163393.366009","164160.018773","164926.690706","165693.034915","164936.376484","Mapping"
"Mixed","Male","done","38","M_gnash.wav","None","727.479901398","236","159577.176896","166459.553498","152627.288925","153393.97879","154143.128332","154910.140974","155676.348528","156443.473091","160343.596544","161110.493555","161859.871576","162626.237736","163393.366009","164160.018773","164926.690706","165693.034915","165702.187988","Mapping"
"Mixed","Male","done","38","F_knife.wav","None","726.290512132","236","159577.176896","166459.553498","167226.172872","153393.97879","154143.128332","154910.140974","155676.348528","156443.473091","160343.596544","161110.493555","161859.871576","162626.237736","163393.366009","164160.018773","164926.690706","165693.034915","166468.765005","Mapping"
"Mixed","Male","done","38","M_done.wav","None","725.08473671","236","159577.176896","166459.553498","167226.172872","167993.671843","154143.128332","154910.140974","155676.348528","156443.473091","160343.596544","161110.493555","161859.871576","162626.237736","163393.366009","164160.018773","164926.690706","165693.034915","167235.312031","Mapping"
"Mixed","Male","done","38","M_bluff.wav","space","492.592673982","236","159577.176896","166459.553498","167226.172872","167993.671843","168760.316259","154910.140974","155676.348528","156443.473091","160343.596544","161110.493555","161859.871576","162626.237736","163393.366009","164160.018773","164926.690706","165693.034915","168003.748107","Mapping"
"Mixed","Male","done","38","M_done.wav","None","719.87702325","236","159577.176896","166459.553498","167226.172872","167993.671843","168760.316259","169527.254391","155676.348528","156443.473091","160343.596544","161110.493555","161859.871576","162626.237736","163393.366009","164160.018773","164926.690706","165693.034915","168770.415711","Mapping"
"Mixed","Male","done","38","F_depth.wav","space","623.474346125","236","159577.176896","166459.553498","167226.172872","167993.671843","168760.316259","169527.254391","170276.306234","156443.473091","160343.596544","161110.493555","161859.871576","162626.237736","163393.366009","164160.018773","164926.690706","165693.034915","169536.805987","Mapping"
"Mixed","Male","done","38","M_romp.wav","None","734.132381156","236","159577.176896","166459.553498","167226.172872","167993.671843","168760.316259","169527.254391","170276.306234","171042.772566","160343.596544","161110.493555","161859.871576","162626.237736","163393.366009","164160.018773","164926.690706","165693.034915","170286.008398","Mapping"
"Mixed","Male","ball","5","F_priest.wav","None","733.871748205","236","174176.801003","166459.553498","167226.172872","167993.671843","168760.316259","169527.254391","170276.306234","171042.772566","160343.596544","161110.493555","161859.871576","162626.237736","163393.366009","164160.018773","164926.690706","165693.034915","171051.971087","Mapping"
"Mixed","Male","ball","5","M_greet.wav","None","720.800523646","236","174176.801003","166459.553498","167226.172872","167993.671843","168760.316259","169527.254391","170276.306234","171042.772566","174943.547447","161110.493555","161859.871576","162626.237736","163393.366009","164160.018773","164926.690706","165693.034915","174186.953324","Mapping"
"Mixed","Male","ball","5","F_priest.wav","None","718.304568436","236","174176.801003","166459.553498","167226.172872","167993.671843","168760.316259","169527.254391","170276.306234","171042.772566","174943.547447","175693.464048","161859.871576","162626.237736","163393.366009","164160.018773","164926.690706","165693.034915","174954.632234","Mapping"
"Mixed","Male","ball","5","F_park.wav","None","735.161927878","236","174176.801003","166459.553498","167226.172872","167993.671843","168760.316259","169527.254391","170276.306234","171042.772566","174943.547447","175693.464048","176459.697264","162626.237736","163393.366009","164160.018773","164926.690706","165693.034915","175703.162193","Mapping"
"Mixed","Male","ball","5","F_done.wav","None","734.342618962","236","174176.801003","166459.553498","167226.172872","167993.671843","168760.316259","169527.254391","170276.306234","171042.772566","174943.547447","175693.464048","176459.697264","177226.475243","163393.366009","164160.018773","164926.690706","165693.034915","176469.318115","Mapping"
"Mixed","Male","ball","5","M_ball.wav","None","733.201769879","236","174176.801003","166459.553498","167226.172872","167993.671843","168760.316259","169527.254391","170276.306234","171042.772566","174943.547447","175693.464048","176459.697264","177226.475243","177993.114713","164160.018773","164926.690706","165693.034915","177235.841954","Mapping"
"Mixed","Male","ball","5","F_cling.wav","space","492.943585501","236","174176.801003","166459.553498","167226.172872","167993.671843","168760.316259","169527.254391","170276.306234","171042.772566","174943.547447","175693.464048","176459.697264","177226.475243","177993.114713","178759.776443","164926.690706","165693.034915","178003.139654","Mapping"
"Mixed","Male","ball","5","M_ball.wav","None","729.752633604","236","174176.801003","166459.553498","167226.172872","167993.671843","168760.316259","169527.254391","170276.306234","171042.772566","174943.547447","175693.464048","176459.697264","177226.475243","177993.114713","178759.776443","179526.629861","165693.034915","178769.336697","Mapping"
"Mixed","Male","ball","5","F_bluff.wav","space","503.824936226","236","174176.801003","166459.553498","167226.172872","167993.671843","168760.316259","169527.254391","170276.306234","171042.772566","174943.547447","175693.464048","176459.697264","177226.475243","177993.114713","178759.776443","179526.629861","180293.176269","179536.28132","Mapping"
"Mixed","Male","ball","5","M_gnash.wav","None","726.138089783","236","174176.801003","181059.719277","167226.172872","167993.671843","168760.316259","169527.254391","170276.306234","171042.772566","174943.547447","175693.464048","176459.697264","177226.475243","177993.114713","178759.776443","179526.629861","180293.176269","180302.87967","Mapping"
"Mixed","Male","ball","5","M_ball.wav","None","724.228017731","236","174176.801003","181059.719277","181826.225493","167993.671843","168760.316259","169527.254391","170276.306234","171042.772566","174943.547447","175693.464048","176459.697264","177226.475243","177993.114713","178759.776443","179526.629861","180293.176269","181070.092038","Mapping"
"Mixed","Male","ball","5","M_reek.wav","space","556.17878004","236","174176.801003","181059.719277","181826.225493","182592.763863","168760.316259","169527.254391","170276.306234","171042.772566","174943.547447","175693.464048","176459.697264","177226.475243","177993.114713","178759.776443","179526.629861","180293.176269","181835.861494","Mapping"
"Mixed","Male","ball","5","M_reek.wav","None","722.009700025","236","174176.801003","181059.719277","181826.225493","182592.763863","183360.076403","169527.254391","170276.306234","171042.772566","174943.547447","175693.464048","176459.697264","177226.475243","177993.114713","178759.776443","179526.629861","180293.176269","182602.066266","Mapping"
"Mixed","Male","ball","5","M_ball.wav","None","719.444489921","236","174176.801003","181059.719277","181826.225493","182592.763863","183360.076403","184109.796369","170276.306234","171042.772566","174943.547447","175693.464048","176459.697264","177226.475243","177993.114713","178759.776443","179526.629861","180293.176269","183370.053422","Mapping"
"Mixed","Male","ball","5","F_greet.wav","space","576.546492055","236","174176.801003","181059.719277","181826.225493","182592.763863","183360.076403","184109.796369","184876.361328","171042.772566","174943.547447","175693.464048","176459.697264","177226.475243","177993.114713","178759.776443","179526.629861","180293.176269","184119.450302","Mapping"
"Mixed","Male","ball","5","F_cave.wav","None","732.874664594","236","174176.801003","181059.719277","181826.225493","182592.763863","183360.076403","184109.796369","184876.361328","185642.999561","174943.547447","175693.464048","176459.697264","177226.475243","177993.114713","178759.776443","179526.629861","180293.176269","184886.462017","Mapping"
"Mixed","Female","ball","8","F_knife.wav","None","731.93694232","236","188776.561147","181059.719277","181826.225493","182592.763863","183360.076403","184109.796369","184876.361328","185642.999561","174943.547447","175693.464048","176459.697264","177226.475243","177993.114713","178759.776443","179526.629861","180293.176269","185652.631852","Mapping"
"Mixed","Female","ball","8","F_priest.wav","None","719.685954158","236","188776.561147","181059.719277","181826.225493","182592.763863","183360.076403","184109.796369","184876.361328","185642.999561","189543.325523","175693.464048","176459.697264","177226.475243","177993.114713","178759.776443","179526.629861","180293.176269","188787.876268","Mapping"
"Mixed","Female","ball","8","M_romp.wav","None","719.436760643","236","188776.561147","181059.719277","181826.225493","182592.763863","183360.076403","184109.796369","184876.361328","185642.999561","189543.325523","190293.074242","176459.697264","177226.475243","177993.114713","178759.776443","179526.629861","180293.176269","189553.54617","Mapping"
"Mixed","Female","ball","8","F_cave.wav","None","735.510366037","236","188776.561147","181059.719277","181826.225493","182592.763863","183360.076403","184109.796369","184876.361328","185642.999561","189543.325523","190293.074242","191059.336211","177226.475243","177993.114713","178759.776443","179526.629861","180293.176269","190302.840405","Mapping"
"Mixed","Female","ball","8","F_ball.wav","None","734.822146595","236","188776.561147","181059.719277","181826.225493","182592.763863","183360.076403","184109.796369","184876.361328","185642.999561","189543.325523","190293.074242","191059.336211","191826.001342","177993.114713","178759.776443","179526.629861","180293.176269","191068.853799","Mapping"
"Mixed","Female","ball","8","M_bluff.wav","space","524.550670874","236","188776.561147","181059.719277","181826.225493","182592.763863","183360.076403","184109.796369","184876.361328","185642.999561","189543.325523","190293.074242","191059.336211","191826.001342","192592.852905","178759.776443","179526.629861","180293.176269","191835.304055","Mapping"
"Mixed","Female","ball","8","F_ball.wav","None","732.762125554","236","188776.561147","181059.719277","181826.225493","182592.763863","183360.076403","184109.796369","184876.361328","185642.999561","189543.325523","190293.074242","191059.336211","191826.001342","192592.852905","193359.241944","179526.629861","180293.176269","192602.745211","Mapping"
"Mixed","Female","ball","8","M_bluff.wav","space","599.140560371","236","188776.561147","181059.719277","181826.225493","182592.763863","183360.076403","184109.796369","184876.361328","185642.999561","189543.325523","190293.074242","191059.336211","191826.001342","192592.852905","193359.241944","194126.082068","180293.176269","193368.766025","Mapping"
"Mixed","Female","ball","8","M_jolt.wav","None","729.400176206","236","188776.561147","181059.719277","181826.225493","182592.763863","183360.076403","184109.796369","184876.361328","185642.999561","189543.325523","190293.074242","191059.336211","191826.001342","192592.852905","193359.241944","194126.082068","194892.809652","194136.081966","Mapping"
"Mixed","Female","ball","8","M_knife.wav","None","727.714254637","236","188776.561147","195659.03452","181826.225493","182592.763863","183360.076403","184109.796369","184876.361328","185642.999561","189543.325523","190293.074242","191059.336211","191826.001342","192592.852905","193359.241944","194126.082068","194892.809652","194903.238682","Mapping"
"Mixed","Female","ball","8","F_ball.wav","None","727.836378152","236","188776.561147","195659.03452","196426.079934","182592.763863","183360.076403","184109.796369","184876.361328","185642.999561","189543.325523","190293.074242","191059.336211","191826.001342","192592.852905","193359.241944","194126.082068","194892.809652","195668.500476","Mapping"
"Mixed","Female","ball","8","M_cling.wav","space","484.043107368","236","188776.561147","195659.03452","196426.079934","197193.151628","183360.076403","184109.796369","184876.361328","185642.999561","189543.325523","190293.074242","191059.336211","191826.001342","192592.852905","193359.241944","194126.082068","194892.809652","196435.754582","Mapping"
"Mixed","Female","ball","8","M_dime.wav","None","723.177756299","236","188776.561147","195659.03452","196426.079934","197193.151628","197959.899927","184109.796369","184876.361328","185642.999561","189543.325523","190293.074242","191059.336211","191826.001342","192592.852905","193359.241944","194126.082068","194892.809652","197203.207796","Mapping"
"Mixed","Female","ball","8","F_ball.wav","None","721.7942063","236","188776.561147","195659.03452","196426.079934","197193.151628","197959.899927","198726.150766","184876.361328","185642.999561","189543.325523","190293.074242","191059.336211","191826.001342","192592.852905","193359.241944","194126.082068","194892.809652","197970.065232","Mapping"
"Mixed","Female","ball","8","M_cling.wav","space","447.870461387","236","188776.561147","195659.03452","196426.079934","197193.151628","197959.899927","198726.150766","199493.219677","185642.999561","189543.325523","190293.074242","191059.336211","191826.001342","192592.852905","193359.241944","194126.082068","194892.809652","198735.894978","Mapping"
"Mixed","Female","ball","8","F_reek.wav","None","718.116591102","236","188776.561147","195659.03452","196426.079934","197193.151628","197959.899927","198726.150766","199493.219677","200242.154653","189543.325523","190293.074242","191059.336211","191826.001342","192592.852905","193359.241944","194126.082068","194892.809652","199503.552245","Mapping"
"Mixed","Male","cave","17","F_jolt.wav","None","741.210901528","236","203376.499374","195659.03452","196426.079934","197193.151628","197959.899927","198726.150766","199493.219677","200242.154653","189543.325523","190293.074242","191059.336211","191826.001342","192592.852905","193359.241944","194126.082068","194892.809652","200245.878026","Mapping"
"Mixed","Male","cave","17","F_jaw.wav","None","720.328416093","236","203376.499374","195659.03452","196426.079934","197193.151628","197959.899927","198726.150766","199493.219677","200242.154653","204143.09927","190293.074242","191059.336211","191826.001342","192592.852905","193359.241944","194126.082068","194892.809652","203386.987457","Mapping"
"Mixed","Male","cave","17","M_depth.wav","None","719.636486494","236","203376.499374","195659.03452","196426.079934","197193.151628","197959.899927","198726.150766","199493.219677","200242.154653","204143.09927","204892.521193","191059.336211","191826.001342","192592.852905","193359.241944","194126.082068","194892.809652","204152.984155","Mapping"
"Mixed","Male","cave","17","M_cave.wav","None","736.474986421","236","203376.499374","195659.03452","196426.079934","197193.151628","197959.899927","198726.150766","199493.219677","200242.154653","204143.09927","204892.521193","205658.950425","191826.001342","192592.852905","193359.241944","194126.082068","194892.809652","204901.638711","Mapping"
"Mixed","Male","cave","17","F_jaw.wav","space","507.071563974","236","203376.499374","195659.03452","196426.079934","197193.151628","197959.899927","198726.150766","199493.219677","200242.154653","204143.09927","204892.521193","205658.950425","206425.875571","192592.852905","193359.241944","194126.082068","194892.809652","205668.552417","Mapping"
"Mixed","Male","cave","17","M_cave.wav","None","732.230038382","236","203376.499374","195659.03452","196426.079934","197193.151628","197959.899927","198726.150766","199493.219677","200242.154653","204143.09927","204892.521193","205658.950425","206425.875571","207192.599754","193359.241944","194126.082068","194892.809652","206435.764476","Mapping"
"Mixed","Male","cave","17","F_cad.wav","space","557.621072978","236","203376.499374","195659.03452","196426.079934","197193.151628","197959.899927","198726.150766","199493.219677","200242.154653","204143.09927","204892.521193","205658.950425","206425.875571","207192.599754","207959.258392","194126.082068","194892.809652","207201.964919","Mapping"
"Mixed","Male","cave","17","F_bluff.wav","None","728.825113969","236","203376.499374","195659.03452","196426.079934","197193.151628","197959.899927","198726.150766","199493.219677","200242.154653","204143.09927","204892.521193","205658.950425","206425.875571","207192.599754","207959.258392","208725.909302","194892.809652","207969.069695","Mapping"
"Mixed","Male","cave","17","F_tile.wav","None","726.981823333","236","203376.499374","195659.03452","196426.079934","197193.151628","197959.899927","198726.150766","199493.219677","200242.154653","204143.09927","204892.521193","205658.950425","206425.875571","207192.599754","207959.258392","208725.909302","209492.529293","208736.469421","Mapping"
"Mixed","Male","cave","17","F_cad.wav","None","726.814251509","236","203376.499374","210258.771166","196426.079934","197193.151628","197959.899927","198726.150766","199493.219677","200242.154653","204143.09927","204892.521193","205658.950425","206425.875571","207192.599754","207959.258392","208725.909302","209492.529293","209502.122629","Mapping"
"Mixed","Male","cave","17","M_cave.wav","None","726.647297968","236","203376.499374","210258.771166","211025.439389","197193.151628","197959.899927","198726.150766","199493.219677","200242.154653","204143.09927","204892.521193","205658.950425","206425.875571","207192.599754","207959.258392","208725.909302","209492.529293","210267.900742","Mapping"
"Mixed","Male","cave","17","M_ball.wav","space","645.153261721","236","203376.499374","210258.771166","211025.439389","211792.713591","197959.899927","198726.150766","199493.219677","200242.154653","204143.09927","204892.521193","205658.950425","206425.875571","207192.599754","207959.258392","208725.909302","209492.529293","211034.306786","Mapping"
"Mixed","Male","cave","17","M_greet.wav","None","721.426908509","236","203376.499374","210258.771166","211025.439389","211792.713591","212559.513213","198726.150766","199493.219677","200242.154653","204143.09927","204892.521193","205658.950425","206425.875571","207192.599754","207959.258392","208725.909302","209492.529293","211803.153752","Mapping"
"Mixed","Male","cave","17","M_cave.wav","None","720.366753638","236","203376.499374","210258.771166","211025.439389","211792.713591","212559.513213","213326.029632","199493.219677","200242.154653","204143.09927","204892.521193","205658.950425","206425.875571","207192.599754","207959.258392","208725.909302","209492.529293","212569.625032","Mapping"
"Mixed","Male","cave","17","F_gnash.wav","space","495.67667651","236","203376.499374","210258.771166","211025.439389","211792.713591","212559.513213","213326.029632","214075.854099","200242.154653","204143.09927","204892.521193","205658.950425","206425.875571","207192.599754","207959.258392","208725.909302","209492.529293","213335.819292","Mapping"
"Mixed","Male","cave","17","M_greet.wav","None","734.921391122","236","203376.499374","210258.771166","211025.439389","211792.713591","212559.513213","213326.029632","214075.854099","214842.406382","204143.09927","204892.521193","205658.950425","206425.875571","207192.599754","207959.258392","208725.909302","209492.529293","214085.731873","Mapping"
"Mixed","Female","cave","22","M_depth.wav","None","733.679133235","236","217976.097511","210258.771166","211025.439389","211792.713591","212559.513213","213326.029632","214075.854099","214842.406382","204143.09927","204892.521193","205658.950425","206425.875571","207192.599754","207959.258392","208725.909302","209492.529293","214852.331769","Mapping"
"Mixed","Female","cave","22","F_dime.wav","None","720.859266585","236","217976.097511","210258.771166","211025.439389","211792.713591","212559.513213","213326.029632","214075.854099","214842.406382","218742.096683","204892.521193","205658.950425","206425.875571","207192.599754","207959.258392","208725.909302","209492.529293","217986.122761","Mapping"
"Mixed","Female","cave","22","M_cad.wav","None","720.730650472","236","217976.097511","210258.771166","211025.439389","211792.713591","212559.513213","213326.029632","214075.854099","214842.406382","218742.096683","219509.550824","205658.950425","206425.875571","207192.599754","207959.258392","208725.909302","209492.529293","218751.775968","Mapping"
"Mixed","Female","cave","22","M_gnash.wav","None","717.821949045","236","217976.097511","210258.771166","211025.439389","211792.713591","212559.513213","213326.029632","214075.854099","214842.406382","218742.096683","219509.550824","220258.805794","206425.875571","207192.599754","207959.258392","208725.909302","209492.529293","219520.139078","Mapping"
"Mixed","Female","cave","22","F_cave.wav","None","735.000539571","236","217976.097511","210258.771166","211025.439389","211792.713591","212559.513213","213326.029632","214075.854099","214842.406382","218742.096683","219509.550824","220258.805794","221025.452065","207192.599754","207959.258392","208725.909302","209492.529293","220268.384289","Mapping"
"Mixed","Female","cave","22","M_romp.wav","space","476.335110376","236","217976.097511","210258.771166","211025.439389","211792.713591","212559.513213","213326.029632","214075.854099","214842.406382","218742.096683","219509.550824","220258.805794","221025.452065","221792.300536","207959.258392","208725.909302","209492.529293","221035.044473","Mapping"
"Mixed","Female","cave","22","F_cave.wav","None","731.211312814","236","217976.097511","210258.771166","211025.439389","211792.713591","212559.513213","213326.029632","214075.854099","214842.406382","218742.096683","219509.550824","220258.805794","221025.452065","221792.300536","222558.986691","208725.909302","209492.529293","221802.023415","Mapping"
"Mixed","Female","cave","22","M_romp.wav","space","718.534593238","236","217976.097511","210258.771166","211025.439389","211792.713591","212559.513213","213326.029632","214075.854099","214842.406382","218742.096683","219509.550824","220258.805794","221025.452065","221792.300536","222558.986691","223325.576075","209492.529293","222568.80665","Mapping"
"Mixed","Female","cave","22","F_cave.wav","None","727.222669288","236","217976.097511","210258.771166","211025.439389","211792.713591","212559.513213","213326.029632","214075.854099","214842.406382","218742.096683","219509.550824","220258.805794","221025.452065","221792.300536","222558.986691","223325.576075","224092.252954","223335.75653","Mapping"
"Mixed","Female","cave","22","M_bluff.wav","space","536.417974858","236","217976.097511","224859.974221","211025.439389","211792.713591","212559.513213","213326.029632","214075.854099","214842.406382","218742.096683","219509.550824","220258.805794","221025.452065","221792.300536","222558.986691","223325.576075","224092.252954","224102.892223","Mapping"
"Mixed","Female","cave","22","F_gnash.wav","None","722.96504525","236","217976.097511","224859.974221","225625.905684","211792.713591","212559.513213","213326.029632","214075.854099","214842.406382","218742.096683","219509.550824","220258.805794","221025.452065","221792.300536","222558.986691","223325.576075","224092.252954","224870.014002","Mapping"
"Mixed","Female","cave","22","F_cave.wav","None","722.665147157","236","217976.097511","224859.974221","225625.905684","226392.579163","212559.513213","213326.029632","214075.854099","214842.406382","218742.096683","219509.550824","220258.805794","221025.452065","221792.300536","222558.986691","223325.576075","224092.252954","225636.041618","Mapping"
"Mixed","Female","cave","22","M_ball.wav","space","604.825327871","236","217976.097511","224859.974221","225625.905684","226392.579163","227159.178131","213326.029632","214075.854099","214842.406382","218742.096683","219509.550824","220258.805794","221025.452065","221792.300536","222558.986691","223325.576075","224092.252954","226402.457556","Mapping"
"Mixed","Female","cave","22","F_park.wav","None","718.968672445","236","217976.097511","224859.974221","225625.905684","226392.579163","227159.178131","227908.938908","214075.854099","214842.406382","218742.096683","219509.550824","220258.805794","221025.452065","221792.300536","222558.986691","223325.576075","224092.252954","227169.623857","Mapping"
"Mixed","Female","cave","22","M_knife.wav","None","735.52273307","236","217976.097511","224859.974221","225625.905684","226392.579163","227159.178131","227908.938908","228675.301359","214842.406382","218742.096683","219509.550824","220258.805794","221025.452065","221792.300536","222558.986691","223325.576075","224092.252954","227918.599025","Mapping"
"Mixed","Female","cave","22","F_jaw.wav","None","734.439699329","236","217976.097511","224859.974221","225625.905684","226392.579163","227159.178131","227908.938908","228675.301359","229441.733992","218742.096683","219509.550824","220258.805794","221025.452065","221792.300536","222558.986691","223325.576075","224092.252954","228685.250552","Mapping"
"Mixed","Female","ball","10","F_lash.wav","None","734.274910064","236","232575.924745","224859.974221","225625.905684","226392.579163","227159.178131","227908.938908","228675.301359","229441.733992","218742.096683","219509.550824","220258.805794","221025.452065","221792.300536","222558.986691","223325.576075","224092.252954","229450.935914","Mapping"
"Mixed","Female","ball","10","F_ball.wav","None","719.616699382","236","232575.924745","224859.974221","225625.905684","226392.579163","227159.178131","227908.938908","228675.301359","229441.733992","233342.4424","219509.550824","220258.805794","221025.452065","221792.300536","222558.986691","223325.576075","224092.252954","232587.198436","Mapping"
"Mixed","Female","ball","10","M_dime.wav","space","590.475672274","236","232575.924745","224859.974221","225625.905684","226392.579163","227159.178131","227908.938908","228675.301359","229441.733992","233342.4424","234091.497026","220258.805794","221025.452065","221792.300536","222558.986691","223325.576075","224092.252954","233352.640169","Mapping"
"Mixed","Female","ball","10","F_ball.wav","None","736.614114488","236","232575.924745","224859.974221","225625.905684","226392.579163","227159.178131","227908.938908","228675.301359","229441.733992","233342.4424","234091.497026","234858.615405","221025.452065","221792.300536","222558.986691","223325.576075","224092.252954","234100.487783","Mapping"
"Mixed","Female","ball","10","M_depth.wav","space","618.702257867","236","232575.924745","224859.974221","225625.905684","226392.579163","227159.178131","227908.938908","228675.301359","229441.733992","233342.4424","234091.497026","234858.615405","235625.026086","221792.300536","222558.986691","223325.576075","224092.252954","234868.430108","Mapping"
"Mixed","Female","ball","10","F_ball.wav","None","733.178891009","236","232575.924745","224859.974221","225625.905684","226392.579163","227159.178131","227908.938908","228675.301359","229441.733992","233342.4424","234091.497026","234858.615405","235625.026086","236392.066863","222558.986691","223325.576075","224092.252954","235634.08919","Mapping"
"Mixed","Female","ball","10","M_jaw.wav","space","405.625653686","236","232575.924745","224859.974221","225625.905684","226392.579163","227159.178131","227908.938908","228675.301359","229441.733992","233342.4424","234091.497026","234858.615405","235625.026086","236392.066863","237158.72983","223325.576075","224092.252954","236401.459854","Mapping"
"Mixed","Female","ball","10","F_ball.wav","None","729.157475289","236","232575.924745","224859.974221","225625.905684","226392.579163","227159.178131","227908.938908","228675.301359","229441.733992","233342.4424","234091.497026","234858.615405","235625.026086","236392.066863","237158.72983","237924.988398","224092.252954","237168.276789","Mapping"
"Mixed","Female","ball","10","F_romp.wav","space","440.559751936","236","232575.924745","224859.974221","225625.905684","226392.579163","227159.178131","227908.938908","228675.301359","229441.733992","233342.4424","234091.497026","234858.615405","235625.026086","236392.066863","237158.72983","237924.988398","238692.010624","237934.493001","Mapping"
"Mixed","Female","ball","10","F_jolt.wav","None","726.622873219","236","232575.924745","239458.241986","225625.905684","226392.579163","227159.178131","227908.938908","228675.301359","229441.733992","233342.4424","234091.497026","234858.615405","235625.026086","236392.066863","237158.72983","237924.988398","238692.010624","238701.566859","Mapping"
"Mixed","Female","ball","10","M_lash.wav","None","726.119230152","236","232575.924745","239458.241986","240225.293274","226392.579163","227159.178131","227908.938908","228675.301359","229441.733992","233342.4424","234091.497026","234858.615405","235625.026086","236392.066863","237158.72983","237924.988398","238692.010624","239467.654764","Mapping"
"Mixed","Female","ball","10","M_park.wav","None","724.948391202","236","232575.924745","239458.241986","240225.293274","240992.205125","227159.178131","227908.938908","228675.301359","229441.733992","233342.4424","234091.497026","234858.615405","235625.026086","236392.066863","237158.72983","237924.988398","238692.010624","240234.801587","Mapping"
"Mixed","Female","ball","10","M_greet.wav","None","723.345637438","236","232575.924745","239458.241986","240225.293274","240992.205125","241758.737003","227908.938908","228675.301359","229441.733992","233342.4424","234091.497026","234858.615405","235625.026086","236392.066863","237158.72983","237924.988398","238692.010624","241002.062494","Mapping"
"Mixed","Female","ball","10","M_cad.wav","None","722.039998975","236","232575.924745","239458.241986","240225.293274","240992.205125","241758.737003","242525.099453","228675.301359","229441.733992","233342.4424","234091.497026","234858.615405","235625.026086","236392.066863","237158.72983","237924.988398","238692.010624","241769.00279","Mapping"
"Mixed","Female","ball","10","F_priest.wav","None","722.528183484","236","232575.924745","239458.241986","240225.293274","240992.205125","241758.737003","242525.099453","243292.174548","229441.733992","233342.4424","234091.497026","234858.615405","235625.026086","236392.066863","237158.72983","237924.988398","238692.010624","242534.368775","Mapping"
"Mixed","Female","ball","10","M_lash.wav","None","720.425805659","236","232575.924745","239458.241986","240225.293274","240992.205125","241758.737003","242525.099453","243292.174548","244058.45043","233342.4424","234091.497026","234858.615405","235625.026086","236392.066863","237158.72983","237924.988398","238692.010624","243302.149403","Mapping"
"Mixed","Male","ball","6","M_tile.wav","None","721.093001426","236","247175.80021","239458.241986","240225.293274","240992.205125","241758.737003","242525.099453","243292.174548","244058.45043","233342.4424","234091.497026","234858.615405","235625.026086","236392.066863","237158.72983","237924.988398","238692.010624","244067.711095","Mapping"
"Mixed","Male","ball","6","M_ball.wav","None","720.958511112","236","247175.80021","239458.241986","240225.293274","240992.205125","241758.737003","242525.099453","243292.174548","244058.45043","247942.349092","234091.497026","234858.615405","235625.026086","236392.066863","237158.72983","237924.988398","238692.010624","247185.366647","Mapping"
"Mixed","Male","ball","6","F_dime.wav","None","719.756445731","236","247175.80021","239458.241986","240225.293274","240992.205125","241758.737003","242525.099453","243292.174548","244058.45043","247942.349092","248708.260768","234858.615405","235625.026086","236392.066863","237158.72983","237924.988398","238692.010624","247952.223156","Mapping"
"Mixed","Male","ball","6","F_reek.wav","space","0.0275163911283","236","247175.80021","239458.241986","240225.293274","240992.205125","241758.737003","242525.099453","243292.174548","244058.45043","247942.349092","248708.260768","249458.007941","235625.026086","236392.066863","237158.72983","237924.988398","238692.010624","248717.68313","Mapping"
"Mixed","Male","ball","6","F_cling.wav","None","735.339702456","236","247175.80021","239458.241986","240225.293274","240992.205125","241758.737003","242525.099453","243292.174548","244058.45043","247942.349092","248708.260768","249458.007941","250225.091384","236392.066863","237158.72983","237924.988398","238692.010624","249466.945829","Mapping"
"Mixed","Male","ball","6","M_greet.wav","None","733.550517238","236","247175.80021","239458.241986","240225.293274","240992.205125","241758.737003","242525.099453","243292.174548","244058.45043","247942.349092","248708.260768","249458.007941","250225.091384","250991.792379","237158.72983","237924.988398","238692.010624","250234.513128","Mapping"
"Mixed","Male","ball","6","M_ball.wav","None","732.462227461","236","247175.80021","239458.241986","240225.293274","240992.205125","241758.737003","242525.099453","243292.174548","244058.45043","247942.349092","248708.260768","249458.007941","250225.091384","250991.792379","251758.465858","237924.988398","238692.010624","251001.595952","Mapping"
"Mixed","Male","ball","6","F_lash.wav","space","438.847550773","236","247175.80021","239458.241986","240225.293274","240992.205125","241758.737003","242525.099453","243292.174548","244058.45043","247942.349092","248708.260768","249458.007941","250225.091384","250991.792379","251758.465858","252525.140573","238692.010624","251767.945417","Mapping"
"Mixed","Male","ball","6","M_ball.wav","None","729.304641602","236","247175.80021","239458.241986","240225.293274","240992.205125","241758.737003","242525.099453","243292.174548","244058.45043","247942.349092","248708.260768","249458.007941","250225.091384","250991.792379","251758.465858","252525.140573","253291.73274","252535.09595","Mapping"
"Mixed","Male","ball","6","F_park.wav","space","649.463754497","236","247175.80021","254058.405291","240225.293274","240992.205125","241758.737003","242525.099453","243292.174548","244058.45043","247942.349092","248708.260768","249458.007941","250225.091384","250991.792379","251758.465858","252525.140573","253291.73274","253301.310925","Mapping"
"Mixed","Male","ball","6","F_knife.wav","None","727.199790417","236","247175.80021","254058.405291","254824.805151","240992.205125","241758.737003","242525.099453","243292.174548","244058.45043","247942.349092","248708.260768","249458.007941","250225.091384","250991.792379","251758.465858","252525.140573","253291.73274","254067.646169","Mapping"
"Mixed","Male","ball","6","M_lash.wav","None","726.384191541","236","247175.80021","254058.405291","254824.805151","255591.260972","241758.737003","242525.099453","243292.174548","244058.45043","247942.349092","248708.260768","249458.007941","250225.091384","250991.792379","251758.465858","252525.140573","253291.73274","254834.269871","Mapping"
"Mixed","Male","ball","6","F_cling.wav","None","725.840355852","236","247175.80021","254058.405291","254824.805151","255591.260972","256358.664718","242525.099453","243292.174548","244058.45043","247942.349092","248708.260768","249458.007941","250225.091384","250991.792379","251758.465858","252525.140573","253291.73274","255600.641905","Mapping"
"Mixed","Male","ball","6","M_jaw.wav","None","723.090260406","236","247175.80021","254058.405291","254824.805151","255591.260972","256358.664718","257125.486909","243292.174548","244058.45043","247942.349092","248708.260768","249458.007941","250225.091384","250991.792379","251758.465858","252525.140573","253291.73274","256369.092512","Mapping"
"Mixed","Male","ball","6","M_ball.wav","None","722.460165387","236","247175.80021","254058.405291","254824.805151","255591.260972","256358.664718","257125.486909","257892.003946","244058.45043","247942.349092","248708.260768","249458.007941","250225.091384","250991.792379","251758.465858","252525.140573","253291.73274","257135.615732","Mapping"
"Mixed","Male","ball","6","F_greet.wav","space","487.872217433","236","247175.80021","254058.405291","254824.805151","255591.260972","256358.664718","257125.486909","257892.003946","258658.993709","247942.349092","248708.260768","249458.007941","250225.091384","250991.792379","251758.465858","252525.140573","253291.73274","257902.830883","Mapping"
"Mixed","Female","cave","21","F_priest.wav","None","719.852907816","236","261775.073715","254058.405291","254824.805151","255591.260972","256358.664718","257125.486909","257892.003946","258658.993709","247942.349092","248708.260768","249458.007941","250225.091384","250991.792379","251758.465858","252525.140573","253291.73274","258668.714424","Mapping"
"Mixed","Female","cave","21","F_gnash.wav","None","720.717974473","236","261775.073715","254058.405291","254824.805151","255591.260972","256358.664718","257125.486909","257892.003946","258658.993709","262541.948156","248708.260768","249458.007941","250225.091384","250991.792379","251758.465858","252525.140573","253291.73274","261785.37753","Mapping"
"Mixed","Female","cave","21","F_cave.wav","None","719.653491047","236","261775.073715","254058.405291","254824.805151","255591.260972","256358.664718","257125.486909","257892.003946","258658.993709","262541.948156","263308.076253","249458.007941","250225.091384","250991.792379","251758.465858","252525.140573","253291.73274","262552.079762","Mapping"
"Mixed","Female","cave","21","M_done.wav","space","488.949995255","236","261775.073715","254058.405291","254824.805151","255591.260972","256358.664718","257125.486909","257892.003946","258658.993709","262541.948156","263308.076253","264057.999037","250225.091384","250991.792379","251758.465858","252525.140573","253291.73274","263317.643927","Mapping"
"Mixed","Female","cave","21","M_park.wav","None","734.763094457","236","261775.073715","254058.405291","254824.805151","255591.260972","256358.664718","257125.486909","257892.003946","258658.993709","262541.948156","263308.076253","264057.999037","264824.494432","250991.792379","251758.465858","252525.140573","253291.73274","264067.557745","Mapping"
"Mixed","Female","cave","21","F_cave.wav","None","733.980886289","236","261775.073715","254058.405291","254824.805151","255591.260972","256358.664718","257125.486909","257892.003946","258658.993709","262541.948156","263308.076253","264057.999037","264824.494432","265591.087835","251758.465858","252525.140573","253291.73274","264834.026551","Mapping"
"Mixed","Female","cave","21","M_reek.wav","space","518.25714123","236","261775.073715","254058.405291","254824.805151","255591.260972","256358.664718","257125.486909","257892.003946","258658.993709","262541.948156","263308.076253","264057.999037","264824.494432","265591.087835","266357.771826","252525.140573","253291.73274","265600.298105","Mapping"
"Mixed","Female","cave","21","F_cave.wav","None","730.90554052","236","261775.073715","254058.405291","254824.805151","255591.260972","256358.664718","257125.486909","257892.003946","258658.993709","262541.948156","263308.076253","264057.999037","264824.494432","265591.087835","266357.771826","267124.565882","253291.73274","266367.342901","Mapping"
"Mixed","Female","cave","21","M_priest.wav","space","512.813528767","236","261775.073715","254058.405291","254824.805151","255591.260972","256358.664718","257125.486909","257892.003946","258658.993709","262541.948156","263308.076253","264057.999037","264824.494432","265591.087835","266357.771826","267124.565882","267891.666329","267133.73936","Mapping"
"Mixed","Female","cave","21","F_cad.wav","None","726.710060146","236","261775.073715","268658.160797","254824.805151","255591.260972","256358.664718","257125.486909","257892.003946","258658.993709","262541.948156","263308.076253","264057.999037","264824.494432","265591.087835","266357.771826","267124.565882","267891.666329","267901.742593","Mapping"
"Mixed","Female","cave","21","M_done.wav","None","726.425620844","236","261775.073715","268658.160797","269424.82129","255591.260972","256358.664718","257125.486909","257892.003946","258658.993709","262541.948156","263308.076253","264057.999037","264824.494432","265591.087835","266357.771826","267124.565882","267891.666329","268667.644066","Mapping"
"Mixed","Female","cave","21","M_cad.wav","None","725.470584817","236","261775.073715","268658.160797","269424.82129","270191.76344","256358.664718","257125.486909","257892.003946","258658.993709","262541.948156","263308.076253","264057.999037","264824.494432","265591.087835","266357.771826","267124.565882","267891.666329","269434.442142","Mapping"
"Mixed","Female","cave","21","F_cave.wav","None","723.825474153","236","261775.073715","268658.160797","269424.82129","270191.76344","270957.993565","257125.486909","257892.003946","258658.993709","262541.948156","263308.076253","264057.999037","264824.494432","265591.087835","266357.771826","267124.565882","267891.666329","270201.896901","Mapping"
"Mixed","Female","cave","21","F_ball.wav","space","622.978432337","236","261775.073715","268658.160797","269424.82129","270191.76344","270957.993565","271725.224792","257892.003946","258658.993709","262541.948156","263308.076253","264057.999037","264824.494432","265591.087835","266357.771826","267124.565882","267891.666329","270967.4824","Mapping"
"Mixed","Female","cave","21","M_done.wav","None","720.270909951","236","261775.073715","268658.160797","269424.82129","270191.76344","270957.993565","271725.224792","272491.785732","258658.993709","262541.948156","263308.076253","264057.999037","264824.494432","265591.087835","266357.771826","267124.565882","267891.666329","271735.630325","Mapping"
"Mixed","Female","cave","21","M_greet.wav","None","719.736658619","236","261775.073715","268658.160797","269424.82129","270191.76344","270957.993565","271725.224792","272491.785732","273258.488582","262541.948156","263308.076253","264057.999037","264824.494432","265591.087835","266357.771826","267124.565882","267891.666329","272502.127575","Mapping"
"Mixed","Male","cave","14","F_cling.wav","None","719.29825109","236","276374.923827","268658.160797","269424.82129","270191.76344","270957.993565","271725.224792","272491.785732","273258.488582","262541.948156","263308.076253","264057.999037","264824.494432","265591.087835","266357.771826","267124.565882","267891.666329","273268.366666","Mapping"
"Mixed","Male","cave","14","F_dime.wav","None","721.480395412","236","276374.923827","268658.160797","269424.82129","270191.76344","270957.993565","271725.224792","272491.785732","273258.488582","277141.36388","263308.076253","264057.999037","264824.494432","265591.087835","266357.771826","267124.565882","267891.666329","276384.443579","Mapping"
"Mixed","Male","cave","14","M_jolt.wav","None","721.3329199","236","276374.923827","268658.160797","269424.82129","270191.76344","270957.993565","271725.224792","272491.785732","273258.488582","277141.36388","277908.018191","264057.999037","264824.494432","265591.087835","266357.771826","267124.565882","267891.666329","277150.384627","Mapping"
"Mixed","Male","cave","14","F_knife.wav","None","687.632422778","236","276374.923827","268658.160797","269424.82129","270191.76344","270957.993565","271725.224792","272491.785732","273258.488582","277141.36388","277908.018191","278675.026813","264824.494432","265591.087835","266357.771826","267124.565882","267891.666329","277950.163135","Mapping"
"Mixed","Male","cave","14","M_cave.wav","None","718.865099363","236","276374.923827","268658.160797","269424.82129","270191.76344","270957.993565","271725.224792","272491.785732","273258.488582","277141.36388","277908.018191","278675.026813","279424.258286","265591.087835","266357.771826","267124.565882","267891.666329","278684.809671","Mapping"
"Mixed","Male","cave","14","F_jaw.wav","space","500.461750198","236","276374.923827","268658.160797","269424.82129","270191.76344","270957.993565","271725.224792","272491.785732","273258.488582","277141.36388","277908.018191","278675.026813","279424.258286","280191.240319","266357.771826","267124.565882","267891.666329","279433.824414","Mapping"
"Mixed","Male","cave","14","M_cave.wav","None","733.722417499","236","276374.923827","268658.160797","269424.82129","270191.76344","270957.993565","271725.224792","272491.785732","273258.488582","277141.36388","277908.018191","278675.026813","279424.258286","280191.240319","280957.906069","267124.565882","267891.666329","280200.312079","Mapping"
"Mixed","Male","cave","14","F_bluff.wav","space","622.947824188","236","276374.923827","268658.160797","269424.82129","270191.76344","270957.993565","271725.224792","272491.785732","273258.488582","277141.36388","277908.018191","278675.026813","279424.258286","280191.240319","280957.906069","281724.310876","267891.666329","280967.318847","Mapping"
"Mixed","Male","cave","14","M_gnash.wav","None","731.615711236","236","276374.923827","268658.160797","269424.82129","270191.76344","270957.993565","271725.224792","272491.785732","273258.488582","277141.36388","277908.018191","278675.026813","279424.258286","280191.240319","280957.906069","281724.310876","282491.228293","281733.296068","Mapping"
"Mixed","Male","cave","14","M_jolt.wav","None","730.276682181","236","276374.923827","283257.472948","269424.82129","270191.76344","270957.993565","271725.224792","272491.785732","273258.488582","277141.36388","277908.018191","278675.026813","279424.258286","280191.240319","280957.906069","281724.310876","282491.228293","282500.492977","Mapping"
"Mixed","Male","cave","14","M_cave.wav","None","730.570087559","236","276374.923827","283257.472948","284024.576487","270191.76344","270957.993565","271725.224792","272491.785732","273258.488582","277141.36388","277908.018191","278675.026813","279424.258286","280191.240319","280957.906069","281724.310876","282491.228293","283266.406198","Mapping"
"Mixed","Male","cave","14","M_park.wav","space","516.27905108","236","276374.923827","283257.472948","284024.576487","284791.171745","270957.993565","271725.224792","272491.785732","273258.488582","277141.36388","277908.018191","278675.026813","279424.258286","280191.240319","280957.906069","281724.310876","282491.228293","284033.959893","Mapping"
"Mixed","Male","cave","14","F_cling.wav","None","727.35283128","236","276374.923827","283257.472948","284024.576487","284791.171745","285557.586446","271725.224792","272491.785732","273258.488582","277141.36388","277908.018191","278675.026813","279424.258286","280191.240319","280957.906069","281724.310876","282491.228293","284800.540929","Mapping"
"Mixed","Male","cave","14","M_cave.wav","None","727.594295517","236","276374.923827","283257.472948","284024.576487","284791.171745","285557.586446","286324.401217","272491.785732","273258.488582","277141.36388","277908.018191","278675.026813","279424.258286","280191.240319","280957.906069","281724.310876","282491.228293","285566.362945","Mapping"
"Mixed","Male","cave","14","F_gnash.wav","space","576.04223059","236","276374.923827","283257.472948","284024.576487","284791.171745","285557.586446","286324.401217","287090.558994","273258.488582","277141.36388","277908.018191","278675.026813","279424.258286","280191.240319","280957.906069","281724.310876","282491.228293","286334.091941","Mapping"
"Mixed","Male","cave","14","F_jolt.wav","None","727.020160877","236","276374.923827","283257.472948","284024.576487","284791.171745","285557.586446","286324.401217","287090.558994","287857.522478","277141.36388","277908.018191","278675.026813","279424.258286","280191.240319","280957.906069","281724.310876","282491.228293","287099.450507","Mapping"
"Mixed","Male","tile","25","F_done.wav","None","725.871891598","236","290991.485679","283257.472948","284024.576487","284791.171745","285557.586446","286324.401217","287090.558994","287857.522478","277141.36388","277908.018191","278675.026813","279424.258286","280191.240319","280957.906069","281724.310876","282491.228293","287866.597948","Mapping"
"Mixed","Male","tile","25","M_tile.wav","None","721.003650455","236","290991.485679","283257.472948","284024.576487","284791.171745","285557.586446","286324.401217","287090.558994","287857.522478","291757.468156","277908.018191","278675.026813","279424.258286","280191.240319","280957.906069","281724.310876","282491.228293","291001.553595","Mapping"
"Mixed","Male","tile","25","M_jolt.wav","space","455.644930596","236","290991.485679","283257.472948","284024.576487","284791.171745","285557.586446","286324.401217","287090.558994","287857.522478","291757.468156","292524.109172","278675.026813","279424.258286","280191.240319","280957.906069","281724.310876","282491.228293","291766.441908","Mapping"
"Mixed","Male","tile","25","F_bluff.wav","None","720.461360645","236","290991.485679","283257.472948","284024.576487","284791.171745","285557.586446","286324.401217","287090.558994","287857.522478","291757.468156","292524.109172","293274.418731","279424.258286","280191.240319","280957.906069","281724.310876","282491.228293","292533.107039","Mapping"
"Mixed","Male","tile","25","F_reek.wav","None","735.673609655","236","290991.485679","283257.472948","284024.576487","284791.171745","285557.586446","286324.401217","287090.558994","287857.522478","291757.468156","292524.109172","293274.418731","294041.154354","280191.240319","280957.906069","281724.310876","282491.228293","293283.978057","Mapping"
"Mixed","Male","tile","25","M_tile.wav","None","735.688449931","236","290991.485679","283257.472948","284024.576487","284791.171745","285557.586446","286324.401217","287090.558994","287857.522478","291757.468156","292524.109172","293274.418731","294041.154354","294807.518659","280957.906069","281724.310876","282491.228293","294050.821581","Mapping"
"Mixed","Male","tile","25","M_jolt.wav","space","477.029513335","236","290991.485679","283257.472948","284024.576487","284791.171745","285557.586446","286324.401217","287090.558994","287857.522478","291757.468156","292524.109172","293274.418731","294041.154354","294807.518659","295573.842154","281724.310876","282491.228293","294817.042121","Mapping"
"Mixed","Male","tile","25","M_tile.wav","None","734.523794497","236","290991.485679","283257.472948","284024.576487","284791.171745","285557.586446","286324.401217","287090.558994","287857.522478","291757.468156","292524.109172","293274.418731","294041.154354","294807.518659","295573.842154","296340.539748","282491.228293","295582.681725","Mapping"
"Mixed","Male","tile","25","M_done.wav","None","733.695828705","236","290991.485679","283257.472948","284024.576487","284791.171745","285557.586446","286324.401217","287090.558994","287857.522478","291757.468156","292524.109172","293274.418731","294041.154354","294807.518659","295573.842154","296340.539748","297107.617007","296349.460632","Mapping"
"Mixed","Male","tile","25","F_jaw.wav","space","0.0343181891367","236","290991.485679","297874.26668","284024.576487","284791.171745","285557.586446","286324.401217","287090.558994","287857.522478","291757.468156","292524.109172","293274.418731","294041.154354","294807.518659","295573.842154","296340.539748","297107.617007","297117.083272","Mapping"
"Mixed","Male","tile","25","F_cling.wav","None","730.044493102","236","290991.485679","297874.26668","298640.922227","284791.171745","285557.586446","286324.401217","287090.558994","287857.522478","291757.468156","292524.109172","293274.418731","294041.154354","294807.518659","295573.842154","296340.539748","297107.617007","297883.862179","Mapping"
"Mixed","Male","tile","25","M_done.wav","None","729.81354082","236","290991.485679","297874.26668","298640.922227","299407.629405","285557.586446","286324.401217","287090.558994","287857.522478","291757.468156","292524.109172","293274.418731","294041.154354","294807.518659","295573.842154","296340.539748","297107.617007","298650.175471","Mapping"
"Mixed","Male","tile","25","F_dime.wav","None","729.071834241","236","290991.485679","297874.26668","298640.922227","299407.629405","300173.789038","286324.401217","287090.558994","287857.522478","291757.468156","292524.109172","293274.418731","294041.154354","294807.518659","295573.842154","296340.539748","297107.617007","299417.121022","Mapping"
"Mixed","Male","tile","25","F_reek.wav","None","729.573931429","236","290991.485679","297874.26668","298640.922227","299407.629405","300173.789038","300940.813738","287090.558994","287857.522478","291757.468156","292524.109172","293274.418731","294041.154354","294807.518659","295573.842154","296340.539748","297107.617007","300182.699719","Mapping"
"Mixed","Male","tile","25","M_tile.wav","None","728.446686058","236","290991.485679","297874.26668","298640.922227","299407.629405","300173.789038","300940.813738","301707.604702","287857.522478","291757.468156","292524.109172","293274.418731","294041.154354","294807.518659","295573.842154","296340.539748","297107.617007","300950.063891","Mapping"
"Mixed","Male","tile","25","F_romp.wav","space","448.868781677","236","290991.485679","297874.26668","298640.922227","299407.629405","300173.789038","300940.813738","301707.604702","302474.247264","291757.468156","292524.109172","293274.418731","294041.154354","294807.518659","295573.842154","296340.539748","297107.617007","301717.020881","Mapping"
"Mixed","Female","ball","12","F_tile.wav","None","725.512014003","236","305607.73372","297874.26668","298640.922227","299407.629405","300173.789038","300940.813738","301707.604702","302474.247264","291757.468156","292524.109172","293274.418731","294041.154354","294807.518659","295573.842154","296340.539748","297107.617007","302483.884811","Mapping"
"Mixed","Female","ball","12","M_cling.wav","None","720.759712742","236","305607.73372","297874.26668","298640.922227","299407.629405","300173.789038","300940.813738","301707.604702","302474.247264","306374.103282","292524.109172","293274.418731","294041.154354","294807.518659","295573.842154","296340.539748","297107.617007","305617.786487","Mapping"
"Mixed","Female","ball","12","F_bluff.wav","None","721.308495151","236","305607.73372","297874.26668","298640.922227","299407.629405","300173.789038","300940.813738","301707.604702","302474.247264","306374.103282","307141.24052","293274.418731","294041.154354","294807.518659","295573.842154","296340.539748","297107.617007","306383.45237","Mapping"
"Mixed","Female","ball","12","M_lash.wav","None","719.495503581","236","305607.73372","297874.26668","298640.922227","299407.629405","300173.789038","300940.813738","301707.604702","302474.247264","306374.103282","307141.24052","307907.803933","294041.154354","294807.518659","295573.842154","296340.539748","297107.617007","307151.348629","Mapping"
"Mixed","Female","ball","12","M_tile.wav","None","719.113674713","236","305607.73372","297874.26668","298640.922227","299407.629405","300173.789038","300940.813738","301707.604702","302474.247264","306374.103282","307141.24052","307907.803933","308657.71837","294807.518659","295573.842154","296340.539748","297107.617007","307917.849898","Mapping"
"Mixed","Female","ball","12","F_ball.wav","None","736.064095283","236","305607.73372","297874.26668","298640.922227","299407.629405","300173.789038","300940.813738","301707.604702","302474.247264","306374.103282","307141.24052","307907.803933","308657.71837","309423.75928","295573.842154","296340.539748","297107.617007","308666.81641","Mapping"
"Mixed","Female","ball","12","M_cave.wav","space","588.629599079","236","305607.73372","297874.26668","298640.922227","299407.629405","300173.789038","300940.813738","301707.604702","302474.247264","306374.103282","307141.24052","307907.803933","308657.71837","309423.75928","310190.645779","296340.539748","297107.617007","309433.154435","Mapping"
"Mixed","Female","ball","12","M_depth.wav","None","733.046874055","236","305607.73372","297874.26668","298640.922227","299407.629405","300173.789038","300940.813738","301707.604702","302474.247264","306374.103282","307141.24052","307907.803933","308657.71837","309423.75928","310190.645779","310957.375837","297107.617007","310200.33805","Mapping"
"Mixed","Female","ball","12","F_ball.wav","None","732.644948876","236","305607.73372","297874.26668","298640.922227","299407.629405","300173.789038","300940.813738","301707.604702","302474.247264","306374.103282","307141.24052","307907.803933","308657.71837","309423.75928","310190.645779","310957.375837","311723.68511","310966.767591","Mapping"
"Mixed","Female","ball","12","M_park.wav","None","732.674938743","236","305607.73372","312490.250378","298640.922227","299407.629405","300173.789038","300940.813738","301707.604702","302474.247264","306374.103282","307141.24052","307907.803933","308657.71837","309423.75928","310190.645779","310957.375837","311723.68511","311732.67803","Mapping"
"Mixed","Female","ball","12","F_ball.wav","space","122.345400276","236","305607.73372","312490.250378","313257.330728","299407.629405","300173.789038","300940.813738","301707.604702","302474.247264","306374.103282","307141.24052","307907.803933","308657.71837","309423.75928","310190.645779","310957.375837","311723.68511","312499.361403","Mapping"
"Mixed","Female","ball","12","F_reek.wav","space","530.96168628","236","305607.73372","312490.250378","313257.330728","314023.430691","300173.789038","300940.813738","301707.604702","302474.247264","306374.103282","307141.24052","307907.803933","308657.71837","309423.75928","310190.645779","310957.375837","311723.68511","313266.73114","Mapping"
"Mixed","Female","ball","12","F_greet.wav","None","728.571591899","236","305607.73372","312490.250378","313257.330728","314023.430691","314790.670575","300940.813738","301707.604702","302474.247264","306374.103282","307141.24052","307907.803933","308657.71837","309423.75928","310190.645779","310957.375837","311723.68511","314032.401351","Mapping"
"Mixed","Female","ball","12","F_ball.wav","None","727.09683585","236","305607.73372","312490.250378","313257.330728","314023.430691","314790.670575","315556.962225","301707.604702","302474.247264","306374.103282","307141.24052","307907.803933","308657.71837","309423.75928","310190.645779","310957.375837","311723.68511","314800.087991","Mapping"
"Mixed","Female","ball","12","M_gnash.wav","space","583.859056584","236","305607.73372","312490.250378","313257.330728","314023.430691","314790.670575","315556.962225","316323.419592","302474.247264","306374.103282","307141.24052","307907.803933","308657.71837","309423.75928","310190.645779","310957.375837","311723.68511","315565.80767","Mapping"
"Mixed","Female","ball","12","M_cave.wav","None","725.599819212","236","305607.73372","312490.250378","313257.330728","314023.430691","314790.670575","315556.962225","316323.419592","317091.031102","306374.103282","307141.24052","307907.803933","308657.71837","309423.75928","310190.645779","310957.375837","311723.68511","316332.270293","Mapping"
"Mixed","Male","tile","29","M_dime.wav","None","723.259996506","236","320224.432845","312490.250378","313257.330728","314023.430691","314790.670575","315556.962225","316323.419592","317091.031102","306374.103282","307141.24052","307907.803933","308657.71837","309423.75928","310190.645779","310957.375837","311723.68511","317100.722754","Mapping"
"Mixed","Male","tile","29","M_tile.wav","None","721.701145172","236","320224.432845","312490.250378","313257.330728","314023.430691","314790.670575","315556.962225","316323.419592","317091.031102","320990.328135","307141.24052","307907.803933","308657.71837","309423.75928","310190.645779","310957.375837","311723.68511","320233.883342","Mapping"
"Mixed","Male","tile","29","F_lash.wav","space","445.969355293","236","320224.432845","312490.250378","313257.330728","314023.430691","314790.670575","315556.962225","316323.419592","317091.031102","320990.328135","321757.076434","307907.803933","308657.71837","309423.75928","310190.645779","310957.375837","311723.68511","320999.507178","Mapping"
"Mixed","Male","tile","29","M_tile.wav","None","720.313885016","236","320224.432845","312490.250378","313257.330728","314023.430691","314790.670575","315556.962225","316323.419592","317091.031102","320990.328135","321757.076434","322523.669218","308657.71837","309423.75928","310190.645779","310957.375837","311723.68511","321766.523221","Mapping"
"Mixed","Male","tile","29","F_romp.wav","space","496.530612931","236","320224.432845","312490.250378","313257.330728","314023.430691","314790.670575","315556.962225","316323.419592","317091.031102","320990.328135","321757.076434","322523.669218","323273.527385","309423.75928","310190.645779","310957.375837","311723.68511","322532.981824","Mapping"
"Mixed","Male","tile","29","M_priest.wav","None","734.841315309","236","320224.432845","312490.250378","313257.330728","314023.430691","314790.670575","315556.962225","316323.419592","317091.031102","320990.328135","321757.076434","322523.669218","323273.527385","324040.255897","310190.645779","310957.375837","311723.68511","323283.100624","Mapping"
"Mixed","Male","tile","29","F_cave.wav","None","735.056809033","236","320224.432845","312490.250378","313257.330728","314023.430691","314790.670575","315556.962225","316323.419592","317091.031102","320990.328135","321757.076434","322523.669218","323273.527385","324040.255897","324806.744799","310957.375837","311723.68511","324049.903028","Mapping"
"Mixed","Male","tile","29","M_done.wav","None","735.490888124","236","320224.432845","312490.250378","313257.330728","314023.430691","314790.670575","315556.962225","316323.419592","317091.031102","320990.328135","321757.076434","322523.669218","323273.527385","324040.255897","324806.744799","325573.464344","311723.68511","324815.930644","Mapping"
"Mixed","Male","tile","29","M_tile.wav","None","734.909951803","236","320224.432845","312490.250378","313257.330728","314023.430691","314790.670575","315556.962225","316323.419592","317091.031102","320990.328135","321757.076434","322523.669218","323273.527385","324040.255897","324806.744799","325573.464344","326339.991894","325582.62762","Mapping"
"Mixed","Male","tile","29","F_lash.wav","space","582.021949464","236","320224.432845","327107.089558","313257.330728","314023.430691","314790.670575","315556.962225","316323.419592","317091.031102","320990.328135","321757.076434","322523.669218","323273.527385","324040.255897","324806.744799","325573.464344","326339.991894","326343.491116","Mapping"
"Mixed","Male","tile","29","M_dime.wav","None","732.141305692","236","320224.432845","327107.089558","327873.764583","314023.430691","314790.670575","315556.962225","316323.419592","317091.031102","320990.328135","321757.076434","322523.669218","323273.527385","324040.255897","324806.744799","325573.464344","326339.991894","327116.566026","Mapping"
"Mixed","Male","tile","29","F_cad.wav","None","731.894276454","236","320224.432845","327107.089558","327873.764583","328640.392613","314790.670575","315556.962225","316323.419592","317091.031102","320990.328135","321757.076434","322523.669218","323273.527385","324040.255897","324806.744799","325573.464344","326339.991894","327883.493336","Mapping"
"Mixed","Male","tile","29","F_gnash.wav","None","731.727631995","236","320224.432845","327107.089558","327873.764583","328640.392613","329407.092371","315556.962225","316323.419592","317091.031102","320990.328135","321757.076434","322523.669218","323273.527385","324040.255897","324806.744799","325573.464344","326339.991894","328649.90309","Mapping"
"Mixed","Male","tile","29","M_tile.wav","None","731.372392038","236","320224.432845","327107.089558","327873.764583","328640.392613","329407.092371","330173.668461","316323.419592","317091.031102","320990.328135","321757.076434","322523.669218","323273.527385","324040.255897","324806.744799","325573.464344","326339.991894","329416.51597","Mapping"
"Mixed","Male","tile","29","F_greet.wav","space","550.058696535","236","320224.432845","327107.089558","327873.764583","328640.392613","329407.092371","330173.668461","330940.325862","317091.031102","320990.328135","321757.076434","322523.669218","323273.527385","324040.255897","324806.744799","325573.464344","326339.991894","330183.282201","Mapping"
