"Condition","Talker","Target","Trial","current_stimulus","response_response","response_time_response","subject_nr","time_Audio1","time_Audio10","time_Audio11","time_Audio12","time_Audio13","time_Audio14","time_Audio15","time_Audio16","time_Audio2","time_Audio3","time_Audio4","time_Audio5","time_Audio6","time_Audio7","time_Audio8","time_Audio9","time_response","title"
"Mixed","Both","done","44","F_tile.wav","NA","NA","127","2005354.48408","NA","NA","NA","NA","NA","NA","NA","NA","NA","NA","NA","NA","NA","NA","NA","NA","Mapping"
"Mixed","Both","done","44","F_cave.wav","None","717.334073735","127","2005354.48408","NA","NA","NA","NA","NA","NA","NA","2006121.33502","NA","NA","NA","NA","NA","NA","NA","2005369.30028","Mapping"
"Mixed","Both","done","44","F_done.wav","None","718.622398446","127","2005354.48408","NA","NA","NA","NA","NA","NA","NA","2006121.33502","2006887.63997","NA","NA","NA","NA","NA","NA","2006133.17976","Mapping"
"Mixed","Both","done","44","M_cave.wav","space","702.499943669","127","2005354.48408","NA","NA","NA","NA","NA","NA","NA","2006121.33502","2006887.63997","2007637.11569","NA","NA","NA","NA","NA","2006897.9073","Mapping"
"Mixed","Both","done","44","F_park.wav","None","734.765877016","127","2005354.48408","NA","NA","NA","NA","NA","NA","NA","2006121.33502","2006887.63997","2007637.11569","2008403.99167","NA","NA","NA","NA","2007647.04107","Mapping"
"Mixed","Both","done","44","F_greet.wav","None","732.761198073","127","2005354.48408","NA","NA","NA","NA","NA","NA","NA","2006121.33502","2006887.63997","2007637.11569","2008403.99167","2009170.5016","NA","NA","NA","2008413.94427","Mapping"
"Mixed","Both","done","44","M_done.wav","None","731.723921956","127","2005354.48408","NA","NA","NA","NA","NA","NA","NA","2006121.33502","2006887.63997","2007637.11569","2008403.99167","2009170.5016","2009937.34822","NA","NA","2009180.17316","Mapping"
"Mixed","Both","done","44","M_ball.wav","space","437.282515923","127","2005354.48408","NA","NA","NA","NA","NA","NA","NA","2006121.33502","2006887.63997","2007637.11569","2008403.99167","2009170.5016","2009937.34822","2010703.96202","NA","2009947.0343","Mapping"
"Mixed","Both","done","44","F_reek.wav","None","728.294572793","127","2005354.48408","NA","NA","NA","NA","NA","NA","NA","2006121.33502","2006887.63997","2007637.11569","2008403.99167","2009170.5016","2009937.34822","2010703.96202","2011470.62314","2010713.85433","Mapping"
"Mixed","Both","done","44","M_priest.wav","None","727.379110991","127","2005354.48408","2012237.28177","NA","NA","NA","NA","NA","NA","2006121.33502","2006887.63997","2007637.11569","2008403.99167","2009170.5016","2009937.34822","2010703.96202","2011470.62314","2011480.35436","Mapping"
"Mixed","Both","done","44","M_dime.wav","None","725.593017414","127","2005354.48408","2012237.28177","2013003.91506","NA","NA","NA","NA","NA","2006121.33502","2006887.63997","2007637.11569","2008403.99167","2009170.5016","2009937.34822","2010703.96202","2011470.62314","2012247.27271","Mapping"
"Mixed","Both","done","44","M_done.wav","None","724.341484252","127","2005354.48408","2012237.28177","2013003.91506","2013771.04612","NA","NA","NA","NA","2006121.33502","2006887.63997","2007637.11569","2008403.99167","2009170.5016","2009937.34822","2010703.96202","2011470.62314","2013013.64567","Mapping"
"Mixed","Both","done","44","M_dime.wav","space","442.907303921","127","2005354.48408","2012237.28177","2013003.91506","2013771.04612","2014537.57212","NA","NA","NA","2006121.33502","2006887.63997","2007637.11569","2008403.99167","2009170.5016","2009937.34822","2010703.96202","2011470.62314","2013781.38981","Mapping"
"Mixed","Both","done","44","M_reek.wav","None","720.47898348","127","2005354.48408","2012237.28177","2013003.91506","2013771.04612","2014537.57212","2015303.6155","NA","NA","2006121.33502","2006887.63997","2007637.11569","2008403.99167","2009170.5016","2009937.34822","2010703.96202","2011470.62314","2014547.47123","Mapping"
"Mixed","Both","done","44","F_done.wav","None","719.877950847","127","2005354.48408","2012237.28177","2013003.91506","2013771.04612","2014537.57212","2015303.6155","2016053.32001","NA","2006121.33502","2006887.63997","2007637.11569","2008403.99167","2009170.5016","2009937.34822","2010703.96202","2011470.62314","2015313.26016","Mapping"
"Mixed","Both","done","44","F_tile.wav","space","513.950667693","127","2005354.48408","2012237.28177","2013003.91506","2013771.04612","2014537.57212","2015303.6155","2016053.32001","2016820.00895","2006121.33502","2006887.63997","2007637.11569","2008403.99167","2009170.5016","2009937.34822","2010703.96202","2011470.62314","2016062.28232","Mapping"
"Mixed","Both","cave","23","F_tile.wav","None","733.211663435","127","2020004.19641","2012237.28177","2013003.91506","2013771.04612","2014537.57212","2015303.6155","2016053.32001","2016820.00895","2006121.33502","2006887.63997","2007637.11569","2008403.99167","2009170.5016","2009937.34822","2010703.96202","2011470.62314","2016830.07717","Mapping"
"Mixed","Both","cave","23","M_gnash.wav","None","720.710863359","127","2020004.19641","2012237.28177","2013003.91506","2013771.04612","2014537.57212","2015303.6155","2016053.32001","2016820.00895","2020770.82784","2006887.63997","2007637.11569","2008403.99167","2009170.5016","2009937.34822","2010703.96202","2011470.62314","2020014.29215","Mapping"
"Mixed","Both","cave","23","F_gnash.wav","None","719.934838591","127","2020004.19641","2012237.28177","2013003.91506","2013771.04612","2014537.57212","2015303.6155","2016053.32001","2016820.00895","2020770.82784","2021520.64118","2007637.11569","2008403.99167","2009170.5016","2009937.34822","2010703.96202","2011470.62314","2020780.66264","Mapping"
"Mixed","Both","cave","23","M_cave.wav","None","736.117273103","127","2020004.19641","2012237.28177","2013003.91506","2013771.04612","2014537.57212","2015303.6155","2016053.32001","2016820.00895","2020770.82784","2021520.64118","2022287.10163","2008403.99167","2009170.5016","2009937.34822","2010703.96202","2011470.62314","2021529.74571","Mapping"
"Mixed","Both","cave","23","F_done.wav","space","439.598532394","127","2020004.19641","2012237.28177","2013003.91506","2013771.04612","2014537.57212","2015303.6155","2016053.32001","2016820.00895","2020770.82784","2021520.64118","2022287.10163","2023053.42389","2009170.5016","2009937.34822","2010703.96202","2011470.62314","2022296.52771","Mapping"
"Mixed","Both","cave","23","M_cave.wav","None","733.039144776","127","2020004.19641","2012237.28177","2013003.91506","2013771.04612","2014537.57212","2015303.6155","2016053.32001","2016820.00895","2020770.82784","2021520.64118","2022287.10163","2023053.42389","2023820.40067","2009937.34822","2010703.96202","2011470.62314","2023063.02094","Mapping"
"Mixed","Both","cave","23","M_reek.wav","space","530.005104374","127","2020004.19641","2012237.28177","2013003.91506","2013771.04612","2014537.57212","2015303.6155","2016053.32001","2016820.00895","2020770.82784","2021520.64118","2022287.10163","2023053.42389","2023820.40067","2024587.03519","2010703.96202","2011470.62314","2023830.1084","Mapping"
"Mixed","Both","cave","23","M_done.wav","None","729.725735611","127","2020004.19641","2012237.28177","2013003.91506","2013771.04612","2014537.57212","2015303.6155","2016053.32001","2016820.00895","2020770.82784","2021520.64118","2022287.10163","2023053.42389","2023820.40067","2024587.03519","2025353.68301","2011470.62314","2024596.43251","Mapping"
"Mixed","Both","cave","23","M_lash.wav","space","636.175490334","127","2020004.19641","2012237.28177","2013003.91506","2013771.04612","2014537.57212","2015303.6155","2016053.32001","2016820.00895","2020770.82784","2021520.64118","2022287.10163","2023053.42389","2023820.40067","2024587.03519","2025353.68301","2026120.47397","2025363.90211","Mapping"
"Mixed","Both","cave","23","F_ball.wav","None","726.297932328","127","2020004.19641","2026887.01296","2013003.91506","2013771.04612","2014537.57212","2015303.6155","2016053.32001","2016820.00895","2020770.82784","2021520.64118","2022287.10163","2023053.42389","2023820.40067","2024587.03519","2025353.68301","2026120.47397","2026129.99806","Mapping"
"Mixed","Both","cave","23","F_jolt.wav","None","724.747119471","127","2020004.19641","2026887.01296","2027654.03921","2013771.04612","2014537.57212","2015303.6155","2016053.32001","2016820.00895","2020770.82784","2021520.64118","2022287.10163","2023053.42389","2023820.40067","2024587.03519","2025353.68301","2026120.47397","2026896.66257","Mapping"
"Mixed","Both","cave","23","F_jolt.wav","None","721.003959537","127","2020004.19641","2026887.01296","2027654.03921","2028420.10609","2014537.57212","2015303.6155","2016053.32001","2016820.00895","2020770.82784","2021520.64118","2022287.10163","2023053.42389","2023820.40067","2024587.03519","2025353.68301","2026120.47397","2027665.54385","Mapping"
"Mixed","Both","cave","23","F_cave.wav","None","721.922513098","127","2020004.19641","2026887.01296","2027654.03921","2028420.10609","2029186.74154","2015303.6155","2016053.32001","2016820.00895","2020770.82784","2021520.64118","2022287.10163","2023053.42389","2023820.40067","2024587.03519","2025353.68301","2026120.47397","2028429.81413","Mapping"
"Mixed","Both","cave","23","M_lash.wav","space","548.03794052","127","2020004.19641","2026887.01296","2027654.03921","2028420.10609","2029186.74154","2029954.03337","2016053.32001","2016820.00895","2020770.82784","2021520.64118","2022287.10163","2023053.42389","2023820.40067","2024587.03519","2025353.68301","2026120.47397","2029195.94006","Mapping"
"Mixed","Both","cave","23","F_cave.wav","None","718.517897883","127","2020004.19641","2026887.01296","2027654.03921","2028420.10609","2029186.74154","2029954.03337","2030703.52423","2016820.00895","2020770.82784","2021520.64118","2022287.10163","2023053.42389","2023820.40067","2024587.03519","2025353.68301","2026120.47397","2029963.95721","Mapping"
"Mixed","Both","cave","23","M_jaw.wav","space","606.605856447","127","2020004.19641","2026887.01296","2027654.03921","2028420.10609","2029186.74154","2029954.03337","2030703.52423","2031470.25738","2020770.82784","2021520.64118","2022287.10163","2023053.42389","2023820.40067","2024587.03519","2025353.68301","2026120.47397","2030713.39212","Mapping"
"Mixed","Both","done","37","F_jaw.wav","None","733.349863789","127","2034603.90863","2026887.01296","2027654.03921","2028420.10609","2029186.74154","2029954.03337","2030703.52423","2031470.25738","2020770.82784","2021520.64118","2022287.10163","2023053.42389","2023820.40067","2024587.03519","2025353.68301","2026120.47397","2031479.98459","Mapping"
"Mixed","Both","done","37","F_done.wav","None","720.665414934","127","2034603.90863","2026887.01296","2027654.03921","2028420.10609","2029186.74154","2029954.03337","2030703.52423","2031470.25738","2035369.95727","2021520.64118","2022287.10163","2023053.42389","2023820.40067","2024587.03519","2025353.68301","2026120.47397","2034614.2143","Mapping"
"Mixed","Both","done","37","M_bluff.wav","space","556.498774327","127","2034603.90863","2026887.01296","2027654.03921","2028420.10609","2029186.74154","2029954.03337","2030703.52423","2031470.25738","2035369.95727","2036120.03773","2022287.10163","2023053.42389","2023820.40067","2024587.03519","2025353.68301","2026120.47397","2035379.40591","Mapping"
"Mixed","Both","done","37","M_dime.wav","None","735.318369581","127","2034603.90863","2026887.01296","2027654.03921","2028420.10609","2029186.74154","2029954.03337","2030703.52423","2031470.25738","2035369.95727","2036120.03773","2036886.49293","2023053.42389","2023820.40067","2024587.03519","2025353.68301","2026120.47397","2036129.77267","Mapping"
"Mixed","Both","done","37","M_romp.wav","None","734.426714131","127","2034603.90863","2026887.01296","2027654.03921","2028420.10609","2029186.74154","2029954.03337","2030703.52423","2031470.25738","2035369.95727","2036120.03773","2036886.49293","2037653.46724","2023820.40067","2024587.03519","2025353.68301","2026120.47397","2036895.97126","Mapping"
"Mixed","Both","done","37","F_jaw.wav","None","735.815520049","127","2034603.90863","2026887.01296","2027654.03921","2028420.10609","2029186.74154","2029954.03337","2030703.52423","2031470.25738","2035369.95727","2036120.03773","2036886.49293","2037653.46724","2038420.03591","2024587.03519","2025353.68301","2026120.47397","2037659.92772","Mapping"
"Mixed","Both","done","37","M_done.wav","None","731.149478117","127","2034603.90863","2026887.01296","2027654.03921","2028420.10609","2029186.74154","2029954.03337","2030703.52423","2031470.25738","2035369.95727","2036120.03773","2036886.49293","2037653.46724","2038420.03591","2039186.83429","2025353.68301","2026120.47397","2038429.7526","Mapping"
"Mixed","Both","done","37","M_romp.wav","space","643.625327852","127","2034603.90863","2026887.01296","2027654.03921","2028420.10609","2029186.74154","2029954.03337","2030703.52423","2031470.25738","2035369.95727","2036120.03773","2036886.49293","2037653.46724","2038420.03591","2039186.83429","2039953.41873","2026120.47397","2039196.17843","Mapping"
"Mixed","Both","done","37","M_done.wav","None","726.738813217","127","2034603.90863","2026887.01296","2027654.03921","2028420.10609","2029186.74154","2029954.03337","2030703.52423","2031470.25738","2035369.95727","2036120.03773","2036886.49293","2037653.46724","2038420.03591","2039186.83429","2039953.41873","2040720.07273","2039964.82289","Mapping"
"Mixed","Both","done","37","F_reek.wav","space","621.973310364","127","2034603.90863","2041486.84669","2027654.03921","2028420.10609","2029186.74154","2029954.03337","2030703.52423","2031470.25738","2035369.95727","2036120.03773","2036886.49293","2037653.46724","2038420.03591","2039186.83429","2039953.41873","2040720.07273","2040729.82931","Mapping"
"Mixed","Both","done","37","F_cling.wav","None","725.371649372","127","2034603.90863","2041486.84669","2042253.77709","2028420.10609","2029186.74154","2029954.03337","2030703.52423","2031470.25738","2035369.95727","2036120.03773","2036886.49293","2037653.46724","2038420.03591","2039186.83429","2039953.41873","2040720.07273","2041496.56524","Mapping"
"Mixed","Both","done","37","F_done.wav","None","722.980194609","127","2034603.90863","2041486.84669","2042253.77709","2043020.39461","2029186.74154","2029954.03337","2030703.52423","2031470.25738","2035369.95727","2036120.03773","2036886.49293","2037653.46724","2038420.03591","2039186.83429","2039953.41873","2040720.07273","2042264.16253","Mapping"
"Mixed","Both","done","37","F_gnash.wav","space","505.088527105","127","2034603.90863","2041486.84669","2042253.77709","2043020.39461","2043787.16146","2029954.03337","2030703.52423","2031470.25738","2035369.95727","2036120.03773","2036886.49293","2037653.46724","2038420.03591","2039186.83429","2039953.41873","2040720.07273","2043030.67864","Mapping"
"Mixed","Both","done","37","M_knife.wav","None","720.492896275","127","2034603.90863","2041486.84669","2042253.77709","2043020.39461","2043787.16146","2044553.62656","2030703.52423","2031470.25738","2035369.95727","2036120.03773","2036886.49293","2037653.46724","2038420.03591","2039186.83429","2039953.41873","2040720.07273","2043797.15548","Mapping"
"Mixed","Both","done","37","M_depth.wav","None","719.506633701","127","2034603.90863","2041486.84669","2042253.77709","2043020.39461","2043787.16146","2044553.62656","2045303.19874","2031470.25738","2035369.95727","2036120.03773","2036886.49293","2037653.46724","2038420.03591","2039186.83429","2039953.41873","2040720.07273","2044563.48485","Mapping"
"Mixed","Both","done","37","F_depth.wav","None","735.076286946","127","2034603.90863","2041486.84669","2042253.77709","2043020.39461","2043787.16146","2044553.62656","2045303.19874","2046069.40753","2035369.95727","2036120.03773","2036886.49293","2037653.46724","2038420.03591","2039186.83429","2039953.41873","2040720.07273","2045313.27778","Mapping"
"Mixed","Both","cave","24","F_lash.wav","None","735.035476158","127","2049203.61343","2041486.84669","2042253.77709","2043020.39461","2043787.16146","2044553.62656","2045303.19874","2046069.40753","2035369.95727","2036120.03773","2036886.49293","2037653.46724","2038420.03591","2039186.83429","2039953.41873","2040720.07273","2046078.72044","Mapping"
"Mixed","Both","cave","24","F_tile.wav","None","721.092073945","127","2049203.61343","2041486.84669","2042253.77709","2043020.39461","2043787.16146","2044553.62656","2045303.19874","2046069.40753","2049969.6429","2036120.03773","2036886.49293","2037653.46724","2038420.03591","2039186.83429","2039953.41873","2040720.07273","2049213.51718","Mapping"
"Mixed","Both","cave","24","F_cave.wav","None","721.452260739","127","2049203.61343","2041486.84669","2042253.77709","2043020.39461","2043787.16146","2044553.62656","2045303.19874","2046069.40753","2049969.6429","2050737.07262","2036886.49293","2037653.46724","2038420.03591","2039186.83429","2039953.41873","2040720.07273","2049978.71002","Mapping"
"Mixed","Both","cave","24","F_jaw.wav","space","476.597289206","127","2049203.61343","2041486.84669","2042253.77709","2043020.39461","2043787.16146","2044553.62656","2045303.19874","2046069.40753","2049969.6429","2050737.07262","2051486.4559","2037653.46724","2038420.03591","2039186.83429","2039953.41873","2040720.07273","2050747.04376","Mapping"
"Mixed","Both","cave","24","F_greet.wav","None","734.540798934","127","2049203.61343","2041486.84669","2042253.77709","2043020.39461","2043787.16146","2044553.62656","2045303.19874","2046069.40753","2049969.6429","2050737.07262","2051486.4559","2052252.79701","2038420.03591","2039186.83429","2039953.41873","2040720.07273","2051495.82168","Mapping"
"Mixed","Both","cave","24","M_depth.wav","None","733.249382582","127","2049203.61343","2041486.84669","2042253.77709","2043020.39461","2043787.16146","2044553.62656","2045303.19874","2046069.40753","2049969.6429","2050737.07262","2051486.4559","2052252.79701","2053019.79203","2039186.83429","2039953.41873","2040720.07273","2052262.56627","Mapping"
"Mixed","Both","cave","24","M_cave.wav","None","731.447211932","127","2049203.61343","2041486.84669","2042253.77709","2043020.39461","2043787.16146","2044553.62656","2045303.19874","2046069.40753","2049969.6429","2050737.07262","2051486.4559","2052252.79701","2053019.79203","2053786.22621","2039953.41873","2040720.07273","2053029.55387","Mapping"
"Mixed","Both","cave","24","M_ball.wav","space","443.88460042","127","2049203.61343","2041486.84669","2042253.77709","2043020.39461","2043787.16146","2044553.62656","2045303.19874","2046069.40753","2049969.6429","2050737.07262","2051486.4559","2052252.79701","2053019.79203","2053786.22621","2054553.15599","2040720.07273","2053795.64765","Mapping"
"Mixed","Both","cave","24","M_jaw.wav","None","728.052180959","127","2049203.61343","2041486.84669","2042253.77709","2043020.39461","2043787.16146","2044553.62656","2045303.19874","2046069.40753","2049969.6429","2050737.07262","2051486.4559","2052252.79701","2053019.79203","2053786.22621","2054553.15599","2055319.75496","2054563.19856","Mapping"
"Mixed","Both","cave","24","M_cave.wav","None","727.167018107","127","2049203.61343","2056086.43091","2042253.77709","2043020.39461","2043787.16146","2044553.62656","2045303.19874","2046069.40753","2049969.6429","2050737.07262","2051486.4559","2052252.79701","2053019.79203","2053786.22621","2054553.15599","2055319.75496","2055329.47815","Mapping"
"Mixed","Both","cave","24","F_tile.wav","space","447.441638215","127","2049203.61343","2056086.43091","2056853.42346","2043020.39461","2043787.16146","2044553.62656","2045303.19874","2046069.40753","2049969.6429","2050737.07262","2051486.4559","2052252.79701","2053019.79203","2053786.22621","2054553.15599","2055319.75496","2056096.10185","Mapping"
"Mixed","Both","cave","24","F_cave.wav","None","722.443470033","127","2049203.61343","2056086.43091","2056853.42346","2057619.59299","2043787.16146","2044553.62656","2045303.19874","2046069.40753","2049969.6429","2050737.07262","2051486.4559","2052252.79701","2053019.79203","2053786.22621","2054553.15599","2055319.75496","2056864.38056","Mapping"
"Mixed","Both","cave","24","M_reek.wav","space","562.405528268","127","2049203.61343","2056086.43091","2056853.42346","2057619.59299","2058386.87863","2044553.62656","2045303.19874","2046069.40753","2049969.6429","2050737.07262","2051486.4559","2052252.79701","2053019.79203","2053786.22621","2054553.15599","2055319.75496","2057629.08244","Mapping"
"Mixed","Both","cave","24","M_done.wav","None","719.862492057","127","2049203.61343","2056086.43091","2056853.42346","2057619.59299","2058386.87863","2059153.56602","2045303.19874","2046069.40753","2049969.6429","2050737.07262","2051486.4559","2052252.79701","2053019.79203","2053786.22621","2054553.15599","2055319.75496","2058397.16884","Mapping"
"Mixed","Both","cave","24","F_gnash.wav","None","719.115529675","127","2049203.61343","2056086.43091","2056853.42346","2057619.59299","2058386.87863","2059153.56602","2059902.89426","2046069.40753","2049969.6429","2050737.07262","2051486.4559","2052252.79701","2053019.79203","2053786.22621","2054553.15599","2055319.75496","2059163.51985","Mapping"
"Mixed","Both","cave","24","M_reek.wav","None","735.634653713","127","2049203.61343","2056086.43091","2056853.42346","2057619.59299","2058386.87863","2059153.56602","2059902.89426","2060669.45829","2049969.6429","2050737.07262","2051486.4559","2052252.79701","2053019.79203","2053786.22621","2054553.15599","2055319.75496","2059912.38372","Mapping"
"Mixed","Both","done","43","F_jolt.wav","None","734.234408243","127","2063803.30432","2056086.43091","2056853.42346","2057619.59299","2058386.87863","2059153.56602","2059902.89426","2060669.45829","2049969.6429","2050737.07262","2051486.4559","2052252.79701","2053019.79203","2053786.22621","2054553.15599","2055319.75496","2060679.35709","Mapping"
"Mixed","Both","done","43","F_done.wav","None","721.047553001","127","2063803.30432","2056086.43091","2056853.42346","2057619.59299","2058386.87863","2059153.56602","2059902.89426","2060669.45829","2064569.31864","2050737.07262","2051486.4559","2052252.79701","2053019.79203","2053786.22621","2054553.15599","2055319.75496","2063813.35461","Mapping"
"Mixed","Both","done","43","M_cling.wav","space","548.981537111","127","2063803.30432","2056086.43091","2056853.42346","2057619.59299","2058386.87863","2059153.56602","2059902.89426","2060669.45829","2064569.31864","2065319.06427","2051486.4559","2052252.79701","2053019.79203","2053786.22621","2054553.15599","2055319.75496","2064578.39813","Mapping"
"Mixed","Both","done","43","F_bluff.wav","None","736.316689756","127","2063803.30432","2056086.43091","2056853.42346","2057619.59299","2058386.87863","2059153.56602","2059902.89426","2060669.45829","2064569.31864","2065319.06427","2066086.07475","2052252.79701","2053019.79203","2053786.22621","2054553.15599","2055319.75496","2065328.47365","Mapping"
"Mixed","Both","done","43","M_dime.wav","None","734.231934883","127","2063803.30432","2056086.43091","2056853.42346","2057619.59299","2058386.87863","2059153.56602","2059902.89426","2060669.45829","2064569.31864","2065319.06427","2066086.07475","2066852.60631","2053019.79203","2053786.22621","2054553.15599","2055319.75496","2066096.07835","Mapping"
"Mixed","Both","done","43","F_priest.wav","None","735.518095433","127","2063803.30432","2056086.43091","2056853.42346","2057619.59299","2058386.87863","2059153.56602","2059902.89426","2060669.45829","2064569.31864","2065319.06427","2066086.07475","2066852.60631","2067619.25815","2053786.22621","2054553.15599","2055319.75496","2066861.743","Mapping"
"Mixed","Both","done","43","M_jolt.wav","None","734.546673251","127","2063803.30432","2056086.43091","2056853.42346","2057619.59299","2058386.87863","2059153.56602","2059902.89426","2060669.45829","2064569.31864","2065319.06427","2066086.07475","2066852.60631","2067619.25815","2068385.81229","2054553.15599","2055319.75496","2067628.09679","Mapping"
"Mixed","Both","done","43","F_done.wav","None","732.940827613","127","2063803.30432","2056086.43091","2056853.42346","2057619.59299","2058386.87863","2059153.56602","2059902.89426","2060669.45829","2064569.31864","2065319.06427","2066086.07475","2066852.60631","2067619.25815","2068385.81229","2069152.89573","2055319.75496","2068395.2362","Mapping"
"Mixed","Both","done","43","F_bluff.wav","space","316.243063309","127","2063803.30432","2056086.43091","2056853.42346","2057619.59299","2058386.87863","2059153.56602","2059902.89426","2060669.45829","2064569.31864","2065319.06427","2066086.07475","2066852.60631","2067619.25815","2068385.81229","2069152.89573","2069919.50428","2069163.06567","Mapping"
"Mixed","Both","done","43","M_depth.wav","None","729.641022161","127","2063803.30432","2070686.28721","2056853.42346","2057619.59299","2058386.87863","2059153.56602","2059902.89426","2060669.45829","2064569.31864","2065319.06427","2066086.07475","2066852.60631","2067619.25815","2068385.81229","2069152.89573","2069919.50428","2069929.00023","Mapping"
"Mixed","Both","done","43","M_done.wav","None","727.96684911","127","2063803.30432","2070686.28721","2071453.27666","2057619.59299","2058386.87863","2059153.56602","2059902.89426","2060669.45829","2064569.31864","2065319.06427","2066086.07475","2066852.60631","2067619.25815","2068385.81229","2069152.89573","2069919.50428","2070695.98226","Mapping"
"Mixed","Both","done","43","F_park.wav","space","616.652748664","127","2063803.30432","2070686.28721","2071453.27666","2072219.49102","2058386.87863","2059153.56602","2059902.89426","2060669.45829","2064569.31864","2065319.06427","2066086.07475","2066852.60631","2067619.25815","2068385.81229","2069152.89573","2069919.50428","2071462.59607","Mapping"
"Mixed","Both","done","43","M_cad.wav","None","725.726271048","127","2063803.30432","2070686.28721","2071453.27666","2072219.49102","2072986.15399","2059153.56602","2059902.89426","2060669.45829","2064569.31864","2065319.06427","2066086.07475","2066852.60631","2067619.25815","2068385.81229","2069152.89573","2069919.50428","2072228.84784","Mapping"
"Mixed","Both","done","43","M_gnash.wav","None","723.979442497","127","2063803.30432","2070686.28721","2071453.27666","2072219.49102","2072986.15399","2073752.56189","2059902.89426","2060669.45829","2064569.31864","2065319.06427","2066086.07475","2066852.60631","2067619.25815","2068385.81229","2069152.89573","2069919.50428","2072996.04815","Mapping"
"Mixed","Both","done","43","M_done.wav","None","723.48198283","127","2063803.30432","2070686.28721","2071453.27666","2072219.49102","2072986.15399","2073752.56189","2074519.79682","2060669.45829","2064569.31864","2065319.06427","2066086.07475","2066852.60631","2067619.25815","2068385.81229","2069152.89573","2069919.50428","2073762.09493","Mapping"
"Mixed","Both","done","43","F_reek.wav","space","541.455333936","127","2063803.30432","2070686.28721","2071453.27666","2072219.49102","2072986.15399","2073752.56189","2074519.79682","2075286.71269","2064569.31864","2065319.06427","2066086.07475","2066852.60631","2067619.25815","2068385.81229","2069152.89573","2069919.50428","2074529.75962","Mapping"
"Mixed","Both","cave","13","M_bluff.wav","None","719.363486511","127","2078403.25831","2070686.28721","2071453.27666","2072219.49102","2072986.15399","2073752.56189","2074519.79682","2075286.71269","2064569.31864","2065319.06427","2066086.07475","2066852.60631","2067619.25815","2068385.81229","2069152.89573","2069919.50428","2075296.73578","Mapping"
"Mixed","Both","cave","13","F_cave.wav","None","720.747964224","127","2078403.25831","2070686.28721","2071453.27666","2072219.49102","2072986.15399","2073752.56189","2074519.79682","2075286.71269","2079169.31159","2065319.06427","2066086.07475","2066852.60631","2067619.25815","2068385.81229","2069152.89573","2069919.50428","2078413.31757","Mapping"
"Mixed","Both","cave","13","M_jaw.wav","space","452.430765959","127","2078403.25831","2070686.28721","2071453.27666","2072219.49102","2072986.15399","2073752.56189","2074519.79682","2075286.71269","2079169.31159","2079936.38576","2066086.07475","2066852.60631","2067619.25815","2068385.81229","2069152.89573","2069919.50428","2079178.67892","Mapping"
"Mixed","Both","cave","13","M_cad.wav","None","719.21075508","127","2078403.25831","2070686.28721","2071453.27666","2072219.49102","2072986.15399","2073752.56189","2074519.79682","2075286.71269","2079169.31159","2079936.38576","2080686.20312","2066852.60631","2067619.25815","2068385.81229","2069152.89573","2069919.50428","2079946.29538","Mapping"
"Mixed","Both","cave","13","M_jaw.wav","None","735.352687771","127","2078403.25831","2070686.28721","2071453.27666","2072219.49102","2072986.15399","2073752.56189","2074519.79682","2075286.71269","2079169.31159","2079936.38576","2080686.20312","2081452.51332","2067619.25815","2068385.81229","2069152.89573","2069919.50428","2080695.98566","Mapping"
"Mixed","Both","cave","13","F_depth.wav","None","734.231625684","127","2078403.25831","2070686.28721","2071453.27666","2072219.49102","2072986.15399","2073752.56189","2074519.79682","2075286.71269","2079169.31159","2079936.38576","2080686.20312","2081452.51332","2082219.16948","2068385.81229","2069152.89573","2069919.50428","2081462.64307","Mapping"
"Mixed","Both","cave","13","M_cave.wav","None","733.411389287","127","2078403.25831","2070686.28721","2071453.27666","2072219.49102","2072986.15399","2073752.56189","2074519.79682","2075286.71269","2079169.31159","2079936.38576","2080686.20312","2081452.51332","2082219.16948","2082985.57707","2069152.89573","2069919.50428","2082229.12053","Mapping"
"Mixed","Both","cave","13","F_tile.wav","space","500.321076368","127","2078403.25831","2070686.28721","2071453.27666","2072219.49102","2072986.15399","2073752.56189","2074519.79682","2075286.71269","2079169.31159","2079936.38576","2080686.20312","2081452.51332","2082219.16948","2082985.57707","2083752.23045","2069919.50428","2082994.70634","Mapping"
"Mixed","Both","cave","13","F_knife.wav","None","731.882837019","127","2078403.25831","2070686.28721","2071453.27666","2072219.49102","2072986.15399","2073752.56189","2074519.79682","2075286.71269","2079169.31159","2079936.38576","2080686.20312","2081452.51332","2082219.16948","2082985.57707","2083752.23045","2084518.77253","2083761.22647","Mapping"
"Mixed","Both","cave","13","F_romp.wav","None","730.514745461","127","2078403.25831","2085285.50414","2071453.27666","2072219.49102","2072986.15399","2073752.56189","2074519.79682","2075286.71269","2079169.31159","2079936.38576","2080686.20312","2081452.51332","2082219.16948","2082985.57707","2083752.23045","2084518.77253","2084528.01774","Mapping"
"Mixed","Both","cave","13","F_cave.wav","None","729.128722101","127","2078403.25831","2085285.50414","2086052.19617","2072219.49102","2072986.15399","2073752.56189","2074519.79682","2075286.71269","2079169.31159","2079936.38576","2080686.20312","2081452.51332","2082219.16948","2082985.57707","2083752.23045","2084518.77253","2085295.00317","Mapping"
"Mixed","Both","cave","13","M_dime.wav","space","537.26170864","127","2078403.25831","2085285.50414","2086052.19617","2086818.94446","2072986.15399","2073752.56189","2074519.79682","2075286.71269","2079169.31159","2079936.38576","2080686.20312","2081452.51332","2082219.16948","2082985.57707","2083752.23045","2084518.77253","2086061.73292","Mapping"
"Mixed","Both","cave","13","F_cad.wav","None","726.215383038","127","2078403.25831","2085285.50414","2086052.19617","2086818.94446","2087585.93206","2073752.56189","2074519.79682","2075286.71269","2079169.31159","2079936.38576","2080686.20312","2081452.51332","2082219.16948","2082985.57707","2083752.23045","2084518.77253","2086828.38878","Mapping"
"Mixed","Both","cave","13","F_lash.wav","None","724.874807987","127","2078403.25831","2085285.50414","2086052.19617","2086818.94446","2087585.93206","2088352.3109","2074519.79682","2075286.71269","2079169.31159","2079936.38576","2080686.20312","2081452.51332","2082219.16948","2082985.57707","2083752.23045","2084518.77253","2087595.37669","Mapping"
"Mixed","Both","cave","13","M_cave.wav","None","723.704587552","127","2078403.25831","2085285.50414","2086052.19617","2086818.94446","2087585.93206","2088352.3109","2089119.87851","2075286.71269","2079169.31159","2079936.38576","2080686.20312","2081452.51332","2082219.16948","2082985.57707","2083752.23045","2084518.77253","2088361.96329","Mapping"
"Mixed","Both","cave","13","M_done.wav","space","429.381903959","127","2078403.25831","2085285.50414","2086052.19617","2086818.94446","2087585.93206","2088352.3109","2089119.87851","2089886.19644","2079169.31159","2079936.38576","2080686.20312","2081452.51332","2082219.16948","2082985.57707","2083752.23045","2084518.77253","2089129.56243","Mapping"
"Mixed","Both","ball","10","F_park.wav","None","719.789836439","127","2093002.83543","2085285.50414","2086052.19617","2086818.94446","2087585.93206","2088352.3109","2089119.87851","2089886.19644","2079169.31159","2079936.38576","2080686.20312","2081452.51332","2082219.16948","2082985.57707","2083752.23045","2084518.77253","2089896.51757","Mapping"
"Mixed","Both","ball","10","F_ball.wav","None","720.307701617","127","2093002.83543","2085285.50414","2086052.19617","2086818.94446","2087585.93206","2088352.3109","2089119.87851","2089886.19644","2093768.98053","2079936.38576","2080686.20312","2081452.51332","2082219.16948","2082985.57707","2083752.23045","2084518.77253","2093013.69359","Mapping"
"Mixed","Both","ball","10","M_park.wav","space","420.221720473","127","2093002.83543","2085285.50414","2086052.19617","2086818.94446","2087585.93206","2088352.3109","2089119.87851","2089886.19644","2093768.98053","2094535.57486","2080686.20312","2081452.51332","2082219.16948","2082985.57707","2083752.23045","2084518.77253","2093778.63694","Mapping"
"Mixed","Both","ball","10","M_dime.wav","None","719.740368659","127","2093002.83543","2085285.50414","2086052.19617","2086818.94446","2087585.93206","2088352.3109","2089119.87851","2089886.19644","2093768.98053","2094535.57486","2095285.15106","2081452.51332","2082219.16948","2082985.57707","2083752.23045","2084518.77253","2094545.14563","Mapping"
"Mixed","Both","ball","10","M_bluff.wav","None","736.031322973","127","2093002.83543","2085285.50414","2086052.19617","2086818.94446","2087585.93206","2088352.3109","2089119.87851","2089886.19644","2093768.98053","2094535.57486","2095285.15106","2096051.99551","2082219.16948","2082985.57707","2083752.23045","2084518.77253","2095294.56879","Mapping"
"Mixed","Both","ball","10","M_ball.wav","None","734.730940545","127","2093002.83543","2085285.50414","2086052.19617","2086818.94446","2087585.93206","2088352.3109","2089119.87851","2089886.19644","2093768.98053","2094535.57486","2095285.15106","2096051.99551","2096818.57593","2082985.57707","2083752.23045","2084518.77253","2096061.48373","Mapping"
"Mixed","Both","ball","10","F_tile.wav","space","482.915861881","127","2093002.83543","2085285.50414","2086052.19617","2086818.94446","2087585.93206","2088352.3109","2089119.87851","2089886.19644","2093768.98053","2094535.57486","2095285.15106","2096051.99551","2096818.57593","2097585.31186","2083752.23045","2084518.77253","2096827.90121","Mapping"
"Mixed","Both","ball","10","F_ball.wav","None","733.057386009","127","2093002.83543","2085285.50414","2086052.19617","2086818.94446","2087585.93206","2088352.3109","2089119.87851","2089886.19644","2093768.98053","2094535.57486","2095285.15106","2096051.99551","2096818.57593","2097585.31186","2098351.66318","2084518.77253","2097594.23893","Mapping"
"Mixed","Both","ball","10","F_dime.wav","None","733.869893127","127","2093002.83543","2085285.50414","2086052.19617","2086818.94446","2087585.93206","2088352.3109","2089119.87851","2089886.19644","2093768.98053","2094535.57486","2095285.15106","2096051.99551","2096818.57593","2097585.31186","2098351.66318","2099118.61306","2098360.70712","Mapping"
"Mixed","Both","ball","10","M_ball.wav","None","732.638456277","127","2093002.83543","2099885.34095","2086052.19617","2086818.94446","2087585.93206","2088352.3109","2089119.87851","2089886.19644","2093768.98053","2094535.57486","2095285.15106","2096051.99551","2096818.57593","2097585.31186","2098351.66318","2099118.61306","2099127.75902","Mapping"
"Mixed","Both","ball","10","M_jaw.wav","space","511.940114317","127","2093002.83543","2099885.34095","2100651.86232","2086818.94446","2087585.93206","2088352.3109","2089119.87851","2089886.19644","2093768.98053","2094535.57486","2095285.15106","2096051.99551","2096818.57593","2097585.31186","2098351.66318","2099118.61306","2099894.79733","Mapping"
"Mixed","Both","ball","10","F_bluff.wav","None","730.215156684","127","2093002.83543","2099885.34095","2100651.86232","2101418.60474","2087585.93206","2088352.3109","2089119.87851","2089886.19644","2093768.98053","2094535.57486","2095285.15106","2096051.99551","2096818.57593","2097585.31186","2098351.66318","2099118.61306","2100660.80948","Mapping"
"Mixed","Both","ball","10","M_tile.wav","None","728.770390269","127","2093002.83543","2099885.34095","2100651.86232","2101418.60474","2102185.67335","2088352.3109","2089119.87851","2089886.19644","2093768.98053","2094535.57486","2095285.15106","2096051.99551","2096818.57593","2097585.31186","2098351.66318","2099118.61306","2101428.04071","Mapping"
"Mixed","Both","ball","10","M_cad.wav","None","727.146921912","127","2093002.83543","2099885.34095","2100651.86232","2101418.60474","2102185.67335","2102952.31931","2089119.87851","2089886.19644","2093768.98053","2094535.57486","2095285.15106","2096051.99551","2096818.57593","2097585.31186","2098351.66318","2099118.61306","2102195.2976","Mapping"
"Mixed","Both","ball","10","F_knife.wav","None","726.206107764","127","2093002.83543","2099885.34095","2100651.86232","2101418.60474","2102185.67335","2102952.31931","2103718.50646","2089886.19644","2093768.98053","2094535.57486","2095285.15106","2096051.99551","2096818.57593","2097585.31186","2098351.66318","2099118.61306","2102962.0694","Mapping"
"Mixed","Both","ball","10","F_greet.wav","None","726.085530245","127","2093002.83543","2099885.34095","2100651.86232","2101418.60474","2102185.67335","2102952.31931","2103718.50646","2104485.1855","2093768.98053","2094535.57486","2095285.15106","2096051.99551","2096818.57593","2097585.31186","2098351.66318","2099118.61306","2103727.99746","Mapping"
"Mixed","Both","done","42","F_knife.wav","None","725.271168165","127","2107619.30576","2099885.34095","2100651.86232","2101418.60474","2102185.67335","2102952.31931","2103718.50646","2104485.1855","2093768.98053","2094535.57486","2095285.15106","2096051.99551","2096818.57593","2097585.31186","2098351.66318","2099118.61306","2104494.5955","Mapping"
"Mixed","Both","done","42","M_lash.wav","None","721.197501989","127","2107619.30576","2099885.34095","2100651.86232","2101418.60474","2102185.67335","2102952.31931","2103718.50646","2104485.1855","2108385.77735","2094535.57486","2095285.15106","2096051.99551","2096818.57593","2097585.31186","2098351.66318","2099118.61306","2107629.52734","Mapping"
"Mixed","Both","done","42","M_done.wav","None","720.498152194","127","2107619.30576","2099885.34095","2100651.86232","2101418.60474","2102185.67335","2102952.31931","2103718.50646","2104485.1855","2108385.77735","2109151.99975","2095285.15106","2096051.99551","2096818.57593","2097585.31186","2098351.66318","2099118.61306","2108395.99274","Mapping"
"Mixed","Both","done","42","M_bluff.wav","space","501.226953929","127","2107619.30576","2099885.34095","2100651.86232","2101418.60474","2102185.67335","2102952.31931","2103718.50646","2104485.1855","2108385.77735","2109151.99975","2109901.74445","2096051.99551","2096818.57593","2097585.31186","2098351.66318","2099118.61306","2109161.38563","Mapping"
"Mixed","Both","done","42","F_dime.wav","None","736.261038692","127","2107619.30576","2099885.34095","2100651.86232","2101418.60474","2102185.67335","2102952.31931","2103718.50646","2104485.1855","2108385.77735","2109151.99975","2109901.74445","2110668.5753","2096818.57593","2097585.31186","2098351.66318","2099118.61306","2109911.04778","Mapping"
"Mixed","Both","done","42","M_done.wav","None","735.12482713","127","2107619.30576","2099885.34095","2100651.86232","2101418.60474","2102185.67335","2102952.31931","2103718.50646","2104485.1855","2108385.77735","2109151.99975","2109901.74445","2110668.5753","2111435.16035","2097585.31186","2098351.66318","2099118.61306","2110678.09041","Mapping"
"Mixed","Both","done","42","M_dime.wav","space","601.989900577","127","2107619.30576","2099885.34095","2100651.86232","2101418.60474","2102185.67335","2102952.31931","2103718.50646","2104485.1855","2108385.77735","2109151.99975","2109901.74445","2110668.5753","2111435.16035","2112201.71542","2098351.66318","2099118.61306","2111444.57869","Mapping"
"Mixed","Both","done","42","F_park.wav","None","733.236088068","127","2107619.30576","2099885.34095","2100651.86232","2101418.60474","2102185.67335","2102952.31931","2103718.50646","2104485.1855","2108385.77735","2109151.99975","2109901.74445","2110668.5753","2111435.16035","2112201.71542","2112968.37436","2099118.61306","2112210.74791","Mapping"
"Mixed","Both","done","42","M_park.wav","None","732.292491477","127","2107619.30576","2099885.34095","2100651.86232","2101418.60474","2102185.67335","2102952.31931","2103718.50646","2104485.1855","2108385.77735","2109151.99975","2109901.74445","2110668.5753","2111435.16035","2112201.71542","2112968.37436","2113735.44482","2112977.51043","Mapping"
"Mixed","Both","done","42","F_ball.wav","None","729.90567435","127","2107619.30576","2114501.6904","2100651.86232","2101418.60474","2102185.67335","2102952.31931","2103718.50646","2104485.1855","2108385.77735","2109151.99975","2109901.74445","2110668.5753","2111435.16035","2112201.71542","2112968.37436","2113735.44482","2113745.6228","Mapping"
"Mixed","Both","done","42","F_priest.wav","None","730.341917719","127","2107619.30576","2114501.6904","2115268.72902","2101418.60474","2102185.67335","2102952.31931","2103718.50646","2104485.1855","2108385.77735","2109151.99975","2109901.74445","2110668.5753","2111435.16035","2112201.71542","2112968.37436","2113735.44482","2114511.07288","Mapping"
"Mixed","Both","done","42","F_done.wav","None","728.779974743","127","2107619.30576","2114501.6904","2115268.72902","2116035.37251","2102185.67335","2102952.31931","2103718.50646","2104485.1855","2108385.77735","2109151.99975","2109901.74445","2110668.5753","2111435.16035","2112201.71542","2112968.37436","2113735.44482","2115278.38542","Mapping"
"Mixed","Both","done","42","M_park.wav","space","409.232468344","127","2107619.30576","2114501.6904","2115268.72902","2116035.37251","2116801.64004","2102952.31931","2103718.50646","2104485.1855","2108385.77735","2109151.99975","2109901.74445","2110668.5753","2111435.16035","2112201.71542","2112968.37436","2113735.44482","2116045.20885","Mapping"
"Mixed","Both","done","42","F_done.wav","None","726.481890306","127","2107619.30576","2114501.6904","2115268.72902","2116035.37251","2116801.64004","2117568.22942","2103718.50646","2104485.1855","2108385.77735","2109151.99975","2109901.74445","2110668.5753","2111435.16035","2112201.71542","2112968.37436","2113735.44482","2116811.43836","Mapping"
"Mixed","Both","done","42","F_reek.wav","space","476.299246307","127","2107619.30576","2114501.6904","2115268.72902","2116035.37251","2116801.64004","2117568.22942","2118335.06769","2104485.1855","2108385.77735","2109151.99975","2109901.74445","2110668.5753","2111435.16035","2112201.71542","2112968.37436","2113735.44482","2117578.04598","Mapping"
"Mixed","Both","done","42","M_park.wav","None","724.167728913","127","2107619.30576","2114501.6904","2115268.72902","2116035.37251","2116801.64004","2117568.22942","2118335.06769","2119102.36292","2108385.77735","2109151.99975","2109901.74445","2110668.5753","2111435.16035","2112201.71542","2112968.37436","2113735.44482","2118344.6063","Mapping"
"Mixed","Both","tile","36","F_depth.wav","None","722.025467781","127","2122235.74518","2114501.6904","2115268.72902","2116035.37251","2116801.64004","2117568.22942","2118335.06769","2119102.36292","2108385.77735","2109151.99975","2109901.74445","2110668.5753","2111435.16035","2112201.71542","2112968.37436","2113735.44482","2119112.5004","Mapping"
"Mixed","Both","tile","36","F_priest.wav","None","721.96517908","127","2122235.74518","2114501.6904","2115268.72902","2116035.37251","2116801.64004","2117568.22942","2118335.06769","2119102.36292","2123002.27459","2109151.99975","2109901.74445","2110668.5753","2111435.16035","2112201.71542","2112968.37436","2113735.44482","2122245.53515","Mapping"
"Mixed","Both","tile","36","F_priest.wav","None","720.575445564","127","2122235.74518","2114501.6904","2115268.72902","2116035.37251","2116801.64004","2117568.22942","2118335.06769","2119102.36292","2123002.27459","2123768.33312","2109901.74445","2110668.5753","2111435.16035","2112201.71542","2112968.37436","2113735.44482","2123012.86903","Mapping"
"Mixed","Both","tile","36","F_tile.wav","None","721.42536263","127","2122235.74518","2114501.6904","2115268.72902","2116035.37251","2116801.64004","2117568.22942","2118335.06769","2119102.36292","2123002.27459","2123768.33312","2124535.64288","2110668.5753","2111435.16035","2112201.71542","2112968.37436","2113735.44482","2123778.02323","Mapping"
"Mixed","Both","tile","36","M_jolt.wav","space","364.088543458","127","2122235.74518","2114501.6904","2115268.72902","2116035.37251","2116801.64004","2117568.22942","2118335.06769","2119102.36292","2123002.27459","2123768.33312","2124535.64288","2125284.95412","2111435.16035","2112201.71542","2112968.37436","2113735.44482","2124546.21969","Mapping"
"Mixed","Both","tile","36","M_cave.wav","None","735.37958588","127","2122235.74518","2114501.6904","2115268.72902","2116035.37251","2116801.64004","2117568.22942","2118335.06769","2119102.36292","2123002.27459","2123768.33312","2124535.64288","2125284.95412","2126051.67737","2112201.71542","2112968.37436","2113735.44482","2125294.87703","Mapping"
"Mixed","Both","tile","36","F_cad.wav","None","734.526267857","127","2122235.74518","2114501.6904","2115268.72902","2116035.37251","2116801.64004","2117568.22942","2118335.06769","2119102.36292","2123002.27459","2123768.33312","2124535.64288","2125284.95412","2126051.67737","2126818.30726","2112968.37436","2113735.44482","2126061.82351","Mapping"
"Mixed","Both","tile","36","M_tile.wav","None","734.216167126","127","2122235.74518","2114501.6904","2115268.72902","2116035.37251","2116801.64004","2117568.22942","2118335.06769","2119102.36292","2123002.27459","2123768.33312","2124535.64288","2125284.95412","2126051.67737","2126818.30726","2127585.21324","2113735.44482","2126828.04807","Mapping"
"Mixed","Both","tile","36","M_dime.wav","space","531.23561386","127","2122235.74518","2114501.6904","2115268.72902","2116035.37251","2116801.64004","2117568.22942","2118335.06769","2119102.36292","2123002.27459","2123768.33312","2124535.64288","2125284.95412","2126051.67737","2126818.30726","2127585.21324","2128351.84405","2127595.0063","Mapping"
"Mixed","Both","tile","36","M_dime.wav","None","731.208221056","127","2122235.74518","2129118.44302","2115268.72902","2116035.37251","2116801.64004","2117568.22942","2118335.06769","2119102.36292","2123002.27459","2123768.33312","2124535.64288","2125284.95412","2126051.67737","2126818.30726","2127585.21324","2128351.84405","2128362.1593","Mapping"
"Mixed","Both","tile","36","M_greet.wav","None","730.692829238","127","2122235.74518","2129118.44302","2129884.89111","2116035.37251","2116801.64004","2117568.22942","2118335.06769","2119102.36292","2123002.27459","2123768.33312","2124535.64288","2125284.95412","2126051.67737","2126818.30726","2127585.21324","2128351.84405","2129128.64078","Mapping"
"Mixed","Both","tile","36","M_tile.wav","None","730.754354736","127","2122235.74518","2129118.44302","2129884.89111","2130651.30457","2116801.64004","2117568.22942","2118335.06769","2119102.36292","2123002.27459","2123768.33312","2124535.64288","2125284.95412","2126051.67737","2126818.30726","2127585.21324","2128351.84405","2129894.40282","Mapping"
"Mixed","Both","tile","36","F_dime.wav","space","457.957237028","127","2122235.74518","2129118.44302","2129884.89111","2130651.30457","2131418.46098","2117568.22942","2118335.06769","2119102.36292","2123002.27459","2123768.33312","2124535.64288","2125284.95412","2126051.67737","2126818.30726","2127585.21324","2128351.84405","2130660.23566","Mapping"
"Mixed","Both","tile","36","F_romp.wav","None","728.319615824","127","2122235.74518","2129118.44302","2129884.89111","2130651.30457","2131418.46098","2132185.1394","2118335.06769","2119102.36292","2123002.27459","2123768.33312","2124535.64288","2125284.95412","2126051.67737","2126818.30726","2127585.21324","2128351.84405","2131428.01103","Mapping"
"Mixed","Both","tile","36","F_tile.wav","None","727.242765599","127","2122235.74518","2129118.44302","2129884.89111","2130651.30457","2131418.46098","2132185.1394","2132951.78599","2119102.36292","2123002.27459","2123768.33312","2124535.64288","2125284.95412","2126051.67737","2126818.30726","2127585.21324","2128351.84405","2132195.12817","Mapping"
"Mixed","Both","tile","36","M_jaw.wav","space","508.917946368","127","2122235.74518","2129118.44302","2129884.89111","2130651.30457","2131418.46098","2132185.1394","2132951.78599","2133718.39639","2123002.27459","2123768.33312","2124535.64288","2125284.95412","2126051.67737","2126818.30726","2127585.21324","2128351.84405","2132961.20773","Mapping"
"Mixed","Both","ball","8","F_depth.wav","None","725.289100199","127","2136852.07052","2129118.44302","2129884.89111","2130651.30457","2131418.46098","2132185.1394","2132951.78599","2133718.39639","2123002.27459","2123768.33312","2124535.64288","2125284.95412","2126051.67737","2126818.30726","2127585.21324","2128351.84405","2133728.12236","Mapping"
"Mixed","Both","ball","8","M_greet.wav","None","721.013234695","127","2136852.07052","2129118.44302","2129884.89111","2130651.30457","2131418.46098","2132185.1394","2132951.78599","2133718.39639","2137618.12565","2123768.33312","2124535.64288","2125284.95412","2126051.67737","2126818.30726","2127585.21324","2128351.84405","2136862.0463","Mapping"
"Mixed","Both","ball","8","F_ball.wav","None","721.717531327","127","2136852.07052","2129118.44302","2129884.89111","2130651.30457","2131418.46098","2132185.1394","2132951.78599","2133718.39639","2137618.12565","2138385.40913","2124535.64288","2125284.95412","2126051.67737","2126818.30726","2127585.21324","2128351.84405","2137627.32479","Mapping"
"Mixed","Both","ball","8","F_cave.wav","space","370.826664264","127","2136852.07052","2129118.44302","2129884.89111","2130651.30457","2131418.46098","2132185.1394","2132951.78599","2133718.39639","2137618.12565","2138385.40913","2139134.69996","2125284.95412","2126051.67737","2126818.30726","2127585.21324","2128351.84405","2138395.22228","Mapping"
"Mixed","Both","ball","8","F_cave.wav","None","735.685976455","127","2136852.07052","2129118.44302","2129884.89111","2130651.30457","2131418.46098","2132185.1394","2132951.78599","2133718.39639","2137618.12565","2138385.40913","2139134.69996","2139901.48351","2126051.67737","2126818.30726","2127585.21324","2128351.84405","2139144.30505","Mapping"
"Mixed","Both","ball","8","M_lash.wav","None","734.977042419","127","2136852.07052","2129118.44302","2129884.89111","2130651.30457","2131418.46098","2132185.1394","2132951.78599","2133718.39639","2137618.12565","2138385.40913","2139134.69996","2139901.48351","2140668.11679","2126818.30726","2127585.21324","2128351.84405","2139911.1328","Mapping"
"Mixed","Both","ball","8","F_jaw.wav","None","734.03128155","127","2136852.07052","2129118.44302","2129884.89111","2130651.30457","2131418.46098","2132185.1394","2132951.78599","2133718.39639","2137618.12565","2138385.40913","2139134.69996","2139901.48351","2140668.11679","2141434.93249","2127585.21324","2128351.84405","2140678.06197","Mapping"
"Mixed","Both","ball","8","F_greet.wav","None","733.000498032","127","2136852.07052","2129118.44302","2129884.89111","2130651.30457","2131418.46098","2132185.1394","2132951.78599","2133718.39639","2137618.12565","2138385.40913","2139134.69996","2139901.48351","2140668.11679","2141434.93249","2142201.59608","2128351.84405","2141444.95372","Mapping"
"Mixed","Both","ball","8","M_ball.wav","None","732.078234432","127","2136852.07052","2129118.44302","2129884.89111","2130651.30457","2131418.46098","2132185.1394","2132951.78599","2133718.39639","2137618.12565","2138385.40913","2139134.69996","2139901.48351","2140668.11679","2141434.93249","2142201.59608","2142967.79714","2142211.82322","Mapping"
"Mixed","Both","ball","8","F_tile.wav","space","389.082104899","127","2136852.07052","2143734.47433","2129884.89111","2130651.30457","2131418.46098","2132185.1394","2132951.78599","2133718.39639","2137618.12565","2138385.40913","2139134.69996","2139901.48351","2140668.11679","2141434.93249","2142201.59608","2142967.79714","2142976.88992","Mapping"
"Mixed","Both","ball","8","M_jolt.wav","None","730.867821374","127","2136852.07052","2143734.47433","2144501.52407","2130651.30457","2131418.46098","2132185.1394","2132951.78599","2133718.39639","2137618.12565","2138385.40913","2139134.69996","2139901.48351","2140668.11679","2141434.93249","2142201.59608","2142967.79714","2143743.94245","Mapping"
"Mixed","Both","ball","8","M_jaw.wav","None","729.664210114","127","2136852.07052","2143734.47433","2144501.52407","2145268.10201","2131418.46098","2132185.1394","2132951.78599","2133718.39639","2137618.12565","2138385.40913","2139134.69996","2139901.48351","2140668.11679","2141434.93249","2142201.59608","2142967.79714","2144511.20552","Mapping"
"Mixed","Both","ball","8","F_ball.wav","None","728.575302172","127","2136852.07052","2143734.47433","2144501.52407","2145268.10201","2146034.87195","2132185.1394","2132951.78599","2133718.39639","2137618.12565","2138385.40913","2139134.69996","2139901.48351","2140668.11679","2141434.93249","2142201.59608","2142967.79714","2145278.26392","Mapping"
"Mixed","Both","ball","8","M_dime.wav","space","441.616815049","127","2136852.07052","2143734.47433","2144501.52407","2145268.10201","2146034.87195","2146801.54976","2132951.78599","2133718.39639","2137618.12565","2138385.40913","2139134.69996","2139901.48351","2140668.11679","2141434.93249","2142201.59608","2142967.79714","2146044.29092","Mapping"
"Mixed","Both","ball","8","M_ball.wav","None","726.263923221","127","2136852.07052","2143734.47433","2144501.52407","2145268.10201","2146034.87195","2146801.54976","2147567.66549","2133718.39639","2137618.12565","2138385.40913","2139134.69996","2139901.48351","2140668.11679","2141434.93249","2142201.59608","2142967.79714","2146811.62324","Mapping"
"Mixed","Both","ball","8","M_cad.wav","space","565.046176547","127","2136852.07052","2143734.47433","2144501.52407","2145268.10201","2146034.87195","2146801.54976","2147567.66549","2148334.80582","2137618.12565","2138385.40913","2139134.69996","2139901.48351","2140668.11679","2141434.93249","2142201.59608","2142967.79714","2147576.80156","Mapping"
"Mixed","Both","ball","3","M_tile.wav","None","724.463298451","127","2151468.37266","2143734.47433","2144501.52407","2145268.10201","2146034.87195","2146801.54976","2147567.66549","2148334.80582","2137618.12565","2138385.40913","2139134.69996","2139901.48351","2140668.11679","2141434.93249","2142201.59608","2142967.79714","2148344.53859","Mapping"
"Mixed","Both","ball","3","M_ball.wav","None","721.870881272","127","2151468.37266","2143734.47433","2144501.52407","2145268.10201","2146034.87195","2146801.54976","2147567.66549","2148334.80582","2152235.06686","2138385.40913","2139134.69996","2139901.48351","2140668.11679","2141434.93249","2142201.59608","2142967.79714","2151478.31691","Mapping"
"Mixed","Both","ball","3","F_romp.wav","space","416.040462209","127","2151468.37266","2143734.47433","2144501.52407","2145268.10201","2146034.87195","2146801.54976","2147567.66549","2148334.80582","2152235.06686","2153001.85504","2139134.69996","2139901.48351","2140668.11679","2141434.93249","2142201.59608","2142967.79714","2152245.7896","Mapping"
"Mixed","Both","ball","3","M_bluff.wav","None","719.566304237","127","2151468.37266","2143734.47433","2144501.52407","2145268.10201","2146034.87195","2146801.54976","2147567.66549","2148334.80582","2152235.06686","2153001.85504","2153768.38568","2139901.48351","2140668.11679","2141434.93249","2142201.59608","2142967.79714","2153011.80207","Mapping"
"Mixed","Both","ball","3","F_dime.wav","None","718.783477671","127","2151468.37266","2143734.47433","2144501.52407","2145268.10201","2146034.87195","2146801.54976","2147567.66549","2148334.80582","2152235.06686","2153001.85504","2153768.38568","2154518.13409","2140668.11679","2141434.93249","2142201.59608","2142967.79714","2153778.61468","Mapping"
"Mixed","Both","ball","3","F_bluff.wav","None","735.314659425","127","2151468.37266","2143734.47433","2144501.52407","2145268.10201","2146034.87195","2146801.54976","2147567.66549","2148334.80582","2152235.06686","2153001.85504","2153768.38568","2154518.13409","2155284.4245","2141434.93249","2142201.59608","2142967.79714","2154527.98713","Mapping"
"Mixed","Both","ball","3","F_dime.wav","None","734.677144443","127","2151468.37266","2143734.47433","2144501.52407","2145268.10201","2146034.87195","2146801.54976","2147567.66549","2148334.80582","2152235.06686","2153001.85504","2153768.38568","2154518.13409","2155284.4245","2156051.29523","2142201.59608","2142967.79714","2155294.65968","Mapping"
"Mixed","Both","ball","3","M_gnash.wav","None","734.196070815","127","2151468.37266","2143734.47433","2144501.52407","2145268.10201","2146034.87195","2146801.54976","2147567.66549","2148334.80582","2152235.06686","2153001.85504","2153768.38568","2154518.13409","2155284.4245","2156051.29523","2156817.46012","2142967.79714","2156061.13251","Mapping"
"Mixed","Both","ball","3","F_greet.wav","None","734.859556425","127","2151468.37266","2143734.47433","2144501.52407","2145268.10201","2146034.87195","2146801.54976","2147567.66549","2148334.80582","2152235.06686","2153001.85504","2153768.38568","2154518.13409","2155284.4245","2156051.29523","2156817.46012","2157584.1908","2156826.57115","Mapping"
"Mixed","Both","ball","3","F_knife.wav","None","734.030972351","127","2151468.37266","2158350.90602","2144501.52407","2145268.10201","2146034.87195","2146801.54976","2147567.66549","2148334.80582","2152235.06686","2153001.85504","2153768.38568","2154518.13409","2155284.4245","2156051.29523","2156817.46012","2157584.1908","2157593.37417","Mapping"
"Mixed","Both","ball","3","F_ball.wav","None","732.669682708","127","2151468.37266","2158350.90602","2159117.54301","2145268.10201","2146034.87195","2146801.54976","2147567.66549","2148334.80582","2152235.06686","2153001.85504","2153768.38568","2154518.13409","2155284.4245","2156051.29523","2156817.46012","2157584.1908","2158360.74143","Mapping"
"Mixed","Both","ball","3","M_bluff.wav","space","446.596049471","127","2151468.37266","2158350.90602","2159117.54301","2159884.21124","2146034.87195","2146801.54976","2147567.66549","2148334.80582","2152235.06686","2153001.85504","2153768.38568","2154518.13409","2155284.4245","2156051.29523","2156817.46012","2157584.1908","2159127.08224","Mapping"
"Mixed","Both","ball","3","M_ball.wav","None","731.128763524","127","2151468.37266","2158350.90602","2159117.54301","2159884.21124","2160650.79629","2146801.54976","2147567.66549","2148334.80582","2152235.06686","2153001.85504","2153768.38568","2154518.13409","2155284.4245","2156051.29523","2156817.46012","2157584.1908","2159893.40945","Mapping"
"Mixed","Both","ball","3","M_romp.wav","space","553.91563219","127","2151468.37266","2158350.90602","2159117.54301","2159884.21124","2160650.79629","2161417.76781","2147567.66549","2148334.80582","2152235.06686","2153001.85504","2153768.38568","2154518.13409","2155284.4245","2156051.29523","2156817.46012","2157584.1908","2160659.74284","Mapping"
"Mixed","Both","ball","3","F_ball.wav","None","728.614567081","127","2151468.37266","2158350.90602","2159117.54301","2159884.21124","2160650.79629","2161417.76781","2162184.13892","2148334.80582","2152235.06686","2153001.85504","2153768.38568","2154518.13409","2155284.4245","2156051.29523","2156817.46012","2157584.1908","2161427.47461","Mapping"
"Mixed","Both","ball","3","M_done.wav","space","724.265118479","127","2151468.37266","2158350.90602","2159117.54301","2159884.21124","2160650.79629","2161417.76781","2162184.13892","2162951.20536","2152235.06686","2153001.85504","2153768.38568","2154518.13409","2155284.4245","2156051.29523","2156817.46012","2157584.1908","2162193.37423","Mapping"
"Mixed","Both","done","47","F_lash.wav","None","724.969105911","127","2166084.91658","2158350.90602","2159117.54301","2159884.21124","2160650.79629","2161417.76781","2162184.13892","2162951.20536","2152235.06686","2153001.85504","2153768.38568","2154518.13409","2155284.4245","2156051.29523","2156817.46012","2157584.1908","2162962.10031","Mapping"
"Mixed","Both","done","47","M_done.wav","None","721.293654875","127","2166084.91658","2158350.90602","2159117.54301","2159884.21124","2160650.79629","2161417.76781","2162184.13892","2162951.20536","2166851.3724","2153001.85504","2153768.38568","2154518.13409","2155284.4245","2156051.29523","2156817.46012","2157584.1908","2166095.34407","Mapping"
"Mixed","Both","done","47","M_knife.wav","space","423.891915591","127","2166084.91658","2158350.90602","2159117.54301","2159884.21124","2160650.79629","2161417.76781","2162184.13892","2162951.20536","2166851.3724","2167617.60346","2153768.38568","2154518.13409","2155284.4245","2156051.29523","2156817.46012","2157584.1908","2166861.64685","Mapping"
"Mixed","Both","done","47","F_cad.wav","None","721.074760193","127","2166084.91658","2158350.90602","2159117.54301","2159884.21124","2160650.79629","2161417.76781","2162184.13892","2162951.20536","2166851.3724","2167617.60346","2168384.79944","2154518.13409","2155284.4245","2156051.29523","2156817.46012","2157584.1908","2167626.65172","Mapping"
"Mixed","Both","done","47","F_done.wav","None","718.806356424","127","2166084.91658","2158350.90602","2159117.54301","2159884.21124","2160650.79629","2161417.76781","2162184.13892","2162951.20536","2166851.3724","2167617.60346","2168384.79944","2169134.53455","2155284.4245","2156051.29523","2156817.46012","2157584.1908","2168394.93754","Mapping"
"Mixed","Both","done","47","M_bluff.wav","space","365.071405075","127","2166084.91658","2158350.90602","2159117.54301","2159884.21124","2160650.79629","2161417.76781","2162184.13892","2162951.20536","2166851.3724","2167617.60346","2168384.79944","2169134.53455","2169900.59618","2156051.29523","2156817.46012","2157584.1908","2169144.41047","Mapping"
"Mixed","Both","done","47","F_done.wav","None","735.33104558","127","2166084.91658","2158350.90602","2159117.54301","2159884.21124","2160650.79629","2161417.76781","2162184.13892","2162951.20536","2166851.3724","2167617.60346","2168384.79944","2169134.53455","2169900.59618","2170667.18092","2156817.46012","2157584.1908","2169909.57271","Mapping"
"Mixed","Both","done","47","M_park.wav","space","438.308971003","127","2166084.91658","2158350.90602","2159117.54301","2159884.21124","2160650.79629","2161417.76781","2162184.13892","2162951.20536","2166851.3724","2167617.60346","2168384.79944","2169134.53455","2169900.59618","2170667.18092","2171434.41463","2157584.1908","2170671.16277","Mapping"
"Mixed","Both","done","47","M_reek.wav","None","732.182425796","127","2166084.91658","2158350.90602","2159117.54301","2159884.21124","2160650.79629","2161417.76781","2162184.13892","2162951.20536","2166851.3724","2167617.60346","2168384.79944","2169134.53455","2169900.59618","2170667.18092","2171434.41463","2172201.08408","2171444.32208","Mapping"
"Mixed","Both","done","47","M_done.wav","None","731.490805396","127","2166084.91658","2172967.26289","2159117.54301","2159884.21124","2160650.79629","2161417.76781","2162184.13892","2162951.20536","2166851.3724","2167617.60346","2168384.79944","2169134.53455","2169900.59618","2170667.18092","2171434.41463","2172201.08408","2172211.1217","Mapping"
"Mixed","Both","done","47","F_dime.wav","space","460.60994314","127","2166084.91658","2172967.26289","2173733.96976","2159884.21124","2160650.79629","2161417.76781","2162184.13892","2162951.20536","2166851.3724","2167617.60346","2168384.79944","2169134.53455","2169900.59618","2170667.18092","2171434.41463","2172201.08408","2172976.88096","Mapping"
"Mixed","Both","done","47","M_park.wav","None","731.032610754","127","2166084.91658","2172967.26289","2173733.96976","2174500.9994","2160650.79629","2161417.76781","2162184.13892","2162951.20536","2166851.3724","2167617.60346","2168384.79944","2169134.53455","2169900.59618","2170667.18092","2171434.41463","2172201.08408","2173742.91661","Mapping"
"Mixed","Both","done","47","F_tile.wav","None","729.355036863","127","2166084.91658","2172967.26289","2173733.96976","2174500.9994","2175267.14234","2161417.76781","2162184.13892","2162951.20536","2166851.3724","2167617.60346","2168384.79944","2169134.53455","2169900.59618","2170667.18092","2171434.41463","2172201.08408","2174510.73063","Mapping"
"Mixed","Both","done","47","M_jolt.wav","None","729.384408332","127","2166084.91658","2172967.26289","2173733.96976","2174500.9994","2175267.14234","2176034.39212","2162184.13892","2162951.20536","2166851.3724","2167617.60346","2168384.79944","2169134.53455","2169900.59618","2170667.18092","2171434.41463","2172201.08408","2175276.78916","Mapping"
"Mixed","Both","done","47","F_dime.wav","None","728.228409775","127","2166084.91658","2172967.26289","2173733.96976","2174500.9994","2175267.14234","2176034.39212","2176800.91008","2162951.20536","2166851.3724","2167617.60346","2168384.79944","2169134.53455","2169900.59618","2170667.18092","2171434.41463","2172201.08408","2176044.04883","Mapping"
"Mixed","Both","done","47","F_dime.wav","space","434.623935609","127","2166084.91658","2172967.26289","2173733.96976","2174500.9994","2175267.14234","2176034.39212","2176800.91008","2177567.51833","2166851.3724","2167617.60346","2168384.79944","2169134.53455","2169900.59618","2170667.18092","2171434.41463","2172201.08408","2176810.76683","Mapping"
"Mixed","Both","cave","21","F_gnash.wav","None","726.295149769","127","2180701.27562","2172967.26289","2173733.96976","2174500.9994","2175267.14234","2176034.39212","2176800.91008","2177567.51833","2166851.3724","2167617.60346","2168384.79944","2169134.53455","2169900.59618","2170667.18092","2171434.41463","2172201.08408","2177577.23502","Mapping"
"Mixed","Both","cave","21","M_cave.wav","None","720.275547588","127","2180701.27562","2172967.26289","2173733.96976","2174500.9994","2175267.14234","2176034.39212","2176800.91008","2177567.51833","2181468.03443","2167617.60346","2168384.79944","2169134.53455","2169900.59618","2170667.18092","2171434.41463","2172201.08408","2180712.02928","Mapping"
"Mixed","Both","cave","21","M_ball.wav","space","447.39464391","127","2180701.27562","2172967.26289","2173733.96976","2174500.9994","2175267.14234","2176034.39212","2176800.91008","2177567.51833","2181468.03443","2182234.60433","2168384.79944","2169134.53455","2169900.59618","2170667.18092","2171434.41463","2172201.08408","2181477.87046","Mapping"
"Mixed","Both","cave","21","F_gnash.wav","None","718.959087972","127","2180701.27562","2172967.26289","2173733.96976","2174500.9994","2175267.14234","2176034.39212","2176800.91008","2177567.51833","2181468.03443","2182234.60433","2183001.19124","2169134.53455","2169900.59618","2170667.18092","2171434.41463","2172201.08408","2182244.76469","Mapping"
"Mixed","Both","cave","21","M_jolt.wav","None","718.743594363","127","2180701.27562","2172967.26289","2173733.96976","2174500.9994","2175267.14234","2176034.39212","2176800.91008","2177567.51833","2181468.03443","2182234.60433","2183001.19124","2183750.93502","2169900.59618","2170667.18092","2171434.41463","2172201.08408","2183011.24556","Mapping"
"Mixed","Both","cave","21","F_lash.wav","None","734.8079246","127","2180701.27562","2172967.26289","2173733.96976","2174500.9994","2175267.14234","2176034.39212","2176800.91008","2177567.51833","2181468.03443","2182234.60433","2183001.19124","2183750.93502","2184517.17875","2170667.18092","2171434.41463","2172201.08408","2183761.30685","Mapping"
"Mixed","Both","cave","21","F_cad.wav","None","735.55674206","127","2180701.27562","2172967.26289","2173733.96976","2174500.9994","2175267.14234","2176034.39212","2176800.91008","2177567.51833","2181468.03443","2182234.60433","2183001.19124","2183750.93502","2184517.17875","2185283.86768","2171434.41463","2172201.08408","2184526.6345","Mapping"
"Mixed","Both","cave","21","M_jaw.wav","None","734.658593894","127","2180701.27562","2172967.26289","2173733.96976","2174500.9994","2175267.14234","2176034.39212","2176800.91008","2177567.51833","2181468.03443","2182234.60433","2183001.19124","2183750.93502","2184517.17875","2185283.86768","2186050.49633","2172201.08408","2185293.77823","Mapping"
"Mixed","Both","cave","21","M_gnash.wav","None","734.798340243","127","2180701.27562","2172967.26289","2173733.96976","2174500.9994","2175267.14234","2176034.39212","2176800.91008","2177567.51833","2181468.03443","2182234.60433","2183001.19124","2183750.93502","2184517.17875","2185283.86768","2186050.49633","2186817.21062","2186059.81203","Mapping"
"Mixed","Both","cave","21","F_cave.wav","None","731.919319369","127","2180701.27562","2187584.08568","2173733.96976","2174500.9994","2175267.14234","2176034.39212","2176800.91008","2177567.51833","2181468.03443","2182234.60433","2183001.19124","2183750.93502","2184517.17875","2185283.86768","2186050.49633","2186817.21062","2186828.80121","Mapping"
"Mixed","Both","cave","21","F_lash.wav","space","531.401330605","127","2180701.27562","2187584.08568","2188350.77431","2174500.9994","2175267.14234","2176034.39212","2176800.91008","2177567.51833","2181468.03443","2182234.60433","2183001.19124","2183750.93502","2184517.17875","2185283.86768","2186050.49633","2186817.21062","2187593.76126","Mapping"
"Mixed","Both","cave","21","F_ball.wav","None","731.08517006","127","2180701.27562","2187584.08568","2188350.77431","2189117.00783","2175267.14234","2176034.39212","2176800.91008","2177567.51833","2181468.03443","2182234.60433","2183001.19124","2183750.93502","2184517.17875","2185283.86768","2186050.49633","2186817.21062","2188360.66167","Mapping"
"Mixed","Both","cave","21","F_cave.wav","None","731.931686401","127","2180701.27562","2187584.08568","2188350.77431","2189117.00783","2189884.08447","2176034.39212","2176800.91008","2177567.51833","2181468.03443","2182234.60433","2183001.19124","2183750.93502","2184517.17875","2185283.86768","2186050.49633","2186817.21062","2189126.14359","Mapping"
"Mixed","Both","cave","21","M_jaw.wav","space","615.200252971","127","2180701.27562","2187584.08568","2188350.77431","2189117.00783","2189884.08447","2190650.76785","2176800.91008","2177567.51833","2181468.03443","2182234.60433","2183001.19124","2183750.93502","2184517.17875","2185283.86768","2186050.49633","2186817.21062","2189893.92979","Mapping"
"Mixed","Both","cave","21","M_cave.wav","None","728.87087171","127","2180701.27562","2187584.08568","2188350.77431","2189117.00783","2189884.08447","2190650.76785","2191417.20481","2177567.51833","2181468.03443","2182234.60433","2183001.19124","2183750.93502","2184517.17875","2185283.86768","2186050.49633","2186817.21062","2190660.44466","Mapping"
"Mixed","Both","cave","21","M_jaw.wav","space","722.160885693","127","2180701.27562","2187584.08568","2188350.77431","2189117.00783","2189884.08447","2190650.76785","2191417.20481","2192184.00381","2181468.03443","2182234.60433","2183001.19124","2183750.93502","2184517.17875","2185283.86768","2186050.49633","2186817.21062","2191426.91656","Mapping"
"Mixed","Both","ball","11","M_priest.wav","None","726.542797522","127","2195317.63713","2187584.08568","2188350.77431","2189117.00783","2189884.08447","2190650.76785","2191417.20481","2192184.00381","2181468.03443","2182234.60433","2183001.19124","2183750.93502","2184517.17875","2185283.86768","2186050.49633","2186817.21062","2192193.88808","Mapping"
"Mixed","Both","ball","11","F_priest.wav","None","721.501419204","127","2195317.63713","2187584.08568","2188350.77431","2189117.00783","2189884.08447","2190650.76785","2191417.20481","2192184.00381","2196083.73956","2182234.60433","2183001.19124","2183750.93502","2184517.17875","2185283.86768","2186050.49633","2186817.21062","2195327.74152","Mapping"
"Mixed","Both","ball","11","M_done.wav","None","722.601148416","127","2195317.63713","2187584.08568","2188350.77431","2189117.00783","2189884.08447","2190650.76785","2191417.20481","2192184.00381","2196083.73956","2196850.52527","2183001.19124","2183750.93502","2184517.17875","2185283.86768","2186050.49633","2186817.21062","2196092.94767","Mapping"
"Mixed","Both","ball","11","F_ball.wav","None","722.0245403","127","2195317.63713","2187584.08568","2188350.77431","2189117.00783","2189884.08447","2190650.76785","2191417.20481","2192184.00381","2196083.73956","2196850.52527","2197616.94461","2183750.93502","2184517.17875","2185283.86768","2186050.49633","2186817.21062","2196859.72194","Mapping"
"Mixed","Both","ball","11","F_dime.wav","space","498.9140291","127","2195317.63713","2187584.08568","2188350.77431","2189117.00783","2189884.08447","2190650.76785","2191417.20481","2192184.00381","2196083.73956","2196850.52527","2197616.94461","2198384.28559","2184517.17875","2185283.86768","2186050.49633","2186817.21062","2197626.08191","Mapping"
"Mixed","Both","ball","11","F_cad.wav","None","718.486362137","127","2195317.63713","2187584.08568","2188350.77431","2189117.00783","2189884.08447","2190650.76785","2191417.20481","2192184.00381","2196083.73956","2196850.52527","2197616.94461","2198384.28559","2199134.00927","2185283.86768","2186050.49633","2186817.21062","2198394.47378","Mapping"
"Mixed","Both","ball","11","M_lash.wav","None","735.514694592","127","2195317.63713","2187584.08568","2188350.77431","2189117.00783","2189884.08447","2190650.76785","2191417.20481","2192184.00381","2196083.73956","2196850.52527","2197616.94461","2198384.28559","2199134.00927","2199899.94784","2186050.49633","2186817.21062","2199143.74049","Mapping"
"Mixed","Both","ball","11","M_priest.wav","None","736.615041969","127","2195317.63713","2187584.08568","2188350.77431","2189117.00783","2189884.08447","2190650.76785","2191417.20481","2192184.00381","2196083.73956","2196850.52527","2197616.94461","2198384.28559","2199134.00927","2199899.94784","2200666.42345","2186817.21062","2199908.94942","Mapping"
"Mixed","Both","ball","11","M_ball.wav","None","742.048142594","127","2195317.63713","2187584.08568","2188350.77431","2189117.00783","2189884.08447","2190650.76785","2191417.20481","2192184.00381","2196083.73956","2196850.52527","2197616.94461","2198384.28559","2199134.00927","2199899.94784","2200666.42345","2201433.68219","2200669.92422","Mapping"
"Mixed","Both","ball","11","F_knife.wav","space","377.017857507","127","2195317.63713","2202200.47099","2188350.77431","2189117.00783","2189884.08447","2190650.76785","2191417.20481","2192184.00381","2196083.73956","2196850.52527","2197616.94461","2198384.28559","2199134.00927","2199899.94784","2200666.42345","2201433.68219","2201443.90779","Mapping"
"Mixed","Both","ball","11","F_ball.wav","None","732.867553597","127","2195317.63713","2202200.47099","2202967.01555","2189117.00783","2189884.08447","2190650.76785","2191417.20481","2192184.00381","2196083.73956","2196850.52527","2197616.94461","2198384.28559","2199134.00927","2199899.94784","2200666.42345","2201433.68219","2202210.26715","Mapping"
"Mixed","Both","ball","11","F_cling.wav","space","460.251302109","127","2195317.63713","2202200.47099","2202967.01555","2203733.55608","2189884.08447","2190650.76785","2191417.20481","2192184.00381","2196083.73956","2196850.52527","2197616.94461","2198384.28559","2199134.00927","2199899.94784","2200666.42345","2201433.68219","2202976.6228","Mapping"
"Mixed","Both","ball","11","F_cling.wav","None","731.800596928","127","2195317.63713","2202200.47099","2202967.01555","2203733.55608","2204500.42805","2190650.76785","2191417.20481","2192184.00381","2196083.73956","2196850.52527","2197616.94461","2198384.28559","2199134.00927","2199899.94784","2200666.42345","2201433.68219","2203742.90857","Mapping"
"Mixed","Both","ball","11","M_knife.wav","None","730.271735461","127","2195317.63713","2202200.47099","2202967.01555","2203733.55608","2204500.42805","2205267.11699","2191417.20481","2192184.00381","2196083.73956","2196850.52527","2197616.94461","2198384.28559","2199134.00927","2199899.94784","2200666.42345","2201433.68219","2204510.67621","Mapping"
"Mixed","Both","ball","11","M_ball.wav","None","730.050676619","127","2195317.63713","2202200.47099","2202967.01555","2203733.55608","2204500.42805","2205267.11699","2206033.80654","2192184.00381","2196083.73956","2196850.52527","2197616.94461","2198384.28559","2199134.00927","2199899.94784","2200666.42345","2201433.68219","2205277.28137","Mapping"
"Mixed","Both","ball","11","M_depth.wav","space","385.594012914","127","2195317.63713","2202200.47099","2202967.01555","2203733.55608","2204500.42805","2205267.11699","2206033.80654","2206800.39253","2196083.73956","2196850.52527","2197616.94461","2198384.28559","2199134.00927","2199899.94784","2200666.42345","2201433.68219","2206043.23014","Mapping"
"Mixed","Both","done","41","F_gnash.wav","None","728.468328132","127","2209934.0447","2202200.47099","2202967.01555","2203733.55608","2204500.42805","2205267.11699","2206033.80654","2206800.39253","2196083.73956","2196850.52527","2197616.94461","2198384.28559","2199134.00927","2199899.94784","2200666.42345","2201433.68219","2206810.20878","Mapping"
"Mixed","Both","done","41","M_done.wav","None","721.904890263","127","2209934.0447","2202200.47099","2202967.01555","2203733.55608","2204500.42805","2205267.11699","2206033.80654","2206800.39253","2210700.72498","2196850.52527","2197616.94461","2198384.28559","2199134.00927","2199899.94784","2200666.42345","2201433.68219","2209944.25143","Mapping"
"Mixed","Both","done","41","F_knife.wav","space","509.83248069","127","2209934.0447","2202200.47099","2202967.01555","2203733.55608","2204500.42805","2205267.11699","2206033.80654","2206800.39253","2210700.72498","2211467.23738","2197616.94461","2198384.28559","2199134.00927","2199899.94784","2200666.42345","2201433.68219","2210710.86864","Mapping"
"Mixed","Both","done","41","M_park.wav","None","720.150950714","127","2209934.0447","2202200.47099","2202967.01555","2203733.55608","2204500.42805","2205267.11699","2206033.80654","2206800.39253","2210700.72498","2211467.23738","2212233.49038","2198384.28559","2199134.00927","2199899.94784","2200666.42345","2201433.68219","2211477.30808","Mapping"
"Mixed","Both","done","41","F_greet.wav","None","721.005505417","127","2209934.0447","2202200.47099","2202967.01555","2203733.55608","2204500.42805","2205267.11699","2206033.80654","2206800.39253","2210700.72498","2211467.23738","2212233.49038","2213000.06895","2199134.00927","2199899.94784","2200666.42345","2201433.68219","2212242.8877","Mapping"
"Mixed","Both","done","41","M_done.wav","None","720.542673254","127","2209934.0447","2202200.47099","2202967.01555","2203733.55608","2204500.42805","2205267.11699","2206033.80654","2206800.39253","2210700.72498","2211467.23738","2212233.49038","2213000.06895","2213767.25874","2199899.94784","2200666.42345","2201433.68219","2213009.75132","Mapping"
"Mixed","Both","done","41","M_tile.wav","space","491.640729597","127","2209934.0447","2202200.47099","2202967.01555","2203733.55608","2204500.42805","2205267.11699","2206033.80654","2206800.39253","2210700.72498","2211467.23738","2212233.49038","2213000.06895","2213767.25874","2214516.63213","2200666.42345","2201433.68219","2213777.06603","Mapping"
"Mixed","Both","done","41","F_done.wav","None","735.444821417","127","2209934.0447","2202200.47099","2202967.01555","2203733.55608","2204500.42805","2205267.11699","2206033.80654","2206800.39253","2210700.72498","2211467.23738","2212233.49038","2213000.06895","2213767.25874","2214516.63213","2215283.08424","2201433.68219","2214526.37448","Mapping"
"Mixed","Both","done","41","M_depth.wav","space","447.980217868","127","2209934.0447","2202200.47099","2202967.01555","2203733.55608","2204500.42805","2205267.11699","2206033.80654","2206800.39253","2210700.72498","2211467.23738","2212233.49038","2213000.06895","2213767.25874","2214516.63213","2215283.08424","2216050.21127","2215292.70787","Mapping"
"Mixed","Both","done","41","M_greet.wav","None","733.021831024","127","2209934.0447","2216816.83374","2202967.01555","2203733.55608","2204500.42805","2205267.11699","2206033.80654","2206800.39253","2210700.72498","2211467.23738","2212233.49038","2213000.06895","2213767.25874","2214516.63213","2215283.08424","2216050.21127","2216060.29558","Mapping"
"Mixed","Both","done","41","F_done.wav","None","733.051820775","127","2209934.0447","2216816.83374","2217583.56751","2203733.55608","2204500.42805","2205267.11699","2206033.80654","2206800.39253","2210700.72498","2211467.23738","2212233.49038","2213000.06895","2213767.25874","2214516.63213","2215283.08424","2216050.21127","2216826.64473","Mapping"
"Mixed","Both","done","41","M_park.wav","space","379.517832072","127","2209934.0447","2216816.83374","2217583.56751","2218350.20296","2204500.42805","2205267.11699","2206033.80654","2206800.39253","2210700.72498","2211467.23738","2212233.49038","2213000.06895","2213767.25874","2214516.63213","2215283.08424","2216050.21127","2217593.12065","Mapping"
"Mixed","Both","done","41","M_romp.wav","None","730.830102111","127","2209934.0447","2216816.83374","2217583.56751","2218350.20296","2219116.82326","2205267.11699","2206033.80654","2206800.39253","2210700.72498","2211467.23738","2212233.49038","2213000.06895","2213767.25874","2214516.63213","2215283.08424","2216050.21127","2218360.12432","Mapping"
"Mixed","Both","done","41","F_priest.wav","None","730.80258572","127","2209934.0447","2216816.83374","2217583.56751","2218350.20296","2219116.82326","2219883.57681","2206033.80654","2206800.39253","2210700.72498","2211467.23738","2212233.49038","2213000.06895","2213767.25874","2214516.63213","2215283.08424","2216050.21127","2219126.73535","Mapping"
"Mixed","Both","done","41","F_lash.wav","None","730.946042109","127","2209934.0447","2216816.83374","2217583.56751","2218350.20296","2219116.82326","2219883.57681","2220649.74294","2206800.39253","2210700.72498","2211467.23738","2212233.49038","2213000.06895","2213767.25874","2214516.63213","2215283.08424","2216050.21127","2219892.97413","Mapping"
"Mixed","Both","done","41","F_reek.wav","None","731.553876656","127","2209934.0447","2216816.83374","2217583.56751","2218350.20296","2219116.82326","2219883.57681","2220649.74294","2221416.77629","2210700.72498","2211467.23738","2212233.49038","2213000.06895","2213767.25874","2214516.63213","2215283.08424","2216050.21127","2220658.70587","Mapping"
"Mixed","Both","ball","9","M_gnash.wav","None","728.749366594","127","2224550.40312","2216816.83374","2217583.56751","2218350.20296","2219116.82326","2219883.57681","2220649.74294","2221416.77629","2210700.72498","2211467.23738","2212233.49038","2213000.06895","2213767.25874","2214516.63213","2215283.08424","2216050.21127","2221428.02989","Mapping"
"Mixed","Both","ball","9","F_cad.wav","None","721.028693486","127","2224550.40312","2216816.83374","2217583.56751","2218350.20296","2219116.82326","2219883.57681","2220649.74294","2221416.77629","2225316.39208","2211467.23738","2212233.49038","2213000.06895","2213767.25874","2214516.63213","2215283.08424","2216050.21127","2224560.58635","Mapping"
"Mixed","Both","ball","9","M_cave.wav","None","724.868315388","127","2224550.40312","2216816.83374","2217583.56751","2218350.20296","2219116.82326","2219883.57681","2220649.74294","2221416.77629","2225316.39208","2226083.90651","2212233.49038","2213000.06895","2213767.25874","2214516.63213","2215283.08424","2216050.21127","2225325.51022","Mapping"
"Mixed","Both","ball","9","F_romp.wav","None","723.002455197","127","2224550.40312","2216816.83374","2217583.56751","2218350.20296","2219116.82326","2219883.57681","2220649.74294","2221416.77629","2225316.39208","2226083.90651","2226850.63874","2213000.06895","2213767.25874","2214516.63213","2215283.08424","2216050.21127","2226093.76265","Mapping"
"Mixed","Both","ball","9","F_ball.wav","None","722.325984156","127","2224550.40312","2216816.83374","2217583.56751","2218350.20296","2219116.82326","2219883.57681","2220649.74294","2221416.77629","2225316.39208","2226083.90651","2226850.63874","2227616.88648","2213767.25874","2214516.63213","2215283.08424","2216050.21127","2226860.80899","Mapping"
"Mixed","Both","ball","9","M_jaw.wav","space","377.664957079","127","2224550.40312","2216816.83374","2217583.56751","2218350.20296","2219116.82326","2219883.57681","2220649.74294","2221416.77629","2225316.39208","2226083.90651","2226850.63874","2227616.88648","2228383.70125","2214516.63213","2215283.08424","2216050.21127","2227626.77879","Mapping"
"Mixed","Both","ball","9","F_depth.wav","None","720.612237114","127","2224550.40312","2216816.83374","2217583.56751","2218350.20296","2219116.82326","2219883.57681","2220649.74294","2221416.77629","2225316.39208","2226083.90651","2226850.63874","2227616.88648","2228383.70125","2229150.34474","2215283.08424","2216050.21127","2228394.21376","Mapping"
"Mixed","Both","ball","9","F_cad.wav","None","720.323778572","127","2224550.40312","2216816.83374","2217583.56751","2218350.20296","2219116.82326","2219883.57681","2220649.74294","2221416.77629","2225316.39208","2226083.90651","2226850.63874","2227616.88648","2228383.70125","2229150.34474","2229916.50376","2216050.21127","2229160.89775","Mapping"
"Mixed","Both","ball","9","M_ball.wav","None","721.679502982","127","2224550.40312","2216816.83374","2217583.56751","2218350.20296","2219116.82326","2219883.57681","2220649.74294","2221416.77629","2225316.39208","2226083.90651","2226850.63874","2227616.88648","2228383.70125","2229150.34474","2229916.50376","2230683.83732","2229926.01856","Mapping"
"Mixed","Both","ball","9","F_lash.wav","space","451.283115195","127","2224550.40312","2231450.49596","2217583.56751","2218350.20296","2219116.82326","2219883.57681","2220649.74294","2221416.77629","2225316.39208","2226083.90651","2226850.63874","2227616.88648","2228383.70125","2229150.34474","2229916.50376","2230683.83732","2230689.09017","Mapping"
"Mixed","Both","ball","9","F_ball.wav","None","719.025251106","127","2224550.40312","2231450.49596","2232217.25848","2218350.20296","2219116.82326","2219883.57681","2220649.74294","2221416.77629","2225316.39208","2226083.90651","2226850.63874","2227616.88648","2228383.70125","2229150.34474","2229916.50376","2230683.83732","2231460.30541","Mapping"
"Mixed","Both","ball","9","M_done.wav","space","553.136206581","127","2224550.40312","2231450.49596","2232217.25848","2232966.09669","2219116.82326","2219883.57681","2220649.74294","2221416.77629","2225316.39208","2226083.90651","2226850.63874","2227616.88648","2228383.70125","2229150.34474","2229916.50376","2230683.83732","2232227.23612","Mapping"
"Mixed","Both","ball","9","M_ball.wav","None","735.685667372","127","2224550.40312","2231450.49596","2232217.25848","2232966.09669","2233732.87034","2219883.57681","2220649.74294","2221416.77629","2225316.39208","2226083.90651","2226850.63874","2227616.88648","2228383.70125","2229150.34474","2229916.50376","2230683.83732","2232975.36075","Mapping"
"Mixed","Both","ball","9","M_lash.wav","space","493.355094921","127","2224550.40312","2231450.49596","2232217.25848","2232966.09669","2233732.87034","2234499.91173","2220649.74294","2221416.77629","2225316.39208","2226083.90651","2226850.63874","2227616.88648","2228383.70125","2229150.34474","2229916.50376","2230683.83732","2233742.99112","Mapping"
"Mixed","Both","ball","9","F_done.wav","None","733.243198949","127","2224550.40312","2231450.49596","2232217.25848","2232966.09669","2233732.87034","2234499.91173","2235266.60469","2221416.77629","2225316.39208","2226083.90651","2226850.63874","2227616.88648","2228383.70125","2229150.34474","2229916.50376","2230683.83732","2234509.64821","Mapping"
"Mixed","Both","ball","9","M_jaw.wav","None","732.954122126","127","2224550.40312","2231450.49596","2232217.25848","2232966.09669","2233732.87034","2234499.91173","2235266.60469","2236032.9727","2225316.39208","2226083.90651","2226850.63874","2227616.88648","2228383.70125","2229150.34474","2229916.50376","2230683.83732","2235276.41754","Mapping"
"Mixed","Both","cave","15","M_cling.wav","None","733.361612423","127","2239166.83697","2231450.49596","2232217.25848","2232966.09669","2233732.87034","2234499.91173","2235266.60469","2236032.9727","2225316.39208","2226083.90651","2226850.63874","2227616.88648","2228383.70125","2229150.34474","2229916.50376","2230683.83732","2236042.4164","Mapping"
"Mixed","Both","cave","15","M_cling.wav","None","721.523679793","127","2239166.83697","2231450.49596","2232217.25848","2232966.09669","2233732.87034","2234499.91173","2235266.60469","2236032.9727","2239933.17129","2226083.90651","2226850.63874","2227616.88648","2228383.70125","2229150.34474","2229916.50376","2230683.83732","2239176.89468","Mapping"
"Mixed","Both","cave","15","F_jaw.wav","None","722.886206","127","2239166.83697","2231450.49596","2232217.25848","2232966.09669","2233732.87034","2234499.91173","2235266.60469","2236032.9727","2239933.17129","2240700.21948","2226850.63874","2227616.88648","2228383.70125","2229150.34474","2229916.50376","2230683.83732","2239942.23841","Mapping"
"Mixed","Both","cave","15","F_dime.wav","None","718.965580687","127","2239166.83697","2231450.49596","2232217.25848","2232966.09669","2233732.87034","2234499.91173","2235266.60469","2236032.9727","2239933.17129","2240700.21948","2241466.89111","2227616.88648","2228383.70125","2229150.34474","2229916.50376","2230683.83732","2240712.52519","Mapping"
"Mixed","Both","cave","15","M_jaw.wav","None","721.626016079","127","2239166.83697","2231450.49596","2232217.25848","2232966.09669","2233732.87034","2234499.91173","2235266.60469","2236032.9727","2239933.17129","2240700.21948","2241466.89111","2242233.34724","2228383.70125","2229150.34474","2229916.50376","2230683.83732","2241476.80938","Mapping"
"Mixed","Both","cave","15","M_cave.wav","None","720.833914354","127","2239166.83697","2231450.49596","2232217.25848","2232966.09669","2233732.87034","2234499.91173","2235266.60469","2236032.9727","2239933.17129","2240700.21948","2241466.89111","2242233.34724","2242999.57798","2229150.34474","2229916.50376","2230683.83732","2242244.08729","Mapping"
"Mixed","Both","cave","15","F_gnash.wav","space","515.111922286","127","2239166.83697","2231450.49596","2232217.25848","2232966.09669","2233732.87034","2234499.91173","2235266.60469","2236032.9727","2239933.17129","2240700.21948","2241466.89111","2242233.34724","2242999.57798","2243766.65245","2229916.50376","2230683.83732","2243009.0597","Mapping"
"Mixed","Both","cave","15","F_cave.wav","None","720.191143337","127","2239166.83697","2231450.49596","2232217.25848","2232966.09669","2233732.87034","2234499.91173","2235266.60469","2236032.9727","2239933.17129","2240700.21948","2241466.89111","2242233.34724","2242999.57798","2243766.65245","2244532.88784","2230683.83732","2243776.71975","Mapping"
"Mixed","Both","cave","15","F_gnash.wav","space","501.9535108","127","2239166.83697","2231450.49596","2232217.25848","2232966.09669","2233732.87034","2234499.91173","2235266.60469","2236032.9727","2239933.17129","2240700.21948","2241466.89111","2242233.34724","2242999.57798","2243766.65245","2244532.88784","2245282.71076","2244542.1822","Mapping"
"Mixed","Both","cave","15","M_jolt.wav","None","736.221155268","127","2239166.83697","2246049.5886","2232217.25848","2232966.09669","2233732.87034","2234499.91173","2235266.60469","2236032.9727","2239933.17129","2240700.21948","2241466.89111","2242233.34724","2242999.57798","2243766.65245","2244532.88784","2245282.71076","2245292.10467","Mapping"
"Mixed","Both","cave","15","F_gnash.wav","None","734.761239379","127","2239166.83697","2246049.5886","2246816.31495","2232966.09669","2233732.87034","2234499.91173","2235266.60469","2236032.9727","2239933.17129","2240700.21948","2241466.89111","2242233.34724","2242999.57798","2243766.65245","2244532.88784","2245282.71076","2246060.02505","Mapping"
"Mixed","Both","cave","15","M_cave.wav","None","735.058973194","127","2239166.83697","2246049.5886","2246816.31495","2247582.79241","2233732.87034","2234499.91173","2235266.60469","2236032.9727","2239933.17129","2240700.21948","2241466.89111","2242233.34724","2242999.57798","2243766.65245","2244532.88784","2245282.71076","2246826.0066","Mapping"
"Mixed","Both","cave","15","F_cad.wav","space","475.212502526","127","2239166.83697","2246049.5886","2246816.31495","2247582.79241","2248349.63191","2234499.91173","2235266.60469","2236032.9727","2239933.17129","2240700.21948","2241466.89111","2242233.34724","2242999.57798","2243766.65245","2244532.88784","2245282.71076","2247592.86991","Mapping"
"Mixed","Both","cave","15","M_park.wav","None","732.550651068","127","2239166.83697","2246049.5886","2246816.31495","2247582.79241","2248349.63191","2249116.1944","2235266.60469","2236032.9727","2239933.17129","2240700.21948","2241466.89111","2242233.34724","2242999.57798","2243766.65245","2244532.88784","2245282.71076","2248359.95366","Mapping"
"Mixed","Both","cave","15","F_cave.wav","None","733.086448163","127","2239166.83697","2246049.5886","2246816.31495","2247582.79241","2248349.63191","2249116.1944","2249882.96527","2236032.9727","2239933.17129","2240700.21948","2241466.89111","2242233.34724","2242999.57798","2243766.65245","2244532.88784","2245282.71076","2249126.00941","Mapping"
"Mixed","Both","cave","15","M_cling.wav","space","551.273128833","127","2239166.83697","2246049.5886","2246816.31495","2247582.79241","2248349.63191","2249116.1944","2249882.96527","2250649.58248","2239933.17129","2240700.21948","2241466.89111","2242233.34724","2242999.57798","2243766.65245","2244532.88784","2245282.71076","2249892.76637","Mapping"
"Mixed","Both","tile","34","F_park.wav","None","731.070020585","127","2253783.36419","2246049.5886","2246816.31495","2247582.79241","2248349.63191","2249116.1944","2249882.96527","2250649.58248","2239933.17129","2240700.21948","2241466.89111","2242233.34724","2242999.57798","2243766.65245","2244532.88784","2245282.71076","2250659.48931","Mapping"
"Mixed","Both","tile","34","F_reek.wav","None","721.639310475","127","2253783.36419","2246049.5886","2246816.31495","2247582.79241","2248349.63191","2249116.1944","2249882.96527","2250649.58248","2254550.05901","2240700.21948","2241466.89111","2242233.34724","2242999.57798","2243766.65245","2244532.88784","2245282.71076","2253793.49549","Mapping"
"Mixed","Both","tile","34","F_priest.wav","None","721.588606015","127","2253783.36419","2246049.5886","2246816.31495","2247582.79241","2248349.63191","2249116.1944","2249882.96527","2250649.58248","2254550.05901","2255316.66879","2241466.89111","2242233.34724","2242999.57798","2243766.65245","2244532.88784","2245282.71076","2254560.3353","Mapping"
"Mixed","Both","tile","34","M_tile.wav","None","721.461535897","127","2253783.36419","2246049.5886","2246816.31495","2247582.79241","2248349.63191","2249116.1944","2249882.96527","2250649.58248","2254550.05901","2255316.66879","2256083.39329","2242233.34724","2242999.57798","2243766.65245","2244532.88784","2245282.71076","2255327.09164","Mapping"
"Mixed","Both","tile","34","M_ball.wav","space","638.420706149","127","2253783.36419","2246049.5886","2246816.31495","2247582.79241","2248349.63191","2249116.1944","2249882.96527","2250649.58248","2254550.05901","2255316.66879","2256083.39329","2256848.95962","2242999.57798","2243766.65245","2244532.88784","2245282.71076","2256093.45687","Mapping"
"Mixed","Both","tile","34","M_park.wav","None","725.900953985","127","2253783.36419","2246049.5886","2246816.31495","2247582.79241","2248349.63191","2249116.1944","2249882.96527","2250649.58248","2254550.05901","2255316.66879","2256083.39329","2256848.95962","2257615.78119","2243766.65245","2244532.88784","2245282.71076","2256858.13124","Mapping"
"Mixed","Both","tile","34","F_tile.wav","None","725.730908569","127","2253783.36419","2246049.5886","2246816.31495","2247582.79241","2248349.63191","2249116.1944","2249882.96527","2250649.58248","2254550.05901","2255316.66879","2256083.39329","2256848.95962","2257615.78119","2258382.87453","2244532.88784","2245282.71076","2257624.92437","Mapping"
"Mixed","Both","tile","34","F_dime.wav","None","725.170068443","127","2253783.36419","2246049.5886","2246816.31495","2247582.79241","2248349.63191","2249116.1944","2249882.96527","2250649.58248","2254550.05901","2255316.66879","2256083.39329","2256848.95962","2257615.78119","2258382.87453","2259149.37889","2245282.71076","2258392.23814","Mapping"
"Mixed","Both","tile","34","M_cad.wav","None","721.482868888","127","2253783.36419","2246049.5886","2246816.31495","2247582.79241","2248349.63191","2249116.1944","2249882.96527","2250649.58248","2254550.05901","2255316.66879","2256083.39329","2256848.95962","2257615.78119","2258382.87453","2259149.37889","2259915.96642","2259162.63098","Mapping"
"Mixed","Both","tile","34","F_done.wav","None","724.96848763","127","2253783.36419","2260682.38915","2246816.31495","2247582.79241","2248349.63191","2249116.1944","2249882.96527","2250649.58248","2254550.05901","2255316.66879","2256083.39329","2256848.95962","2257615.78119","2258382.87453","2259149.37889","2259915.96642","2259925.89768","Mapping"
"Mixed","Both","tile","34","M_lash.wav","None","729.688325548","127","2253783.36419","2260682.38915","2261449.82413","2247582.79241","2248349.63191","2249116.1944","2249882.96527","2250649.58248","2254550.05901","2255316.66879","2256083.39329","2256848.95962","2257615.78119","2258382.87453","2259149.37889","2259915.96642","2260687.93263","Mapping"
"Mixed","Both","tile","34","M_jolt.wav","None","724.530698266","127","2253783.36419","2260682.38915","2261449.82413","2262215.98561","2248349.63191","2249116.1944","2249882.96527","2250649.58248","2254550.05901","2255316.66879","2256083.39329","2256848.95962","2257615.78119","2258382.87453","2259149.37889","2259915.96642","2261459.68768","Mapping"
"Mixed","Both","tile","34","F_tile.wav","None","724.993221462","127","2253783.36419","2260682.38915","2261449.82413","2262215.98561","2262982.74999","2249116.1944","2249882.96527","2250649.58248","2254550.05901","2255316.66879","2256083.39329","2256848.95962","2257615.78119","2258382.87453","2259149.37889","2259915.96642","2262225.99139","Mapping"
"Mixed","Both","tile","34","F_jaw.wav","space","505.496944883","127","2253783.36419","2260682.38915","2261449.82413","2262215.98561","2262982.74999","2263749.73821","2249882.96527","2250649.58248","2254550.05901","2255316.66879","2256083.39329","2256848.95962","2257615.78119","2258382.87453","2259149.37889","2259915.96642","2262994.30441","Mapping"
"Mixed","Both","tile","34","M_tile.wav","None","717.111778213","127","2253783.36419","2260682.38915","2261449.82413","2262215.98561","2262982.74999","2263749.73821","2264516.42931","2250649.58248","2254550.05901","2255316.66879","2256083.39329","2256848.95962","2257615.78119","2258382.87453","2259149.37889","2259915.96642","2263765.75647","Mapping"
