"Condition","Talker","Target","Trial","current_stimulus","response_response","response_time_response","subject_nr","time_Audio1","time_Audio10","time_Audio11","time_Audio12","time_Audio13","time_Audio14","time_Audio15","time_Audio16","time_Audio2","time_Audio3","time_Audio4","time_Audio5","time_Audio6","time_Audio7","time_Audio8","time_Audio9","time_response","title"
"Mixed","Both","tile","32","M_park.wav","NA","NA","103","216773.584282","NA","NA","NA","NA","NA","NA","NA","NA","NA","NA","NA","NA","NA","NA","NA","NA","Mapping"
"Mixed","Both","tile","32","F_reek.wav","None","715.435964055","103","216773.584282","NA","NA","NA","NA","NA","NA","NA","217524.608643","NA","NA","NA","NA","NA","NA","NA","216787.838933","Mapping"
"Mixed","Both","tile","32","F_tile.wav","None","732.748628594","103","216773.584282","NA","NA","NA","NA","NA","NA","NA","217524.608643","218291.401978","NA","NA","NA","NA","NA","NA","217534.061555","Mapping"
"Mixed","Both","tile","32","M_gnash.wav","space","482.283093967","103","216773.584282","NA","NA","NA","NA","NA","NA","NA","217524.608643","218291.401978","219058.601254","NA","NA","NA","NA","NA","218300.670623","Mapping"
"Mixed","Both","tile","32","M_park.wav","None","725.139922928","103","216773.584282","NA","NA","NA","NA","NA","NA","NA","217524.608643","218291.401978","219058.601254","219825.842577","NA","NA","NA","NA","219068.567081","Mapping"
"Mixed","Both","tile","32","M_tile.wav","None","720.529560931","103","216773.584282","NA","NA","NA","NA","NA","NA","NA","217524.608643","218291.401978","219058.601254","219825.842577","220576.387723","NA","NA","NA","219836.67934","Mapping"
"Mixed","Both","tile","32","F_knife.wav","space","476.398327388","103","216773.584282","NA","NA","NA","NA","NA","NA","NA","217524.608643","218291.401978","219058.601254","219825.842577","220576.387723","221343.510325","NA","NA","220586.482475","Mapping"
"Mixed","Both","tile","32","M_priest.wav","None","731.198752765","103","216773.584282","NA","NA","NA","NA","NA","NA","NA","217524.608643","218291.401978","219058.601254","219825.842577","220576.387723","221343.510325","222110.961885","NA","221353.060935","Mapping"
"Mixed","Both","tile","32","M_gnash.wav","None","727.403056808","103","216773.584282","NA","NA","NA","NA","NA","NA","NA","217524.608643","218291.401978","219058.601254","219825.842577","220576.387723","221343.510325","222110.961885","222878.318529","222120.35389","Mapping"
"Mixed","Both","tile","32","F_knife.wav","None","723.071567249","103","216773.584282","223645.413923","NA","NA","NA","NA","NA","NA","217524.608643","218291.401978","219058.601254","219825.842577","220576.387723","221343.510325","222110.961885","222878.318529","222888.016304","Mapping"
"Mixed","Both","tile","32","F_tile.wav","None","719.162714668","103","216773.584282","223645.413923","224395.853333","NA","NA","NA","NA","NA","217524.608643","218291.401978","219058.601254","219825.842577","220576.387723","221343.510325","222110.961885","222878.318529","223655.399538","Mapping"
"Mixed","Both","tile","32","F_gnash.wav","space","457.812805194","103","216773.584282","223645.413923","224395.853333","225162.937597","NA","NA","NA","NA","217524.608643","218291.401978","219058.601254","219825.842577","220576.387723","221343.510325","222110.961885","222878.318529","224404.991818","Mapping"
"Mixed","Both","tile","32","M_jolt.wav","None","729.071963578","103","216773.584282","223645.413923","224395.853333","225162.937597","225930.227151","NA","NA","NA","217524.608643","218291.401978","219058.601254","219825.842577","220576.387723","221343.510325","222110.961885","222878.318529","225172.56179","Mapping"
"Mixed","Both","tile","32","F_depth.wav","None","725.920271594","103","216773.584282","223645.413923","224395.853333","225162.937597","225930.227151","226697.441268","NA","NA","217524.608643","218291.401978","219058.601254","219825.842577","220576.387723","221343.510325","222110.961885","222878.318529","225939.883807","Mapping"
"Mixed","Both","tile","32","M_tile.wav","None","721.676277462","103","216773.584282","223645.413923","224395.853333","225162.937597","225930.227151","226697.441268","227447.892426","NA","217524.608643","218291.401978","219058.601254","219825.842577","220576.387723","221343.510325","222110.961885","222878.318529","226707.705136","Mapping"
"Mixed","Both","tile","32","F_depth.wav","space","437.437489629","103","216773.584282","223645.413923","224395.853333","225162.937597","225930.227151","226697.441268","227447.892426","228215.069132","217524.608643","218291.401978","219058.601254","219825.842577","220576.387723","221343.510325","222110.961885","222878.318529","227457.31102","Mapping"
"Mixed","Both","done","39","M_gnash.wav","None","731.829462573","103","231350.780797","223645.413923","224395.853333","225162.937597","225930.227151","226697.441268","227447.892426","228215.069132","217524.608643","218291.401978","219058.601254","219825.842577","220576.387723","221343.510325","222110.961885","222878.318529","228224.453717","Mapping"
"Mixed","Both","done","39","M_greet.wav","None","736.465485767","103","231350.780797","223645.413923","224395.853333","225162.937597","225930.227151","226697.441268","227447.892426","228215.069132","232118.209787","218291.401978","219058.601254","219825.842577","220576.387723","221343.510325","222110.961885","222878.318529","231360.011105","Mapping"
"Mixed","Both","done","39","F_reek.wav","None","731.788033154","103","231350.780797","223645.413923","224395.853333","225162.937597","225930.227151","226697.441268","227447.892426","228215.069132","232118.209787","232885.385566","219058.601254","219825.842577","220576.387723","221343.510325","222110.961885","222878.318529","232128.206222","Mapping"
"Mixed","Both","done","39","F_done.wav","None","728.759391233","103","231350.780797","223645.413923","224395.853333","225162.937597","225930.227151","226697.441268","227447.892426","228215.069132","232118.209787","232885.385566","233653.288825","219825.842577","220576.387723","221343.510325","222110.961885","222878.318529","232894.921027","Mapping"
"Mixed","Both","done","39","M_jolt.wav","space","359.228283633","103","231350.780797","223645.413923","224395.853333","225162.937597","225930.227151","226697.441268","227447.892426","228215.069132","232118.209787","232885.385566","233653.288825","234419.937158","220576.387723","221343.510325","222110.961885","222878.318529","233663.373684","Mapping"
"Mixed","Both","done","39","F_done.wav","None","720.733304508","103","231350.780797","223645.413923","224395.853333","225162.937597","225930.227151","226697.441268","227447.892426","228215.069132","232118.209787","232885.385566","233653.288825","234419.937158","235170.266193","221343.510325","222110.961885","222878.318529","234429.650702","Mapping"
"Mixed","Both","done","39","F_jolt.wav","space","482.623800635","103","231350.780797","223645.413923","224395.853333","225162.937597","225930.227151","226697.441268","227447.892426","228215.069132","232118.209787","232885.385566","233653.288825","234419.937158","235170.266193","235937.291715","222110.961885","222878.318529","235179.980046","Mapping"
"Mixed","Both","done","39","F_lash.wav","None","730.841350742","103","231350.780797","223645.413923","224395.853333","225162.937597","225930.227151","226697.441268","227447.892426","228215.069132","232118.209787","232885.385566","233653.288825","234419.937158","235170.266193","235937.291715","236705.087383","222878.318529","235946.25861","Mapping"
"Mixed","Both","done","39","F_tile.wav","None","725.768159144","103","231350.780797","223645.413923","224395.853333","225162.937597","225930.227151","226697.441268","227447.892426","228215.069132","232118.209787","232885.385566","233653.288825","234419.937158","235170.266193","235937.291715","236705.087383","237472.104248","236714.689934","Mapping"
"Mixed","Both","done","39","M_done.wav","None","722.696542274","103","231350.780797","238222.374232","224395.853333","225162.937597","225930.227151","226697.441268","227447.892426","228215.069132","232118.209787","232885.385566","233653.288825","234419.937158","235170.266193","235937.291715","236705.087383","237472.104248","237481.65795","Mapping"
"Mixed","Both","done","39","F_greet.wav","space","445.322284941","103","231350.780797","238222.374232","238989.903084","225162.937597","225930.227151","226697.441268","227447.892426","228215.069132","232118.209787","232885.385566","233653.288825","234419.937158","235170.266193","235937.291715","236705.087383","237472.104248","238232.162594","Mapping"
"Mixed","Both","done","39","M_done.wav","None","730.32967234","103","231350.780797","238222.374232","238989.903084","239757.200676","225930.227151","226697.441268","227447.892426","228215.069132","232118.209787","232885.385566","233653.288825","234419.937158","235170.266193","235937.291715","236705.087383","237472.104248","239000.279182","Mapping"
"Mixed","Both","done","39","M_reek.wav","space","431.345887482","103","231350.780797","238222.374232","238989.903084","239757.200676","240524.530732","226697.441268","227447.892426","228215.069132","232118.209787","232885.385566","233653.288825","234419.937158","235170.266193","235937.291715","236705.087383","237472.104248","239767.081173","Mapping"
"Mixed","Both","done","39","M_depth.wav","None","723.428969271","103","231350.780797","238222.374232","238989.903084","239757.200676","240524.530732","241291.458556","227447.892426","228215.069132","232118.209787","232885.385566","233653.288825","234419.937158","235170.266193","235937.291715","236705.087383","237472.104248","240534.339501","Mapping"
"Mixed","Both","done","39","M_bluff.wav","None","720.277276821","103","231350.780797","238222.374232","238989.903084","239757.200676","240524.530732","241291.458556","242042.311328","228215.069132","232118.209787","232885.385566","233653.288825","234419.937158","235170.266193","235937.291715","236705.087383","237472.104248","241301.172409","Mapping"
"Mixed","Both","done","39","F_jaw.wav","None","733.552782796","103","231350.780797","238222.374232","238989.903084","239757.200676","240524.530732","241291.458556","242042.311328","242809.427127","232118.209787","232885.385566","233653.288825","234419.937158","235170.266193","235937.291715","236705.087383","237472.104248","242051.466199","Mapping"
"Mixed","Both","cave","20","F_knife.wav","None","729.205525946","103","245944.989771","238222.374232","238989.903084","239757.200676","240524.530732","241291.458556","242042.311328","242809.427127","232118.209787","232885.385566","233653.288825","234419.937158","235170.266193","235937.291715","236705.087383","237472.104248","242819.341632","Mapping"
"Mixed","Both","cave","20","M_cave.wav","None","720.255635213","103","245944.989771","238222.374232","238989.903084","239757.200676","240524.530732","241291.458556","242042.311328","242809.427127","246695.637562","232885.385566","233653.288825","234419.937158","235170.266193","235937.291715","236705.087383","237472.104248","245954.46247","Mapping"
"Mixed","Both","cave","20","M_jaw.wav","space","644.833299331","103","245944.989771","238222.374232","238989.903084","239757.200676","240524.530732","241291.458556","242042.311328","242809.427127","246695.637562","247463.312962","233653.288825","234419.937158","235170.266193","235937.291715","236705.087383","237472.104248","246705.448186","Mapping"
"Mixed","Both","cave","20","M_greet.wav","None","728.21896011","103","245944.989771","238222.374232","238989.903084","239757.200676","240524.530732","241291.458556","242042.311328","242809.427127","246695.637562","247463.312962","248229.981082","234419.937158","235170.266193","235937.291715","236705.087383","237472.104248","247473.217883","Mapping"
"Mixed","Both","cave","20","F_bluff.wav","None","725.195264909","103","245944.989771","238222.374232","238989.903084","239757.200676","240524.530732","241291.458556","242042.311328","242809.427127","246695.637562","247463.312962","248229.981082","248997.290114","235170.266193","235937.291715","236705.087383","237472.104248","248239.845501","Mapping"
"Mixed","Both","cave","20","F_cave.wav","None","721.875692718","103","245944.989771","238222.374232","238989.903084","239757.200676","240524.530732","241291.458556","242042.311328","242809.427127","246695.637562","247463.312962","248229.981082","248997.290114","249747.861849","235937.291715","236705.087383","237472.104248","249006.58875","Mapping"
"Mixed","Both","cave","20","F_depth.wav","space","432.784461416","103","245944.989771","238222.374232","238989.903084","239757.200676","240524.530732","241291.458556","242042.311328","242809.427127","246695.637562","247463.312962","248229.981082","248997.290114","249747.861849","250515.261777","236705.087383","237472.104248","249757.435028","Mapping"
"Mixed","Both","cave","20","M_bluff.wav","None","730.14324205","103","245944.989771","238222.374232","238989.903084","239757.200676","240524.530732","241291.458556","242042.311328","242809.427127","246695.637562","247463.312962","248229.981082","248997.290114","249747.861849","250515.261777","251282.239686","237472.104248","250525.20689","Mapping"
"Mixed","Both","cave","20","M_cave.wav","None","727.295465302","103","245944.989771","238222.374232","238989.903084","239757.200676","240524.530732","241291.458556","242042.311328","242809.427127","246695.637562","247463.312962","248229.981082","248997.290114","249747.861849","250515.261777","251282.239686","252049.888188","251291.676213","Mapping"
"Mixed","Both","cave","20","M_knife.wav","space","562.804282177","103","245944.989771","252800.425605","238989.903084","239757.200676","240524.530732","241291.458556","242042.311328","242809.427127","246695.637562","247463.312962","248229.981082","248997.290114","249747.861849","250515.261777","251282.239686","252049.888188","252059.373254","Mapping"
"Mixed","Both","cave","20","F_romp.wav","None","735.308567062","103","245944.989771","252800.425605","253567.150612","239757.200676","240524.530732","241291.458556","242042.311328","242809.427127","246695.637562","247463.312962","248229.981082","248997.290114","249747.861849","250515.261777","251282.239686","252049.888188","252810.208403","Mapping"
"Mixed","Both","cave","20","F_cave.wav","None","732.049283106","103","245944.989771","252800.425605","253567.150612","254334.738517","240524.530732","241291.458556","242042.311328","242809.427127","246695.637562","247463.312962","248229.981082","248997.290114","249747.861849","250515.261777","251282.239686","252049.888188","253576.934956","Mapping"
"Mixed","Both","cave","20","M_lash.wav","space","389.812125824","103","245944.989771","252800.425605","253567.150612","254334.738517","255101.714571","241291.458556","242042.311328","242809.427127","246695.637562","247463.312962","248229.981082","248997.290114","249747.861849","250515.261777","251282.239686","252049.888188","254344.271504","Mapping"
"Mixed","Both","cave","20","M_depth.wav","None","724.768299144","103","245944.989771","252800.425605","253567.150612","254334.738517","255101.714571","255869.166131","242042.311328","242809.427127","246695.637562","247463.312962","248229.981082","248997.290114","249747.861849","250515.261777","251282.239686","252049.888188","255111.148006","Mapping"
"Mixed","Both","cave","20","F_cad.wav","None","721.000428777","103","245944.989771","252800.425605","253567.150612","254334.738517","255101.714571","255869.166131","256619.764145","242809.427127","246695.637562","247463.312962","248229.981082","248997.290114","249747.861849","250515.261777","251282.239686","252049.888188","255878.507123","Mapping"
"Mixed","Both","cave","20","F_cling.wav","None","733.487548307","103","245944.989771","252800.425605","253567.150612","254334.738517","255101.714571","255869.166131","256619.764145","257386.738654","246695.637562","247463.312962","248229.981082","248997.290114","249747.861849","250515.261777","251282.239686","252049.888188","256629.586827","Mapping"
"Mixed","Both","ball","5","F_romp.wav","None","730.570516549","103","260522.428058","252800.425605","253567.150612","254334.738517","255101.714571","255869.166131","256619.764145","257386.738654","246695.637562","247463.312962","248229.981082","248997.290114","249747.861849","250515.261777","251282.239686","252049.888188","257396.05986","Mapping"
"Mixed","Both","ball","5","F_tile.wav","None","720.095793717","103","260522.428058","252800.425605","253567.150612","254334.738517","255101.714571","255869.166131","256619.764145","257386.738654","261272.810271","247463.312962","248229.981082","248997.290114","249747.861849","250515.261777","251282.239686","252049.888188","260532.073275","Mapping"
"Mixed","Both","ball","5","F_priest.wav","None","731.743821874","103","260522.428058","252800.425605","253567.150612","254334.738517","255101.714571","255869.166131","256619.764145","257386.738654","261272.810271","262040.467121","248229.981082","248997.290114","249747.861849","250515.261777","251282.239686","252049.888188","261283.854797","Mapping"
"Mixed","Both","ball","5","M_tile.wav","None","729.121431243","103","260522.428058","252800.425605","253567.150612","254334.738517","255101.714571","255869.166131","256619.764145","257386.738654","261272.810271","262040.467121","262807.509338","248997.290114","249747.861849","250515.261777","251282.239686","252049.888188","262050.158095","Mapping"
"Mixed","Both","ball","5","M_tile.wav","None","725.85101705","103","260522.428058","252800.425605","253567.150612","254334.738517","255101.714571","255869.166131","256619.764145","257386.738654","261272.810271","262040.467121","262807.509338","263574.949458","249747.861849","250515.261777","251282.239686","252049.888188","262817.060567","Mapping"
"Mixed","Both","ball","5","M_ball.wav","None","722.448896151","103","260522.428058","252800.425605","253567.150612","254334.738517","255101.714571","255869.166131","256619.764145","257386.738654","261272.810271","262040.467121","262807.509338","263574.949458","264324.897904","250515.261777","251282.239686","252049.888188","263584.239437","Mapping"
"Mixed","Both","ball","5","M_jaw.wav","space","454.858672805","103","260522.428058","252800.425605","253567.150612","254334.738517","255101.714571","255869.166131","256619.764145","257386.738654","261272.810271","262040.467121","262807.509338","263574.949458","264324.897904","265092.47035","251282.239686","252049.888188","264334.012583","Mapping"
"Mixed","Both","ball","5","M_jaw.wav","None","731.696828268","103","260522.428058","252800.425605","253567.150612","254334.738517","255101.714571","255869.166131","256619.764145","257386.738654","261272.810271","262040.467121","262807.509338","263574.949458","264324.897904","265092.47035","265859.90676","252049.888188","265102.362903","Mapping"
"Mixed","Both","ball","5","F_tile.wav","None","727.859084494","103","260522.428058","252800.425605","253567.150612","254334.738517","255101.714571","255869.166131","256619.764145","257386.738654","261272.810271","262040.467121","262807.509338","263574.949458","264324.897904","265092.47035","265859.90676","266626.693293","265869.820338","Mapping"
"Mixed","Both","ball","5","F_ball.wav","space","512.618980836","103","260522.428058","267394.352306","253567.150612","254334.738517","255101.714571","255869.166131","256619.764145","257386.738654","261272.810271","262040.467121","262807.509338","263574.949458","264324.897904","265092.47035","265859.90676","266626.693293","266636.205566","Mapping"
"Mixed","Both","ball","5","M_depth.wav","None","720.603762195","103","260522.428058","267394.352306","268144.451318","254334.738517","255101.714571","255869.166131","256619.764145","257386.738654","261272.810271","262040.467121","262807.509338","263574.949458","264324.897904","265092.47035","265859.90676","266626.693293","267403.973717","Mapping"
"Mixed","Both","ball","5","M_ball.wav","None","734.576758463","103","260522.428058","267394.352306","268144.451318","268912.019436","255101.714571","255869.166131","256619.764145","257386.738654","261272.810271","262040.467121","262807.509338","263574.949458","264324.897904","265092.47035","265859.90676","266626.693293","268153.480666","Mapping"
"Mixed","Both","ball","5","F_cave.wav","space","420.271063223","103","260522.428058","267394.352306","268144.451318","268912.019436","269679.232006","255869.166131","256619.764145","257386.738654","261272.810271","262040.467121","262807.509338","263574.949458","264324.897904","265092.47035","265859.90676","266626.693293","268921.487497","Mapping"
"Mixed","Both","ball","5","M_reek.wav","None","726.936517749","103","260522.428058","267394.352306","268144.451318","268912.019436","269679.232006","270446.344405","256619.764145","257386.738654","261272.810271","262040.467121","262807.509338","263574.949458","264324.897904","265092.47035","265859.90676","266626.693293","269688.749535","Mapping"
"Mixed","Both","ball","5","F_ball.wav","None","723.930445034","103","260522.428058","267394.352306","268144.451318","268912.019436","269679.232006","270446.344405","271213.767212","257386.738654","261272.810271","262040.467121","262807.509338","263574.949458","264324.897904","265092.47035","265859.90676","266626.693293","270455.554","Mapping"
"Mixed","Both","ball","5","F_done.wav","space","429.781171493","103","260522.428058","267394.352306","268144.451318","268912.019436","269679.232006","270446.344405","271213.767212","271963.905489","261272.810271","262040.467121","262807.509338","263574.949458","264324.897904","265092.47035","265859.90676","266626.693293","271223.880205","Mapping"
"Mixed","Both","tile","29","F_bluff.wav","None","733.045123518","103","275099.39455","267394.352306","268144.451318","268912.019436","269679.232006","270446.344405","271213.767212","271963.905489","261272.810271","262040.467121","262807.509338","263574.949458","264324.897904","265092.47035","265859.90676","266626.693293","271973.540194","Mapping"
"Mixed","Both","tile","29","F_gnash.wav","None","721.456456464","103","275099.39455","267394.352306","268144.451318","268912.019436","269679.232006","270446.344405","271213.767212","271963.905489","275850.238356","262040.467121","262807.509338","263574.949458","264324.897904","265092.47035","265859.90676","266626.693293","275108.58714","Mapping"
"Mixed","Both","tile","29","F_tile.wav","None","734.368068166","103","275099.39455","267394.352306","268144.451318","268912.019436","269679.232006","270446.344405","271213.767212","271963.905489","275850.238356","276617.400531","262807.509338","263574.949458","264324.897904","265092.47035","265859.90676","266626.693293","275859.601299","Mapping"
"Mixed","Both","tile","29","F_reek.wav","space","403.047130443","103","275099.39455","267394.352306","268144.451318","268912.019436","269679.232006","270446.344405","271213.767212","271963.905489","275850.238356","276617.400531","277385.124471","263574.949458","264324.897904","265092.47035","265859.90676","266626.693293","276626.473163","Mapping"
"Mixed","Both","tile","29","M_ball.wav","None","726.974236313","103","275099.39455","267394.352306","268144.451318","268912.019436","269679.232006","270446.344405","271213.767212","271963.905489","275850.238356","276617.400531","277385.124471","278152.269333","264324.897904","265092.47035","265859.90676","266626.693293","277394.308404","Mapping"
"Mixed","Both","tile","29","F_bluff.wav","None","723.500388209","103","275099.39455","267394.352306","268144.451318","268912.019436","269679.232006","270446.344405","271213.767212","271963.905489","275850.238356","276617.400531","277385.124471","278152.269333","278918.849648","265092.47035","265859.90676","266626.693293","278161.691328","Mapping"
"Mixed","Both","tile","29","M_jaw.wav","None","725.678808521","103","275099.39455","267394.352306","268144.451318","268912.019436","269679.232006","270446.344405","271213.767212","271963.905489","275850.238356","276617.400531","277385.124471","278152.269333","278918.849648","279669.970471","265859.90676","266626.693293","278923.291821","Mapping"
"Mixed","Both","tile","29","F_tile.wav","None","732.390917372","103","275099.39455","267394.352306","268144.451318","268912.019436","269679.232006","270446.344405","271213.767212","271963.905489","275850.238356","276617.400531","277385.124471","278152.269333","278918.849648","279669.970471","280437.150578","266626.693293","279680.132313","Mapping"
"Mixed","Both","tile","29","F_jolt.wav","space","383.197715506","103","275099.39455","267394.352306","268144.451318","268912.019436","269679.232006","270446.344405","271213.767212","271963.905489","275850.238356","276617.400531","277385.124471","278152.269333","278918.849648","279669.970471","280437.150578","281204.167135","280446.232794","Mapping"
"Mixed","Both","tile","29","M_cad.wav","None","726.607559249","103","275099.39455","281971.514813","268144.451318","268912.019436","269679.232006","270446.344405","271213.767212","271963.905489","275850.238356","276617.400531","277385.124471","278152.269333","278918.849648","279669.970471","280437.150578","281204.167135","281213.860891","Mapping"
"Mixed","Both","tile","29","M_tile.wav","None","723.460504785","103","275099.39455","281971.514813","282722.108499","268912.019436","269679.232006","270446.344405","271213.767212","271963.905489","275850.238356","276617.400531","277385.124471","278152.269333","278918.849648","279669.970471","280437.150578","281204.167135","281980.644641","Mapping"
"Mixed","Both","tile","29","M_ball.wav","space","545.736172237","103","275099.39455","281971.514813","282722.108499","283489.481529","269679.232006","270446.344405","271213.767212","271963.905489","275850.238356","276617.400531","277385.124471","278152.269333","278918.849648","279669.970471","280437.150578","281204.167135","282731.667147","Mapping"
"Mixed","Both","tile","29","M_dime.wav","None","732.581057586","103","275099.39455","281971.514813","282722.108499","283489.481529","284256.479535","270446.344405","271213.767212","271963.905489","275850.238356","276617.400531","277385.124471","278152.269333","278918.849648","279669.970471","280437.150578","281204.167135","283498.821903","Mapping"
"Mixed","Both","tile","29","M_tile.wav","None","729.191303719","103","275099.39455","281971.514813","282722.108499","283489.481529","284256.479535","285024.020136","271213.767212","271963.905489","275850.238356","276617.400531","277385.124471","278152.269333","278918.849648","279669.970471","280437.150578","281204.167135","284266.165253","Mapping"
"Mixed","Both","tile","29","F_depth.wav","space","563.768897206","103","275099.39455","281971.514813","282722.108499","283489.481529","284256.479535","285024.020136","285791.476024","271963.905489","275850.238356","276617.400531","277385.124471","278152.269333","278918.849648","279669.970471","280437.150578","281204.167135","285033.585586","Mapping"
"Mixed","Both","tile","29","M_jaw.wav","None","721.328150481","103","275099.39455","281971.514813","282722.108499","283489.481529","284256.479535","285024.020136","285791.476024","286541.654184","275850.238356","276617.400531","277385.124471","278152.269333","278918.849648","279669.970471","280437.150578","281204.167135","285801.079502","Mapping"
"Mixed","Both","done","47","F_dime.wav","None","734.832442831","103","289660.835078","281971.514813","282722.108499","283489.481529","284256.479535","285024.020136","285791.476024","286541.654184","275850.238356","276617.400531","277385.124471","278152.269333","278918.849648","279669.970471","280437.150578","281204.167135","286551.196756","Mapping"
"Mixed","Both","done","47","F_romp.wav","None","736.262051389","103","289660.835078","281971.514813","282722.108499","283489.481529","284256.479535","285024.020136","285791.476024","286541.654184","290427.923052","276617.400531","277385.124471","278152.269333","278918.849648","279669.970471","280437.150578","281204.167135","289670.074662","Mapping"
"Mixed","Both","done","47","M_park.wav","None","732.513039839","103","289660.835078","281971.514813","282722.108499","283489.481529","284256.479535","285024.020136","285791.476024","286541.654184","290427.923052","291195.234867","277385.124471","278152.269333","278918.849648","279669.970471","280437.150578","281204.167135","290437.889189","Mapping"
"Mixed","Both","done","47","F_cad.wav","None","729.960521683","103","289660.835078","281971.514813","282722.108499","283489.481529","284256.479535","285024.020136","285791.476024","286541.654184","290427.923052","291195.234867","291962.304291","278152.269333","278918.849648","279669.970471","280437.150578","281204.167135","291204.300696","Mapping"
"Mixed","Both","done","47","F_done.wav","None","726.139164995","103","289660.835078","281971.514813","282722.108499","283489.481529","284256.479535","285024.020136","285791.476024","286541.654184","290427.923052","291195.234867","291962.304291","292729.707929","278918.849648","279669.970471","280437.150578","281204.167135","291971.818728","Mapping"
"Mixed","Both","done","47","M_depth.wav","space","369.735160843","103","289660.835078","281971.514813","282722.108499","283489.481529","284256.479535","285024.020136","285791.476024","286541.654184","290427.923052","291195.234867","291962.304291","292729.707929","293479.800758","279669.970471","280437.150578","281204.167135","292739.481143","Mapping"
"Mixed","Both","done","47","F_jaw.wav","None","735.401936807","103","289660.835078","281971.514813","282722.108499","283489.481529","284256.479535","285024.020136","285791.476024","286541.654184","290427.923052","291195.234867","291962.304291","292729.707929","293479.800758","294247.17688","280437.150578","281204.167135","293489.991043","Mapping"
"Mixed","Both","done","47","F_ball.wav","None","732.580748852","103","289660.835078","281971.514813","282722.108499","283489.481529","284256.479535","285024.020136","285791.476024","286541.654184","290427.923052","291195.234867","291962.304291","292729.707929","293479.800758","294247.17688","295014.6878","281204.167135","294256.772011","Mapping"
"Mixed","Both","done","47","F_done.wav","None","728.961589746","103","289660.835078","281971.514813","282722.108499","283489.481529","284256.479535","285024.020136","285791.476024","286541.654184","290427.923052","291195.234867","291962.304291","292729.707929","293479.800758","294247.17688","295014.6878","295781.82988","295024.286641","Mapping"
"Mixed","Both","done","47","F_ball.wav","space","557.842701674","103","289660.835078","296549.149733","282722.108499","283489.481529","284256.479535","285024.020136","285791.476024","286541.654184","290427.923052","291195.234867","291962.304291","292729.707929","293479.800758","294247.17688","295014.6878","295781.82988","295791.260222","Mapping"
"Mixed","Both","done","47","M_done.wav","None","721.647833474","103","289660.835078","296549.149733","297299.475367","283489.481529","284256.479535","285024.020136","285791.476024","286541.654184","290427.923052","291195.234867","291962.304291","292729.707929","293479.800758","294247.17688","295014.6878","295781.82988","296558.745173","Mapping"
"Mixed","Both","done","47","M_park.wav","space","448.099261615","103","289660.835078","296549.149733","297299.475367","298066.777906","284256.479535","285024.020136","285791.476024","286541.654184","290427.923052","291195.234867","291962.304291","292729.707929","293479.800758","294247.17688","295014.6878","295781.82988","297308.961052","Mapping"
"Mixed","Both","done","47","M_tile.wav","None","730.928846635","103","289660.835078","296549.149733","297299.475367","298066.777906","298834.067461","285024.020136","285791.476024","286541.654184","290427.923052","291195.234867","291962.304291","292729.707929","293479.800758","294247.17688","295014.6878","295781.82988","298076.201447","Mapping"
"Mixed","Both","done","47","M_done.wav","None","726.961560547","103","289660.835078","296549.149733","297299.475367","298066.777906","298834.067461","299601.553648","285791.476024","286541.654184","290427.923052","291195.234867","291962.304291","292729.707929","293479.800758","294247.17688","295014.6878","295781.82988","298844.084919","Mapping"
"Mixed","Both","done","47","M_depth.wav","space","514.083834365","103","289660.835078","296549.149733","297299.475367","298066.777906","298834.067461","299601.553648","300368.571131","286541.654184","290427.923052","291195.234867","291962.304291","292729.707929","293479.800758","294247.17688","295014.6878","295781.82988","299610.901441","Mapping"
"Mixed","Both","done","47","M_tile.wav","None","719.757869374","103","289660.835078","296549.149733","297299.475367","298066.777906","298834.067461","299601.553648","300368.571131","301118.797212","290427.923052","291195.234867","291962.304291","292729.707929","293479.800758","294247.17688","295014.6878","295781.82988","300378.444516","Mapping"
"Mixed","Both","ball","7","M_depth.wav","None","734.066625591","103","304254.863187","296549.149733","297299.475367","298066.777906","298834.067461","299601.553648","300368.571131","301118.797212","290427.923052","291195.234867","291962.304291","292729.707929","293479.800758","294247.17688","295014.6878","295781.82988","301128.098631","Mapping"
"Mixed","Both","ball","7","M_ball.wav","None","719.317609444","103","304254.863187","296549.149733","297299.475367","298066.777906","298834.067461","299601.553648","300368.571131","301118.797212","305005.457801","291195.234867","291962.304291","292729.707929","293479.800758","294247.17688","295014.6878","295781.82988","304264.740591","Mapping"
"Mixed","Both","ball","7","F_bluff.wav","space","325.870556757","103","304254.863187","296549.149733","297299.475367","298066.777906","298834.067461","299601.553648","300368.571131","301118.797212","305005.457801","305772.354708","291962.304291","292729.707929","293479.800758","294247.17688","295014.6878","295781.82988","305015.039946","Mapping"
"Mixed","Both","ball","7","F_ball.wav","None","730.244341306","103","304254.863187","296549.149733","297299.475367","298066.777906","298834.067461","299601.553648","300368.571131","301118.797212","305005.457801","305772.354708","306539.345602","292729.707929","293479.800758","294247.17688","295014.6878","295781.82988","305781.570794","Mapping"
"Mixed","Both","ball","7","F_priest.wav","space","704.015176278","103","304254.863187","296549.149733","297299.475367","298066.777906","298834.067461","299601.553648","300368.571131","301118.797212","305005.457801","305772.354708","306539.345602","307306.68215","293479.800758","294247.17688","295014.6878","295781.82988","306548.810572","Mapping"
"Mixed","Both","ball","7","M_cad.wav","None","725.975922309","103","304254.863187","296549.149733","297299.475367","298066.777906","298834.067461","299601.553648","300368.571131","301118.797212","305005.457801","305772.354708","306539.345602","307306.68215","308074.22708","294247.17688","295014.6878","295781.82988","307315.693256","Mapping"
"Mixed","Both","ball","7","M_lash.wav","None","721.809220966","103","304254.863187","296549.149733","297299.475367","298066.777906","298834.067461","299601.553648","300368.571131","301118.797212","305005.457801","305772.354708","306539.345602","307306.68215","308074.22708","308824.689986","295014.6878","295781.82988","308083.827157","Mapping"
"Mixed","Both","ball","7","F_lash.wav","None","735.254461877","103","304254.863187","296549.149733","297299.475367","298066.777906","298834.067461","299601.553648","300368.571131","301118.797212","305005.457801","305772.354708","306539.345602","307306.68215","308074.22708","308824.689986","309592.070437","295781.82988","308834.400129","Mapping"
"Mixed","Both","ball","7","M_ball.wav","None","731.785869226","103","304254.863187","296549.149733","297299.475367","298066.777906","298834.067461","299601.553648","300368.571131","301118.797212","305005.457801","305772.354708","306539.345602","307306.68215","308074.22708","308824.689986","309592.070437","310359.397401","309601.796656","Mapping"
"Mixed","Both","ball","7","F_bluff.wav","space","451.271977276","103","304254.863187","311126.741369","297299.475367","298066.777906","298834.067461","299601.553648","300368.571131","301118.797212","305005.457801","305772.354708","306539.345602","307306.68215","308074.22708","308824.689986","309592.070437","310359.397401","310369.45567","Mapping"
"Mixed","Both","ball","7","M_depth.wav","None","725.090764929","103","304254.863187","311126.741369","311893.478434","298066.777906","298834.067461","299601.553648","300368.571131","301118.797212","305005.457801","305772.354708","306539.345602","307306.68215","308074.22708","308824.689986","309592.070437","310359.397401","311135.896858","Mapping"
"Mixed","Both","ball","7","M_park.wav","None","722.361709923","103","304254.863187","311126.741369","311893.478434","312643.961127","298834.067461","299601.553648","300368.571131","301118.797212","305005.457801","305772.354708","306539.345602","307306.68215","308074.22708","308824.689986","309592.070437","310359.397401","311902.709361","Mapping"
"Mixed","Both","ball","7","F_ball.wav","None","735.769850668","103","304254.863187","311126.741369","311893.478434","312643.961127","313411.284999","299601.553648","300368.571131","301118.797212","305005.457801","305772.354708","306539.345602","307306.68215","308074.22708","308824.689986","309592.070437","310359.397401","312653.14506","Mapping"
"Mixed","Both","ball","7","M_bluff.wav","space","343.281228561","103","304254.863187","311126.741369","311893.478434","312643.961127","313411.284999","314178.731922","300368.571131","301118.797212","305005.457801","305772.354708","306539.345602","307306.68215","308074.22708","308824.689986","309592.070437","310359.397401","313421.403867","Mapping"
"Mixed","Both","ball","7","F_cling.wav","None","733.418293763","103","304254.863187","311126.741369","311893.478434","312643.961127","313411.284999","314178.731922","314945.946347","301118.797212","305005.457801","305772.354708","306539.345602","307306.68215","308074.22708","308824.689986","309592.070437","310359.397401","314182.837716","Mapping"
"Mixed","Both","ball","7","F_done.wav","None","724.374106154","103","304254.863187","311126.741369","311893.478434","312643.961127","313411.284999","314178.731922","314945.946347","315713.130474","305005.457801","305772.354708","306539.345602","307306.68215","308074.22708","308824.689986","309592.070437","310359.397401","314955.768719","Mapping"
"Mixed","Both","tile","34","F_park.wav","space","641.968827229","103","318832.205941","311126.741369","311893.478434","312643.961127","313411.284999","314178.731922","314945.946347","315713.130474","305005.457801","305772.354708","306539.345602","307306.68215","308074.22708","308824.689986","309592.070437","310359.397401","315722.669954","Mapping"
"Mixed","Both","tile","34","M_tile.wav","None","720.344676636","103","318832.205941","311126.741369","311893.478434","312643.961127","313411.284999","314178.731922","314945.946347","315713.130474","319582.627727","305772.354708","306539.345602","307306.68215","308074.22708","308824.689986","309592.070437","310359.397401","318841.357101","Mapping"
"Mixed","Both","tile","34","F_depth.wav","space","691.857634112","103","318832.205941","311126.741369","311893.478434","312643.961127","313411.284999","314178.731922","314945.946347","315713.130474","319582.627727","320350.042805","306539.345602","307306.68215","308074.22708","308824.689986","309592.070437","310359.397401","319592.693417","Mapping"
"Mixed","Both","tile","34","M_cave.wav","None","729.977217037","103","318832.205941","311126.741369","311893.478434","312643.961127","313411.284999","314178.731922","314945.946347","315713.130474","319582.627727","320350.042805","321117.163242","307306.68215","308074.22708","308824.689986","309592.070437","310359.397401","320359.506538","Mapping"
"Mixed","Both","tile","34","M_romp.wav","None","726.5401599","103","318832.205941","311126.741369","311893.478434","312643.961127","313411.284999","314178.731922","314945.946347","315713.130474","319582.627727","320350.042805","321117.163242","321884.569663","308074.22708","308824.689986","309592.070437","310359.397401","321126.83041","Mapping"
"Mixed","Both","tile","34","F_tile.wav","None","722.524642944","103","318832.205941","311126.741369","311893.478434","312643.961127","313411.284999","314178.731922","314945.946347","315713.130474","319582.627727","320350.042805","321117.163242","321884.569663","322651.285395","308824.689986","309592.070437","310359.397401","321895.070048","Mapping"
"Mixed","Both","tile","34","F_lash.wav","space","407.912558876","103","318832.205941","311126.741369","311893.478434","312643.961127","313411.284999","314178.731922","314945.946347","315713.130474","319582.627727","320350.042805","321117.163242","321884.569663","322651.285395","323402.298318","309592.070437","310359.397401","322660.488497","Mapping"
"Mixed","Both","tile","34","M_cad.wav","None","732.417506166","103","318832.205941","311126.741369","311893.478434","312643.961127","313411.284999","314178.731922","314945.946347","315713.130474","319582.627727","320350.042805","321117.163242","321884.569663","322651.285395","323402.298318","324169.45431","310359.397401","323412.067203","Mapping"
"Mixed","Both","tile","34","M_romp.wav","None","729.633418843","103","318832.205941","311126.741369","311893.478434","312643.961127","313411.284999","314178.731922","314945.946347","315713.130474","319582.627727","320350.042805","321117.163242","321884.569663","322651.285395","323402.298318","324169.45431","324936.423872","324179.023161","Mapping"
"Mixed","Both","tile","34","F_tile.wav","None","727.81641921","103","318832.205941","325703.709406","311893.478434","312643.961127","313411.284999","314178.731922","314945.946347","315713.130474","319582.627727","320350.042805","321117.163242","321884.569663","322651.285395","323402.298318","324169.45431","324936.423872","324945.589254","Mapping"
"Mixed","Both","tile","34","F_bluff.wav","space","466.847717296","103","318832.205941","325703.709406","326470.866635","312643.961127","313411.284999","314178.731922","314945.946347","315713.130474","319582.627727","320350.042805","321117.163242","321884.569663","322651.285395","323402.298318","324169.45431","324936.423872","325713.52745","Mapping"
"Mixed","Both","tile","34","F_jaw.wav","None","720.622621477","103","318832.205941","325703.709406","326470.866635","327221.768874","313411.284999","314178.731922","314945.946347","315713.130474","319582.627727","320350.042805","321117.163242","321884.569663","322651.285395","323402.298318","324169.45431","324936.423872","326480.540605","Mapping"
"Mixed","Both","tile","34","M_gnash.wav","None","733.502078801","103","318832.205941","325703.709406","326470.866635","327221.768874","327988.855921","314178.731922","314945.946347","315713.130474","319582.627727","320350.042805","321117.163242","321884.569663","322651.285395","323402.298318","324169.45431","324936.423872","327231.939064","Mapping"
"Mixed","Both","tile","34","M_tile.wav","None","731.026853435","103","318832.205941","325703.709406","326470.866635","327221.768874","327988.855921","328755.903085","314945.946347","315713.130474","319582.627727","320350.042805","321117.163242","321884.569663","322651.285395","323402.298318","324169.45431","324936.423872","327998.464346","Mapping"
"Mixed","Both","tile","34","M_depth.wav","space","510.672437958","103","318832.205941","325703.709406","326470.866635","327221.768874","327988.855921","328755.903085","329523.088757","315713.130474","319582.627727","320350.042805","321117.163242","321884.569663","322651.285395","323402.298318","324169.45431","324936.423872","328765.633633","Mapping"
"Mixed","Both","tile","34","F_cad.wav","None","729.954029433","103","318832.205941","325703.709406","326470.866635","327221.768874","327988.855921","328755.903085","329523.088757","330290.259899","319582.627727","320350.042805","321117.163242","321884.569663","322651.285395","323402.298318","324169.45431","324936.423872","329527.121588","Mapping"
"Mixed","Both","tile","28","M_gnash.wav","None","721.764700022","103","333393.224759","325703.709406","326470.866635","327221.768874","327988.855921","328755.903085","329523.088757","330290.259899","319582.627727","320350.042805","321117.163242","321884.569663","322651.285395","323402.298318","324169.45431","324936.423872","330299.306869","Mapping"
"Mixed","Both","tile","28","F_bluff.wav","None","729.391337372","103","333393.224759","325703.709406","326470.866635","327221.768874","327988.855921","328755.903085","329523.088757","330290.259899","334160.245643","320350.042805","321117.163242","321884.569663","322651.285395","323402.298318","324169.45431","324936.423872","333409.100395","Mapping"
"Mixed","Both","tile","28","F_tile.wav","None","733.338527381","103","333393.224759","325703.709406","326470.866635","327221.768874","327988.855921","328755.903085","329523.088757","330290.259899","334160.245643","334927.32867","321117.163242","321884.569663","322651.285395","323402.298318","324169.45431","324936.423872","334169.505941","Mapping"
"Mixed","Both","tile","28","F_gnash.wav","space","530.418590177","103","333393.224759","325703.709406","326470.866635","327221.768874","327988.855921","328755.903085","329523.088757","330290.259899","334160.245643","334927.32867","335694.797235","321884.569663","322651.285395","323402.298318","324169.45431","324936.423872","334937.744651","Mapping"
"Mixed","Both","tile","28","M_tile.wav","None","726.478325669","103","333393.224759","325703.709406","326470.866635","327221.768874","327988.855921","328755.903085","329523.088757","330290.259899","334160.245643","334927.32867","335694.797235","336461.817501","322651.285395","323402.298318","324169.45431","324936.423872","335704.444306","Mapping"
"Mixed","Both","tile","28","M_cave.wav","space","500.84604742","103","333393.224759","325703.709406","326470.866635","327221.768874","327988.855921","328755.903085","329523.088757","330290.259899","334160.245643","334927.32867","335694.797235","336461.817501","337228.744088","323402.298318","324169.45431","324936.423872","336471.285253","Mapping"
"Mixed","Both","tile","28","M_lash.wav","None","720.9797143","103","333393.224759","325703.709406","326470.866635","327221.768874","327988.855921","328755.903085","329523.088757","330290.259899","334160.245643","334927.32867","335694.797235","336461.817501","337228.744088","337979.620975","324169.45431","324936.423872","337237.906069","Mapping"
"Mixed","Both","tile","28","F_tile.wav","None","733.680780046","103","333393.224759","325703.709406","326470.866635","327221.768874","327988.855921","328755.903085","329523.088757","330290.259899","334160.245643","334927.32867","335694.797235","336461.817501","337228.744088","337979.620975","338746.514789","324936.423872","337989.096456","Mapping"
"Mixed","Both","tile","28","F_dime.wav","space","448.158312589","103","333393.224759","325703.709406","326470.866635","327221.768874","327988.855921","328755.903085","329523.088757","330290.259899","334160.245643","334927.32867","335694.797235","336461.817501","337228.744088","337979.620975","338746.514789","339514.088472","338755.890409","Mapping"
"Mixed","Both","tile","28","F_jaw.wav","None","727.17983555","103","333393.224759","340280.944877","326470.866635","327221.768874","327988.855921","328755.903085","329523.088757","330290.259899","334160.245643","334927.32867","335694.797235","336461.817501","337228.744088","337979.620975","338746.514789","339514.088472","339523.345988","Mapping"
"Mixed","Both","tile","28","M_park.wav","None","724.63690117","103","333393.224759","340280.944877","341048.538346","327221.768874","327988.855921","328755.903085","329523.088757","330290.259899","334160.245643","334927.32867","335694.797235","336461.817501","337228.744088","337979.620975","338746.514789","339514.088472","340290.640798","Mapping"
"Mixed","Both","tile","28","M_greet.wav","None","720.834094565","103","333393.224759","340280.944877","341048.538346","341799.006818","327988.855921","328755.903085","329523.088757","330290.259899","334160.245643","334927.32867","335694.797235","336461.817501","337228.744088","337979.620975","338746.514789","339514.088472","341058.544675","Mapping"
"Mixed","Both","tile","28","F_reek.wav","None","734.545841347","103","333393.224759","340280.944877","341048.538346","341799.006818","342566.484039","328755.903085","329523.088757","330290.259899","334160.245643","334927.32867","335694.797235","336461.817501","337228.744088","337979.620975","338746.514789","339514.088472","341808.708304","Mapping"
"Mixed","Both","tile","28","M_jaw.wav","None","731.370652094","103","333393.224759","340280.944877","341048.538346","341799.006818","342566.484039","343333.56212","329523.088757","330290.259899","334160.245643","334927.32867","335694.797235","336461.817501","337228.744088","337979.620975","338746.514789","339514.088472","342576.139458","Mapping"
"Mixed","Both","tile","28","M_tile.wav","None","729.152966291","103","333393.224759","340280.944877","341048.538346","341799.006818","342566.484039","343333.56212","344100.977198","330290.259899","334160.245643","334927.32867","335694.797235","336461.817501","337228.744088","337979.620975","338746.514789","339514.088472","343343.119532","Mapping"
"Mixed","Both","tile","28","F_bluff.wav","space","405.857497361","103","333393.224759","340280.944877","341048.538346","341799.006818","342566.484039","343333.56212","344100.977198","344867.712408","334160.245643","334927.32867","335694.797235","336461.817501","337228.744088","337979.620975","338746.514789","339514.088472","344110.089403","Mapping"
"Mixed","Both","cave","24","F_priest.wav","None","721.988540608","103","347969.991526","340280.944877","341048.538346","341799.006818","342566.484039","343333.56212","344100.977198","344867.712408","334160.245643","334927.32867","335694.797235","336461.817501","337228.744088","337979.620975","338746.514789","339514.088472","344877.587338","Mapping"
"Mixed","Both","cave","24","M_cave.wav","None","736.210419796","103","347969.991526","340280.944877","341048.538346","341799.006818","342566.484039","343333.56212","344100.977198","344867.712408","348737.437211","334927.32867","335694.797235","336461.817501","337228.744088","337979.620975","338746.514789","339514.088472","347979.408265","Mapping"
"Mixed","Both","cave","24","F_romp.wav","space","615.551996045","103","347969.991526","340280.944877","341048.538346","341799.006818","342566.484039","343333.56212","344100.977198","344867.712408","348737.437211","349504.822299","335694.797235","336461.817501","337228.744088","337979.620975","338746.514789","339514.088472","348747.270095","Mapping"
"Mixed","Both","cave","24","M_romp.wav","None","728.993124794","103","347969.991526","340280.944877","341048.538346","341799.006818","342566.484039","343333.56212","344100.977198","344867.712408","348737.437211","349504.822299","350272.305395","336461.817501","337228.744088","337979.620975","338746.514789","339514.088472","349514.012107","Mapping"
"Mixed","Both","cave","24","F_cave.wav","None","725.268538576","103","347969.991526","340280.944877","341048.538346","341799.006818","342566.484039","343333.56212","344100.977198","344867.712408","348737.437211","349504.822299","350272.305395","351039.357505","337228.744088","337979.620975","338746.514789","339514.088472","350281.957413","Mapping"
"Mixed","Both","cave","24","M_cad.wav","None","722.873697523","103","347969.991526","340280.944877","341048.538346","341799.006818","342566.484039","343333.56212","344100.977198","344867.712408","348737.437211","349504.822299","350272.305395","351039.357505","351789.564727","337979.620975","338746.514789","339514.088472","351048.51114","Mapping"
"Mixed","Both","cave","24","M_priest.wav","space","20.7889867015","103","347969.991526","340280.944877","341048.538346","341799.006818","342566.484039","343333.56212","344100.977198","344867.712408","348737.437211","349504.822299","350272.305395","351039.357505","351789.564727","352556.675271","338746.514789","339514.088472","351798.931999","Mapping"
"Mixed","Both","cave","24","M_ball.wav","None","733.084697742","103","347969.991526","340280.944877","341048.538346","341799.006818","342566.484039","343333.56212","344100.977198","344867.712408","348737.437211","349504.822299","350272.305395","351039.357505","351789.564727","352556.675271","353324.400447","339514.088472","352565.903415","Mapping"
"Mixed","Both","cave","24","F_done.wav","None","727.758294903","103","347969.991526","340280.944877","341048.538346","341799.006818","342566.484039","343333.56212","344100.977198","344867.712408","348737.437211","349504.822299","350272.305395","351039.357505","351789.564727","352556.675271","353324.400447","354091.406182","353335.424568","Mapping"
"Mixed","Both","cave","24","M_cave.wav","None","727.044727188","103","347969.991526","354858.732218","341048.538346","341799.006818","342566.484039","343333.56212","344100.977198","344867.712408","348737.437211","349504.822299","350272.305395","351039.357505","351789.564727","352556.675271","353324.400447","354091.406182","354100.534465","Mapping"
"Mixed","Both","cave","24","F_park.wav","space","511.253989302","103","347969.991526","354858.732218","355609.342909","341799.006818","342566.484039","343333.56212","344100.977198","344867.712408","348737.437211","349504.822299","350272.305395","351039.357505","351789.564727","352556.675271","353324.400447","354091.406182","354868.409589","Mapping"
"Mixed","Both","cave","24","M_bluff.wav","None","736.370879225","103","347969.991526","354858.732218","355609.342909","356376.271042","342566.484039","343333.56212","344100.977198","344867.712408","348737.437211","349504.822299","350272.305395","351039.357505","351789.564727","352556.675271","353324.400447","354091.406182","355618.529934","Mapping"
"Mixed","Both","cave","24","M_knife.wav","None","733.525885269","103","347969.991526","354858.732218","355609.342909","356376.271042","357144.054652","343333.56212","344100.977198","344867.712408","348737.437211","349504.822299","350272.305395","351039.357505","351789.564727","352556.675271","353324.400447","354091.406182","356385.636459","Mapping"
"Mixed","Both","cave","24","F_cave.wav","None","728.979212232","103","347969.991526","354858.732218","355609.342909","356376.271042","357144.054652","357911.402021","344100.977198","344867.712408","348737.437211","349504.822299","350272.305395","351039.357505","351789.564727","352556.675271","353324.400447","354091.406182","357154.394886","Mapping"
"Mixed","Both","cave","24","F_tile.wav","space","513.607401401","103","347969.991526","354858.732218","355609.342909","356376.271042","357144.054652","357911.402021","358677.990374","344867.712408","348737.437211","349504.822299","350272.305395","351039.357505","351789.564727","352556.675271","353324.400447","354091.406182","357920.969635","Mapping"
"Mixed","Both","cave","24","F_romp.wav","None","723.331271205","103","347969.991526","354858.732218","355609.342909","356376.271042","357144.054652","357911.402021","358677.990374","359445.673194","348737.437211","349504.822299","350272.305395","351039.357505","351789.564727","352556.675271","353324.400447","354091.406182","358687.669909","Mapping"
"Mixed","Both","done","38","F_jolt.wav","None","719.830524642","103","362564.610152","354858.732218","355609.342909","356376.271042","357144.054652","357911.402021","358677.990374","359445.673194","348737.437211","349504.822299","350272.305395","351039.357505","351789.564727","352556.675271","353324.400447","354091.406182","359455.614597","Mapping"
"Mixed","Both","done","38","F_done.wav","None","719.329358079","103","362564.610152","354858.732218","355609.342909","356376.271042","357144.054652","357911.402021","358677.990374","359445.673194","363314.991747","349504.822299","350272.305395","351039.357505","351789.564727","352556.675271","353324.400447","354091.406182","362574.281957","Mapping"
"Mixed","Both","done","38","M_tile.wav","space","495.069181547","103","362564.610152","354858.732218","355609.342909","356376.271042","357144.054652","357911.402021","358677.990374","359445.673194","363314.991747","364082.48319","350272.305395","351039.357505","351789.564727","352556.675271","353324.400447","354091.406182","363324.411268","Mapping"
"Mixed","Both","done","38","M_priest.wav","None","729.685668368","103","362564.610152","354858.732218","355609.342909","356376.271042","357144.054652","357911.402021","358677.990374","359445.673194","363314.991747","364082.48319","364849.207269","351039.357505","351789.564727","352556.675271","353324.400447","354091.406182","364091.659394","Mapping"
"Mixed","Both","done","38","M_tile.wav","None","726.841602009","103","362564.610152","354858.732218","355609.342909","356376.271042","357144.054652","357911.402021","358677.990374","359445.673194","363314.991747","364082.48319","364849.207269","365616.783734","351789.564727","352556.675271","353324.400447","354091.406182","364858.80642","Mapping"
"Mixed","Both","done","38","F_depth.wav","None","723.658374511","103","362564.610152","354858.732218","355609.342909","356376.271042","357144.054652","357911.402021","358677.990374","359445.673194","363314.991747","364082.48319","364849.207269","365616.783734","366383.969407","352556.675271","353324.400447","354091.406182","365626.651245","Mapping"
"Mixed","Both","done","38","F_cad.wav","None","721.468205098","103","362564.610152","354858.732218","355609.342909","356376.271042","357144.054652","357911.402021","358677.990374","359445.673194","363314.991747","364082.48319","364849.207269","365616.783734","366383.969407","367134.416855","353324.400447","354091.406182","366393.230633","Mapping"
"Mixed","Both","done","38","F_tile.wav","None","735.546319745","103","362564.610152","354858.732218","355609.342909","356376.271042","357144.054652","357911.402021","358677.990374","359445.673194","363314.991747","364082.48319","364849.207269","365616.783734","366383.969407","367134.416855","367901.996103","354091.406182","367143.576982","Mapping"
"Mixed","Both","done","38","F_bluff.wav","None","731.542860623","103","362564.610152","354858.732218","355609.342909","356376.271042","357144.054652","357911.402021","358677.990374","359445.673194","363314.991747","364082.48319","364849.207269","365616.783734","366383.969407","367134.416855","367901.996103","368669.052542","367911.632044","Mapping"
"Mixed","Both","done","38","M_done.wav","None","728.174129967","103","362564.610152","369436.677547","355609.342909","356376.271042","357144.054652","357911.402021","358677.990374","359445.673194","363314.991747","364082.48319","364849.207269","365616.783734","366383.969407","367134.416855","367901.996103","368669.052542","368679.044339","Mapping"
"Mixed","Both","done","38","M_reek.wav","space","501.249824651","103","362564.610152","369436.677547","370202.938797","356376.271042","357144.054652","357911.402021","358677.990374","359445.673194","363314.991747","364082.48319","364849.207269","365616.783734","366383.969407","367134.416855","367901.996103","368669.052542","369446.083774","Mapping"
"Mixed","Both","done","38","M_done.wav","None","725.19155452","103","362564.610152","369436.677547","370202.938797","370970.881939","357144.054652","357911.402021","358677.990374","359445.673194","363314.991747","364082.48319","364849.207269","365616.783734","366383.969407","367134.416855","367901.996103","368669.052542","370211.860862","Mapping"
"Mixed","Both","done","38","M_park.wav","None","721.162434667","103","362564.610152","369436.677547","370202.938797","370970.881939","371720.920044","357911.402021","358677.990374","359445.673194","363314.991747","364082.48319","364849.207269","365616.783734","366383.969407","367134.416855","367901.996103","368669.052542","370980.123996","Mapping"
"Mixed","Both","done","38","F_done.wav","space","255.57984598","103","362564.610152","369436.677547","370202.938797","370970.881939","371720.920044","372488.400357","358677.990374","359445.673194","363314.991747","364082.48319","364849.207269","365616.783734","366383.969407","367134.416855","367901.996103","368669.052542","371730.712118","Mapping"
"Mixed","Both","done","38","M_park.wav","space","520.955784712","103","362564.610152","369436.677547","370202.938797","370970.881939","371720.920044","372488.400357","373255.834294","359445.673194","363314.991747","364082.48319","364849.207269","365616.783734","366383.969407","367134.416855","367901.996103","368669.052542","372498.302186","Mapping"
"Mixed","Both","done","38","F_greet.wav","None","726.673103869","103","362564.610152","369436.677547","370202.938797","370970.881939","371720.920044","372488.400357","373255.834294","374022.898153","363314.991747","364082.48319","364849.207269","365616.783734","366383.969407","367134.416855","367901.996103","368669.052542","373265.781571","Mapping"
"Mixed","Both","cave","14","M_ball.wav","None","724.209317472","103","377142.027107","369436.677547","370202.938797","370970.881939","371720.920044","372488.400357","373255.834294","374022.898153","363314.991747","364082.48319","364849.207269","365616.783734","366383.969407","367134.416855","367901.996103","368669.052542","374032.707849","Mapping"
"Mixed","Both","cave","14","M_cad.wav","None","719.421181828","103","377142.027107","369436.677547","370202.938797","370970.881939","371720.920044","372488.400357","373255.834294","374022.898153","377892.560195","364082.48319","364849.207269","365616.783734","366383.969407","367134.416855","367901.996103","368669.052542","377151.743742","Mapping"
"Mixed","Both","cave","14","F_cave.wav","None","732.897958253","103","377142.027107","369436.677547","370202.938797","370970.881939","371720.920044","372488.400357","373255.834294","374022.898153","377892.560195","378659.569021","364849.207269","365616.783734","366383.969407","367134.416855","367901.996103","368669.052542","377902.457695","Mapping"
"Mixed","Both","cave","14","M_romp.wav","space","477.141266223","103","377142.027107","369436.677547","370202.938797","370970.881939","371720.920044","372488.400357","373255.834294","374022.898153","377892.560195","378659.569021","379426.568264","365616.783734","366383.969407","367134.416855","367901.996103","368669.052542","378668.984524","Mapping"
"Mixed","Both","cave","14","F_park.wav","None","726.911474485","103","377142.027107","369436.677547","370202.938797","370970.881939","371720.920044","372488.400357","373255.834294","374022.898153","377892.560195","378659.569021","379426.568264","380193.919034","366383.969407","367134.416855","367901.996103","368669.052542","379435.965834","Mapping"
"Mixed","Both","cave","14","F_depth.wav","None","723.74679707","103","377142.027107","369436.677547","370202.938797","370970.881939","371720.920044","372488.400357","373255.834294","374022.898153","377892.560195","378659.569021","379426.568264","380193.919034","380961.568772","367134.416855","367901.996103","368669.052542","380203.685755","Mapping"
"Mixed","Both","cave","14","F_romp.wav","None","720.531725325","103","377142.027107","369436.677547","370202.938797","370970.881939","371720.920044","372488.400357","373255.834294","374022.898153","377892.560195","378659.569021","379426.568264","380193.919034","380961.568772","381711.816496","367901.996103","368669.052542","380971.358681","Mapping"
"Mixed","Both","cave","14","M_cave.wav","None","734.768444672","103","377142.027107","369436.677547","370202.938797","370970.881939","371720.920044","372488.400357","373255.834294","374022.898153","377892.560195","378659.569021","379426.568264","380193.919034","380961.568772","381711.816496","382479.271147","368669.052542","381721.659273","Mapping"
"Mixed","Both","cave","14","M_bluff.wav","space","562.2227313","103","377142.027107","369436.677547","370202.938797","370970.881939","371720.920044","372488.400357","373255.834294","374022.898153","377892.560195","378659.569021","379426.568264","380193.919034","380961.568772","381711.816496","382479.271147","383246.455583","382488.808154","Mapping"
"Mixed","Both","cave","14","F_cling.wav","None","728.042732459","103","377142.027107","384013.597353","370202.938797","370970.881939","371720.920044","372488.400357","373255.834294","374022.898153","377892.560195","378659.569021","379426.568264","380193.919034","380961.568772","381711.816496","382479.271147","383246.455583","383255.821618","Mapping"
"Mixed","Both","cave","14","F_ball.wav","None","725.510619581","103","377142.027107","384013.597353","384780.929573","370970.881939","371720.920044","372488.400357","373255.834294","374022.898153","377892.560195","378659.569021","379426.568264","380193.919034","380961.568772","381711.816496","382479.271147","383246.455583","384022.758099","Mapping"
"Mixed","Both","cave","14","M_cave.wav","None","721.364941914","103","377142.027107","384013.597353","384780.929573","385531.579528","371720.920044","372488.400357","373255.834294","374022.898153","377892.560195","378659.569021","379426.568264","380193.919034","380961.568772","381711.816496","382479.271147","383246.455583","384791.310617","Mapping"
"Mixed","Both","cave","14","M_ball.wav","space","669.85793272","103","377142.027107","384013.597353","384780.929573","385531.579528","386298.508279","372488.400357","373255.834294","374022.898153","377892.560195","378659.569021","379426.568264","380193.919034","380961.568772","381711.816496","382479.271147","383246.455583","385541.082835","Mapping"
"Mixed","Both","cave","14","M_knife.wav","None","732.976797037","103","377142.027107","384013.597353","384780.929573","385531.579528","386298.508279","387065.661798","373255.834294","374022.898153","377892.560195","378659.569021","379426.568264","380193.919034","380961.568772","381711.816496","382479.271147","383246.455583","386307.771051","Mapping"
"Mixed","Both","cave","14","F_cave.wav","None","729.955575429","103","377142.027107","384013.597353","384780.929573","385531.579528","386298.508279","387065.661798","387832.718547","374022.898153","377892.560195","378659.569021","379426.568264","380193.919034","380961.568772","381711.816496","382479.271147","383246.455583","387075.320618","Mapping"
"Mixed","Both","cave","14","F_jaw.wav","space","536.852135323","103","377142.027107","384013.597353","384780.929573","385531.579528","386298.508279","387065.661798","387832.718547","388600.093432","377892.560195","378659.569021","379426.568264","380193.919034","380961.568772","381711.816496","382479.271147","383246.455583","387842.037278","Mapping"
"Mixed","Both","done","46","F_knife.wav","None","723.391250242","103","391702.497764","384013.597353","384780.929573","385531.579528","386298.508279","387065.661798","387832.718547","388600.093432","377892.560195","378659.569021","379426.568264","380193.919034","380961.568772","381711.816496","382479.271147","383246.455583","388609.551909","Mapping"
"Mixed","Both","done","46","F_cad.wav","None","734.977135435","103","391702.497764","384013.597353","384780.929573","385531.579528","386298.508279","387065.661798","387832.718547","388600.093432","392469.839568","378659.569021","379426.568264","380193.919034","380961.568772","381711.816496","382479.271147","383246.455583","391712.526662","Mapping"
"Mixed","Both","done","46","M_reek.wav","None","732.766560744","103","391702.497764","384013.597353","384780.929573","385531.579528","386298.508279","387065.661798","387832.718547","388600.093432","392469.839568","393237.292983","379426.568264","380193.919034","380961.568772","381711.816496","382479.271147","383246.455583","392479.076678","Mapping"
"Mixed","Both","done","46","F_dime.wav","None","729.237060994","103","391702.497764","384013.597353","384780.929573","385531.579528","386298.508279","387065.661798","387832.718547","388600.093432","392469.839568","393237.292983","394004.395488","380193.919034","380961.568772","381711.816496","382479.271147","383246.455583","393246.925524","Mapping"
"Mixed","Both","done","46","F_done.wav","space","428.49316448","103","391702.497764","384013.597353","384780.929573","385531.579528","386298.508279","387065.661798","387832.718547","388600.093432","392469.839568","393237.292983","394004.395488","394771.77161","380961.568772","381711.816496","382479.271147","383246.455583","394014.231773","Mapping"
"Mixed","Both","done","46","M_reek.wav","None","722.482904792","103","391702.497764","384013.597353","384780.929573","385531.579528","386298.508279","387065.661798","387832.718547","388600.093432","392469.839568","393237.292983","394004.395488","394771.77161","395538.517332","381711.816496","382479.271147","383246.455583","394781.393639","Mapping"
"Mixed","Both","done","46","F_done.wav","None","720.565733965","103","391702.497764","384013.597353","384780.929573","385531.579528","386298.508279","387065.661798","387832.718547","388600.093432","392469.839568","393237.292983","394004.395488","394771.77161","395538.517332","396289.137298","382479.271147","383246.455583","395547.88213","Mapping"
"Mixed","Both","done","46","M_park.wav","None","733.655736782","103","391702.497764","384013.597353","384780.929573","385531.579528","386298.508279","387065.661798","387832.718547","388600.093432","392469.839568","393237.292983","394004.395488","394771.77161","395538.517332","396289.137298","397056.785181","383246.455583","396299.370558","Mapping"
"Mixed","Both","done","46","M_priest.wav","space","48.0377981439","103","391702.497764","384013.597353","384780.929573","385531.579528","386298.508279","387065.661798","387832.718547","388600.093432","392469.839568","393237.292983","394004.395488","394771.77161","395538.517332","396289.137298","397056.785181","397823.731555","397066.669696","Mapping"
"Mixed","Both","done","46","F_dime.wav","None","727.715629153","103","391702.497764","398591.18497","384780.929573","385531.579528","386298.508279","387065.661798","387832.718547","388600.093432","392469.839568","393237.292983","394004.395488","394771.77161","395538.517332","396289.137298","397056.785181","397823.731555","397833.257432","Mapping"
"Mixed","Both","done","46","M_romp.wav","None","724.983791821","103","391702.497764","398591.18497","399358.458447","385531.579528","386298.508279","387065.661798","387832.718547","388600.093432","392469.839568","393237.292983","394004.395488","394771.77161","395538.517332","396289.137298","397056.785181","397823.731555","398600.711156","Mapping"
"Mixed","Both","done","46","M_done.wav","None","721.776448656","103","391702.497764","398591.18497","399358.458447","400108.666906","386298.508279","387065.661798","387832.718547","388600.093432","392469.839568","393237.292983","394004.395488","394771.77161","395538.517332","396289.137298","397056.785181","397823.731555","399368.350074","Mapping"
"Mixed","Both","done","46","M_bluff.wav","space","612.815211993","103","391702.497764","398591.18497","399358.458447","400108.666906","400876.084457","387065.661798","387832.718547","388600.093432","392469.839568","393237.292983","394004.395488","394771.77161","395538.517332","396289.137298","397056.785181","397823.731555","400117.745102","Mapping"
"Mixed","Both","done","46","F_gnash.wav","None","731.823897455","103","391702.497764","398591.18497","399358.458447","400108.666906","400876.084457","401643.204276","387832.718547","388600.093432","392469.839568","393237.292983","394004.395488","394771.77161","395538.517332","396289.137298","397056.785181","397823.731555","400886.002672","Mapping"
"Mixed","Both","done","46","M_done.wav","None","729.566946626","103","391702.497764","398591.18497","399358.458447","400108.666906","400876.084457","401643.204276","402410.388712","388600.093432","392469.839568","393237.292983","394004.395488","394771.77161","395538.517332","396289.137298","397056.785181","397823.731555","401653.380031","Mapping"
"Mixed","Both","done","46","F_reek.wav","space","598.800477106","103","391702.497764","398591.18497","399358.458447","400108.666906","400876.084457","401643.204276","402410.388712","403178.070914","392469.839568","393237.292983","394004.395488","394771.77161","395538.517332","396289.137298","397056.785181","397823.731555","402419.699715","Mapping"
"Mixed","Both","ball","12","M_tile.wav","None","722.741681617","103","406280.203484","398591.18497","399358.458447","400108.666906","400876.084457","401643.204276","402410.388712","403178.070914","392469.839568","393237.292983","394004.395488","394771.77161","395538.517332","396289.137298","397056.785181","397823.731555","403188.175249","Mapping"
"Mixed","Both","ball","12","M_jaw.wav","None","735.650201328","103","406280.203484","398591.18497","399358.458447","400108.666906","400876.084457","401643.204276","402410.388712","403178.070914","407047.12698","393237.292983","394004.395488","394771.77161","395538.517332","396289.137298","397056.785181","397823.731555","406289.923829","Mapping"
"Mixed","Both","ball","12","F_ball.wav","None","733.622655738","103","406280.203484","398591.18497","399358.458447","400108.666906","400876.084457","401643.204276","402410.388712","403178.070914","407047.12698","407814.903787","394004.395488","394771.77161","395538.517332","396289.137298","397056.785181","397823.731555","407056.579273","Mapping"
"Mixed","Both","ball","12","F_lash.wav","space","664.626754355","103","406280.203484","398591.18497","399358.458447","400108.666906","400876.084457","401643.204276","402410.388712","403178.070914","407047.12698","407814.903787","408581.95497","394771.77161","395538.517332","396289.137298","397056.785181","397823.731555","407824.771608","Mapping"
"Mixed","Both","ball","12","M_ball.wav","None","727.145208046","103","406280.203484","398591.18497","399358.458447","400108.666906","400876.084457","401643.204276","402410.388712","403178.070914","407047.12698","407814.903787","408581.95497","409349.008627","395538.517332","396289.137298","397056.785181","397823.731555","408591.190844","Mapping"
"Mixed","Both","ball","12","F_greet.wav","space","586.330053397","103","406280.203484","398591.18497","399358.458447","400108.666906","400876.084457","401643.204276","402410.388712","403178.070914","407047.12698","407814.903787","408581.95497","409349.008627","410116.255824","396289.137298","397056.785181","397823.731555","409359.04309","Mapping"
"Mixed","Both","ball","12","M_tile.wav","None","720.044162124","103","406280.203484","398591.18497","399358.458447","400108.666906","400876.084457","401643.204276","402410.388712","403178.070914","407047.12698","407814.903787","408581.95497","409349.008627","410116.255824","410866.72275","397056.785181","397823.731555","410126.143431","Mapping"
"Mixed","Both","ball","12","F_reek.wav","None","733.938010409","103","406280.203484","398591.18497","399358.458447","400108.666906","400876.084457","401643.204276","402410.388712","403178.070914","407047.12698","407814.903787","408581.95497","409349.008627","410116.255824","410866.72275","411633.941504","397823.731555","410876.93406","Mapping"
"Mixed","Both","ball","12","F_ball.wav","None","732.084528543","103","406280.203484","398591.18497","399358.458447","400108.666906","400876.084457","401643.204276","402410.388712","403178.070914","407047.12698","407814.903787","408581.95497","409349.008627","410116.255824","410866.72275","411633.941504","412401.349162","411643.47882","Mapping"
"Mixed","Both","ball","12","M_dime.wav","space","519.764547702","103","406280.203484","413168.328308","399358.458447","400108.666906","400876.084457","401643.204276","402410.388712","403178.070914","407047.12698","407814.903787","408581.95497","409349.008627","410116.255824","410866.72275","411633.941504","412401.349162","412410.46013","Mapping"
"Mixed","Both","ball","12","M_bluff.wav","None","725.28647026","103","406280.203484","413168.328308","413935.698865","400108.666906","400876.084457","401643.204276","402410.388712","403178.070914","407047.12698","407814.903787","408581.95497","409349.008627","410116.255824","410866.72275","411633.941504","412401.349162","413177.818939","Mapping"
"Mixed","Both","ball","12","F_gnash.wav","None","722.908943426","103","406280.203484","413168.328308","413935.698865","414702.737063","400876.084457","401643.204276","402410.388712","403178.070914","407047.12698","407814.903787","408581.95497","409349.008627","410116.255824","410866.72275","411633.941504","412401.349162","413945.506396","Mapping"
"Mixed","Both","ball","12","F_dime.wav","None","720.273258165","103","406280.203484","413168.328308","413935.698865","414702.737063","415453.405878","401643.204276","402410.388712","403178.070914","407047.12698","407814.903787","408581.95497","409349.008627","410116.255824","410866.72275","411633.941504","412401.349162","414712.961048","Mapping"
"Mixed","Both","ball","12","M_reek.wav","None","734.611076768","103","406280.203484","413168.328308","413935.698865","414702.737063","415453.405878","416220.841051","402410.388712","403178.070914","407047.12698","407814.903787","408581.95497","409349.008627","410116.255824","410866.72275","411633.941504","412401.349162","415463.010592","Mapping"
"Mixed","Both","ball","12","M_ball.wav","None","731.748459861","103","406280.203484","413168.328308","413935.698865","414702.737063","415453.405878","416220.841051","416988.059496","403178.070914","407047.12698","407814.903787","408581.95497","409349.008627","410116.255824","410866.72275","411633.941504","412401.349162","416230.371256","Mapping"
"Mixed","Both","ball","12","F_bluff.wav","space","435.368515085","103","406280.203484","413168.328308","413935.698865","414702.737063","415453.405878","416220.841051","416988.059496","417755.250115","407047.12698","407814.903787","408581.95497","409349.008627","410116.255824","410866.72275","411633.941504","412401.349162","416997.823744","Mapping"
"Mixed","Both","done","37","F_jaw.wav","None","725.177641958","103","420857.420405","413168.328308","413935.698865","414702.737063","415453.405878","416220.841051","416988.059496","417755.250115","407047.12698","407814.903787","408581.95497","409349.008627","410116.255824","410866.72275","411633.941504","412401.349162","417764.763316","Mapping"
"Mixed","Both","done","37","F_gnash.wav","None","735.927218571","103","420857.420405","413168.328308","413935.698865","414702.737063","415453.405878","416220.841051","416988.059496","417755.250115","421624.901954","407814.903787","408581.95497","409349.008627","410116.255824","410866.72275","411633.941504","412401.349162","420867.195783","Mapping"
"Mixed","Both","done","37","M_done.wav","None","732.95762809","103","420857.420405","413168.328308","413935.698865","414702.737063","415453.405878","416220.841051","416988.059496","417755.250115","421624.901954","422392.121017","408581.95497","409349.008627","410116.255824","410866.72275","411633.941504","412401.349162","421634.95806","Mapping"
"Mixed","Both","done","37","F_cling.wav","space","512.254158501","103","420857.420405","413168.328308","413935.698865","414702.737063","415453.405878","416220.841051","416988.059496","417755.250115","421624.901954","422392.121017","423159.125515","409349.008627","410116.255824","410866.72275","411633.941504","412401.349162","422401.730988","Mapping"
"Mixed","Both","done","37","M_priest.wav","None","727.726759389","103","420857.420405","413168.328308","413935.698865","414702.737063","415453.405878","416220.841051","416988.059496","417755.250115","421624.901954","422392.121017","423159.125515","423927.033412","410116.255824","410866.72275","411633.941504","412401.349162","423168.658194","Mapping"
"Mixed","Both","done","37","F_jolt.wav","None","724.21333706","103","420857.420405","413168.328308","413935.698865","414702.737063","415453.405878","416220.841051","416988.059496","417755.250115","421624.901954","422392.121017","423159.125515","423927.033412","424693.667214","410866.72275","411633.941504","412401.349162","423936.959665","Mapping"
"Mixed","Both","done","37","M_done.wav","None","722.88606409","103","420857.420405","413168.328308","413935.698865","414702.737063","415453.405878","416220.841051","416988.059496","417755.250115","421624.901954","422392.121017","423159.125515","423927.033412","424693.667214","425460.653471","411633.941504","412401.349162","424703.162482","Mapping"
"Mixed","Both","done","37","M_park.wav","space","508.105698042","103","420857.420405","413168.328308","413935.698865","414702.737063","415453.405878","416220.841051","416988.059496","417755.250115","421624.901954","422392.121017","423159.125515","423927.033412","424693.667214","425460.653471","426211.518919","412401.349162","425469.859974","Mapping"
"Mixed","Both","done","37","M_reek.wav","None","732.991018798","103","420857.420405","413168.328308","413935.698865","414702.737063","415453.405878","416220.841051","416988.059496","417755.250115","421624.901954","422392.121017","423159.125515","423927.033412","424693.667214","425460.653471","426211.518919","426978.616168","426221.09519","Mapping"
"Mixed","Both","done","37","F_ball.wav","None","730.715209153","103","420857.420405","427746.028154","413935.698865","414702.737063","415453.405878","416220.841051","416988.059496","417755.250115","421624.901954","422392.121017","423159.125515","423927.033412","424693.667214","425460.653471","426211.518919","426978.616168","426987.814323","Mapping"
"Mixed","Both","done","37","M_ball.wav","None","727.629370522","103","420857.420405","427746.028154","428513.196822","414702.737063","415453.405878","416220.841051","416988.059496","417755.250115","421624.901954","422392.121017","423159.125515","423927.033412","424693.667214","425460.653471","426211.518919","426978.616168","427755.556504","Mapping"
"Mixed","Both","done","37","F_done.wav","None","724.440268707","103","420857.420405","427746.028154","428513.196822","429280.508018","415453.405878","416220.841051","416988.059496","417755.250115","421624.901954","422392.121017","423159.125515","423927.033412","424693.667214","425460.653471","426211.518919","426978.616168","428523.646811","Mapping"
"Mixed","Both","done","37","F_tile.wav","space","455.839055125","103","420857.420405","427746.028154","428513.196822","429280.508018","430030.981127","416220.841051","416988.059496","417755.250115","421624.901954","422392.121017","423159.125515","423927.033412","424693.667214","425460.653471","426211.518919","426978.616168","429290.056464","Mapping"
"Mixed","Both","done","37","M_cad.wav","None","736.350473948","103","420857.420405","427746.028154","428513.196822","429280.508018","430030.981127","430798.373017","416988.059496","417755.250115","421624.901954","422392.121017","423159.125515","423927.033412","424693.667214","425460.653471","426211.518919","426978.616168","430040.173408","Mapping"
"Mixed","Both","done","37","F_done.wav","None","733.260925394","103","420857.420405","427746.028154","428513.196822","429280.508018","430030.981127","430798.373017","431565.511386","417755.250115","421624.901954","422392.121017","423159.125515","423927.033412","424693.667214","425460.653471","426211.518919","426978.616168","430807.902604","Mapping"
"Mixed","Both","done","37","M_knife.wav","None","731.905209366","103","420857.420405","427746.028154","428513.196822","429280.508018","430030.981127","430798.373017","431565.511386","432332.830621","421624.901954","422392.121017","423159.125515","423927.033412","424693.667214","425460.653471","426211.518919","426978.616168","431574.664093","Mapping"
"Mixed","Both","ball","3","F_knife.wav","space","91.3069383241","103","435468.376879","427746.028154","428513.196822","429280.508018","430030.981127","430798.373017","431565.511386","432332.830621","421624.901954","422392.121017","423159.125515","423927.033412","424693.667214","425460.653471","426211.518919","426978.616168","432342.521286","Mapping"
"Mixed","Both","ball","3","M_park.wav","None","719.959758222","103","435468.376879","427746.028154","428513.196822","429280.508018","430030.981127","430798.373017","431565.511386","432332.830621","436218.908112","422392.121017","423159.125515","423927.033412","424693.667214","425460.653471","426211.518919","426978.616168","435477.752498","Mapping"
"Mixed","Both","ball","3","M_ball.wav","None","733.660683967","103","435468.376879","427746.028154","428513.196822","429280.508018","430030.981127","430798.373017","431565.511386","432332.830621","436218.908112","436986.122229","423159.125515","423927.033412","424693.667214","425460.653471","426211.518919","426978.616168","436228.773459","Mapping"
"Mixed","Both","ball","3","F_cling.wav","space","406.273641624","103","435468.376879","427746.028154","428513.196822","429280.508018","430030.981127","430798.373017","431565.511386","432332.830621","436218.908112","436986.122229","437753.317176","423927.033412","424693.667214","425460.653471","426211.518919","426978.616168","436995.462912","Mapping"
"Mixed","Both","ball","3","M_done.wav","None","726.647133008","103","435468.376879","427746.028154","428513.196822","429280.508018","430030.981127","430798.373017","431565.511386","432332.830621","436218.908112","436986.122229","437753.317176","438520.398967","424693.667214","425460.653471","426211.518919","426978.616168","437763.111413","Mapping"
"Mixed","Both","ball","3","F_reek.wav","None","724.792105146","103","435468.376879","427746.028154","428513.196822","429280.508018","430030.981127","430798.373017","431565.511386","432332.830621","436218.908112","436986.122229","437753.317176","438520.398967","439287.6777","425460.653471","426211.518919","426978.616168","438529.882797","Mapping"
"Mixed","Both","ball","3","F_ball.wav","space","128.639371134","103","435468.376879","427746.028154","428513.196822","429280.508018","430030.981127","430798.373017","431565.511386","432332.830621","436218.908112","436986.122229","437753.317176","438520.398967","439287.6777","440038.032088","426211.518919","426978.616168","439296.981283","Mapping"
"Mixed","Both","ball","3","M_knife.wav","None","735.8558001","103","435468.376879","427746.028154","428513.196822","429280.508018","430030.981127","430798.373017","431565.511386","432332.830621","436218.908112","436986.122229","437753.317176","438520.398967","439287.6777","440038.032088","440805.368945","426978.616168","440046.943332","Mapping"
"Mixed","Both","ball","3","M_tile.wav","None","732.674118131","103","435468.376879","427746.028154","428513.196822","429280.508018","430030.981127","430798.373017","431565.511386","432332.830621","436218.908112","436986.122229","437753.317176","438520.398967","439287.6777","440038.032088","440805.368945","441572.662209","440815.031785","Mapping"
"Mixed","Both","ball","3","F_park.wav","None","730.229810346","103","435468.376879","442340.112223","428513.196822","429280.508018","430030.981127","430798.373017","431565.511386","432332.830621","436218.908112","436986.122229","437753.317176","438520.398967","439287.6777","440038.032088","440805.368945","441572.662209","441582.171699","Mapping"
"Mixed","Both","ball","3","F_ball.wav","None","727.335348725","103","435468.376879","442340.112223","443107.01655","429280.508018","430030.981127","430798.373017","431565.511386","432332.830621","436218.908112","436986.122229","437753.317176","438520.398967","439287.6777","440038.032088","440805.368945","441572.662209","442349.73487","Mapping"
"Mixed","Both","ball","3","F_dime.wav","space","493.091722485","103","435468.376879","442340.112223","443107.01655","443874.327127","430030.981127","430798.373017","431565.511386","432332.830621","436218.908112","436986.122229","437753.317176","438520.398967","439287.6777","440038.032088","440805.368945","441572.662209","443116.455858","Mapping"
"Mixed","Both","ball","3","M_jolt.wav","None","721.475315746","103","435468.376879","442340.112223","443107.01655","443874.327127","444624.660182","430798.373017","431565.511386","432332.830621","436218.908112","436986.122229","437753.317176","438520.398967","439287.6777","440038.032088","440805.368945","441572.662209","443883.715732","Mapping"
"Mixed","Both","ball","3","M_gnash.wav","None","735.494378954","103","435468.376879","442340.112223","443107.01655","443874.327127","444624.660182","445392.25056","431565.511386","432332.830621","436218.908112","436986.122229","437753.317176","438520.398967","439287.6777","440038.032088","440805.368945","441572.662209","444634.546552","Mapping"
"Mixed","Both","ball","3","M_ball.wav","None","732.811081223","103","435468.376879","442340.112223","443107.01655","443874.327127","444624.660182","445392.25056","446159.593292","432332.830621","436218.908112","436986.122229","437753.317176","438520.398967","439287.6777","440038.032088","440805.368945","441572.662209","445402.066748","Mapping"
"Mixed","Both","ball","3","F_reek.wav","space","496.504354756","103","435468.376879","442340.112223","443107.01655","443874.327127","444624.660182","445392.25056","446159.593292","446926.803698","436218.908112","436986.122229","437753.317176","438520.398967","439287.6777","440038.032088","440805.368945","441572.662209","446168.96922","Mapping"
"Mixed","Both","tile","26","F_cling.wav","None","726.736174431","103","450062.04233","442340.112223","443107.01655","443874.327127","444624.660182","445392.25056","446159.593292","446926.803698","436218.908112","436986.122229","437753.317176","438520.398967","439287.6777","440038.032088","440805.368945","441572.662209","446937.084261","Mapping"
"Mixed","Both","tile","26","M_park.wav","None","720.020974055","103","450062.04233","442340.112223","443107.01655","443874.327127","444624.660182","445392.25056","446159.593292","446926.803698","450812.764013","436986.122229","437753.317176","438520.398967","439287.6777","440038.032088","440805.368945","441572.662209","450071.549347","Mapping"
"Mixed","Both","tile","26","M_cad.wav","None","734.265732113","103","450062.04233","442340.112223","443107.01655","443874.327127","444624.660182","445392.25056","446159.593292","446926.803698","450812.764013","451580.408496","437753.317176","438520.398967","439287.6777","440038.032088","440805.368945","441572.662209","450822.259282","Mapping"
"Mixed","Both","tile","26","F_cling.wav","None","731.95127584","103","450062.04233","442340.112223","443107.01655","443874.327127","444624.660182","445392.25056","446159.593292","446926.803698","450812.764013","451580.408496","452347.346522","438520.398967","439287.6777","440038.032088","440805.368945","441572.662209","451589.518228","Mapping"
"Mixed","Both","tile","26","F_tile.wav","None","729.552106932","103","450062.04233","442340.112223","443107.01655","443874.327127","444624.660182","445392.25056","446159.593292","446926.803698","450812.764013","451580.408496","452347.346522","453114.586608","439287.6777","440038.032088","440805.368945","441572.662209","452357.012453","Mapping"
"Mixed","Both","tile","26","M_bluff.wav","space","645.318698138","103","450062.04233","442340.112223","443107.01655","443874.327127","444624.660182","445392.25056","446159.593292","446926.803698","450812.764013","451580.408496","452347.346522","453114.586608","453881.734871","440038.032088","440805.368945","441572.662209","453123.982015","Mapping"
"Mixed","Both","tile","26","M_depth.wav","None","724.046693649","103","450062.04233","442340.112223","443107.01655","443874.327127","444624.660182","445392.25056","446159.593292","446926.803698","450812.764013","451580.408496","452347.346522","453114.586608","453881.734871","454649.420165","440805.368945","441572.662209","453891.145118","Mapping"
"Mixed","Both","tile","26","F_priest.wav","None","720.947560389","103","450062.04233","442340.112223","443107.01655","443874.327127","444624.660182","445392.25056","446159.593292","446926.803698","450812.764013","451580.408496","452347.346522","453114.586608","453881.734871","454649.420165","455416.331293","441572.662209","454659.386301","Mapping"
"Mixed","Both","tile","26","F_tile.wav","None","719.504658133","103","450062.04233","442340.112223","443107.01655","443874.327127","444624.660182","445392.25056","446159.593292","446926.803698","450812.764013","451580.408496","452347.346522","453114.586608","453881.734871","454649.420165","455416.331293","456166.867164","455425.964143","Mapping"
"Mixed","Both","tile","26","F_lash.wav","None","734.022723511","103","450062.04233","456934.228446","443107.01655","443874.327127","444624.660182","445392.25056","446159.593292","446926.803698","450812.764013","451580.408496","452347.346522","453114.586608","453881.734871","454649.420165","455416.331293","456166.867164","456176.40479","Mapping"
"Mixed","Both","tile","26","M_tile.wav","None","731.238945387","103","450062.04233","456934.228446","457701.290759","443874.327127","444624.660182","445392.25056","446159.593292","446926.803698","450812.764013","451580.408496","452347.346522","453114.586608","453881.734871","454649.420165","455416.331293","456166.867164","456943.96796","Mapping"
"Mixed","Both","tile","26","M_reek.wav","None","734.569647349","103","450062.04233","456934.228446","457701.290759","458468.718513","444624.660182","445392.25056","446159.593292","446926.803698","450812.764013","451580.408496","452347.346522","453114.586608","453881.734871","454649.420165","455416.331293","456166.867164","457705.818264","Mapping"
"Mixed","Both","tile","26","M_tile.wav","space","67.1535492875","103","450062.04233","456934.228446","457701.290759","458468.718513","459235.730431","445392.25056","446159.593292","446926.803698","450812.764013","451580.408496","452347.346522","453114.586608","453881.734871","454649.420165","455416.331293","456166.867164","458478.019931","Mapping"
"Mixed","Both","tile","26","M_priest.wav","space","452.22762553","103","450062.04233","456934.228446","457701.290759","458468.718513","459235.730431","460003.389754","446159.593292","446926.803698","450812.764013","451580.408496","452347.346522","453114.586608","453881.734871","454649.420165","455416.331293","456166.867164","459244.918074","Mapping"
"Mixed","Both","tile","26","F_lash.wav","None","719.267214648","103","450062.04233","456934.228446","457701.290759","458468.718513","459235.730431","460003.389754","460753.682617","446926.803698","450812.764013","451580.408496","452347.346522","453114.586608","453881.734871","454649.420165","455416.331293","456166.867164","460012.891515","Mapping"
"Mixed","Both","tile","26","F_jaw.wav","None","733.118706848","103","450062.04233","456934.228446","457701.290759","458468.718513","459235.730431","460003.389754","460753.682617","461520.572721","450812.764013","451580.408496","452347.346522","453114.586608","453881.734871","454649.420165","455416.331293","456166.867164","460764.072008","Mapping"
"Mixed","Both","done","48","M_bluff.wav","None","732.233240269","103","464656.507917","456934.228446","457701.290759","458468.718513","459235.730431","460003.389754","460753.682617","461520.572721","450812.764013","451580.408496","452347.346522","453114.586608","453881.734871","454649.420165","455416.331293","456166.867164","461529.914332","Mapping"
"Mixed","Both","done","48","M_cave.wav","None","719.809810165","103","464656.507917","456934.228446","457701.290759","458468.718513","459235.730431","460003.389754","460753.682617","461520.572721","465407.072232","451580.408496","452347.346522","453114.586608","453881.734871","454649.420165","455416.331293","456166.867164","464666.197963","Mapping"
"Mixed","Both","done","48","F_jolt.wav","None","734.894277062","103","464656.507917","456934.228446","457701.290759","458468.718513","459235.730431","460003.389754","460753.682617","461520.572721","465407.072232","466174.238117","452347.346522","453114.586608","453881.734871","454649.420165","455416.331293","456166.867164","465416.184746","Mapping"
"Mixed","Both","done","48","F_done.wav","None","731.899953447","103","464656.507917","456934.228446","457701.290759","458468.718513","459235.730431","460003.389754","460753.682617","461520.572721","465407.072232","466174.238117","466941.19624","453114.586608","453881.734871","454649.420165","455416.331293","456166.867164","466184.11212","Mapping"
"Mixed","Both","done","48","F_priest.wav","space","450.362704229","103","464656.507917","456934.228446","457701.290759","458468.718513","459235.730431","460003.389754","460753.682617","461520.572721","465407.072232","466174.238117","466941.19624","467708.538971","453881.734871","454649.420165","455416.331293","456166.867164","466950.650079","Mapping"
"Mixed","Both","done","48","M_cad.wav","None","726.370734163","103","464656.507917","456934.228446","457701.290759","458468.718513","459235.730431","460003.389754","460753.682617","461520.572721","465407.072232","466174.238117","466941.19624","467708.538971","468476.020521","454649.420165","455416.331293","456166.867164","467717.951691","Mapping"
"Mixed","Both","done","48","F_jolt.wav","None","723.988569342","103","464656.507917","456934.228446","457701.290759","458468.718513","459235.730431","460003.389754","460753.682617","461520.572721","465407.072232","466174.238117","466941.19624","467708.538971","468476.020521","469243.310693","455416.331293","456166.867164","468485.103045","Mapping"
"Mixed","Both","done","48","F_done.wav","None","720.650137402","103","464656.507917","456934.228446","457701.290759","458468.718513","459235.730431","460003.389754","460753.682617","461520.572721","465407.072232","466174.238117","466941.19624","467708.538971","468476.020521","469243.310693","469993.745465","456166.867164","469253.467279","Mapping"
"Mixed","Both","done","48","F_bluff.wav","space","468.424491119","103","464656.507917","456934.228446","457701.290759","458468.718513","459235.730431","460003.389754","460753.682617","461520.572721","465407.072232","466174.238117","466941.19624","467708.538971","468476.020521","469243.310693","469993.745465","470760.945978","470003.499201","Mapping"
"Mixed","Both","done","48","F_reek.wav","None","731.518744957","103","464656.507917","471528.414233","457701.290759","458468.718513","459235.730431","460003.389754","460753.682617","461520.572721","465407.072232","466174.238117","466941.19624","467708.538971","468476.020521","469243.310693","469993.745465","470760.945978","470770.614382","Mapping"
"Mixed","Both","done","48","M_done.wav","None","729.118339252","103","464656.507917","471528.414233","472295.484893","458468.718513","459235.730431","460003.389754","460753.682617","461520.572721","465407.072232","466174.238117","466941.19624","467708.538971","468476.020521","469243.310693","469993.745465","470760.945978","471538.040281","Mapping"
"Mixed","Both","done","48","M_greet.wav","space","615.815719124","103","464656.507917","471528.414233","472295.484893","473062.50856","459235.730431","460003.389754","460753.682617","461520.572721","465407.072232","466174.238117","466941.19624","467708.538971","468476.020521","469243.310693","469993.745465","470760.945978","472305.012934","Mapping"
"Mixed","Both","done","48","F_tile.wav","None","724.016394932","103","464656.507917","471528.414233","472295.484893","473062.50856","473830.41151","460003.389754","460753.682617","461520.572721","465407.072232","466174.238117","466941.19624","467708.538971","468476.020521","469243.310693","469993.745465","470760.945978","473071.817708","Mapping"
"Mixed","Both","done","48","M_done.wav","None","720.035814214","103","464656.507917","471528.414233","472295.484893","473062.50856","473830.41151","474580.296576","460753.682617","461520.572721","465407.072232","466174.238117","466941.19624","467708.538971","468476.020521","469243.310693","469993.745465","470760.945978","473840.562222","Mapping"
"Mixed","Both","done","48","M_ball.wav","space","474.268137477","103","464656.507917","471528.414233","472295.484893","473062.50856","473830.41151","474580.296576","475347.945078","461520.572721","465407.072232","466174.238117","466941.19624","467708.538971","468476.020521","469243.310693","469993.745465","470760.945978","474589.523174","Mapping"
