"Condition","Talker","Target","Trial","current_stimulus","response_response","response_time_response","subject_nr","time_Audio1","time_Audio10","time_Audio11","time_Audio12","time_Audio13","time_Audio14","time_Audio15","time_Audio16","time_Audio2","time_Audio3","time_Audio4","time_Audio5","time_Audio6","time_Audio7","time_Audio8","time_Audio9","time_response"
"Blocked","Male","cave","7","M_priest.wav","NA","NA","317","153598.709465","NA","NA","NA","NA","NA","NA","NA","NA","NA","NA","NA","NA","NA","NA","NA","NA"
"Blocked","Male","cave","7","M_cave.wav","None","715.342102572","317","153598.709465","NA","NA","NA","NA","NA","NA","NA","154348.626607","NA","NA","NA","NA","NA","NA","NA","153613.103158"
"Blocked","Male","cave","7","M_depth.wav","space","585.042010061","317","153598.709465","NA","NA","NA","NA","NA","NA","NA","154348.626607","155115.013826","NA","NA","NA","NA","NA","NA","154358.076063"
"Blocked","Male","cave","7","M_cad.wav","None","731.35769926","317","153598.709465","NA","NA","NA","NA","NA","NA","NA","154348.626607","155115.013826","155881.755662","NA","NA","NA","NA","NA","155124.564998"
"Blocked","Male","cave","7","M_bluff.wav","None","728.338659275","317","153598.709465","NA","NA","NA","NA","NA","NA","NA","154348.626607","155115.013826","155881.755662","156648.468127","NA","NA","NA","NA","155891.317037"
"Blocked","Male","cave","7","M_cave.wav","None","726.261349395","317","153598.709465","NA","NA","NA","NA","NA","NA","NA","154348.626607","155115.013826","155881.755662","156648.468127","157415.607864","NA","NA","NA","156657.619853"
"Blocked","Male","cave","7","M_reek.wav","None","722.437232267","317","153598.709465","NA","NA","NA","NA","NA","NA","NA","154348.626607","155115.013826","155881.755662","156648.468127","157415.607864","158182.240254","NA","NA","157425.713378"
"Blocked","Male","cave","7","M_jolt.wav","None","720.247075893","317","153598.709465","NA","NA","NA","NA","NA","NA","NA","154348.626607","155115.013826","155881.755662","156648.468127","157415.607864","158182.240254","158931.79876","NA","158191.79019"
"Blocked","Male","cave","7","M_jaw.wav","None","734.749288298","317","153598.709465","NA","NA","NA","NA","NA","NA","NA","154348.626607","155115.013826","155881.755662","156648.468127","157415.607864","158182.240254","158931.79876","159698.402088","158941.064569"
"Blocked","Male","cave","7","M_gnash.wav","None","731.708915439","317","153598.709465","160465.269447","NA","NA","NA","NA","NA","NA","154348.626607","155115.013826","155881.755662","156648.468127","157415.607864","158182.240254","158931.79876","159698.402088","159707.955116"
"Blocked","Male","cave","7","M_cave.wav","None","728.976166807","317","153598.709465","160465.269447","161232.011592","NA","NA","NA","NA","NA","154348.626607","155115.013826","155881.755662","156648.468127","157415.607864","158182.240254","158931.79876","159698.402088","160474.802688"
"Blocked","Male","cave","7","M_park.wav","space","405.706093647","317","153598.709465","160465.269447","161232.011592","161998.427255","NA","NA","NA","NA","154348.626607","155115.013826","155881.755662","156648.468127","157415.607864","158182.240254","158931.79876","159698.402088","161241.187742"
"Blocked","Male","cave","7","M_cave.wav","None","724.152195733","317","153598.709465","160465.269447","161232.011592","161998.427255","162765.730233","NA","NA","NA","154348.626607","155115.013826","155881.755662","156648.468127","157415.607864","158182.240254","158931.79876","159698.402088","162007.408628"
"Blocked","Male","cave","7","M_jaw.wav","space","550.960713066","317","153598.709465","160465.269447","161232.011592","161998.427255","162765.730233","163515.050679","NA","NA","154348.626607","155115.013826","155881.755662","156648.468127","157415.607864","158182.240254","158931.79876","159698.402088","162775.91644"
"Blocked","Male","cave","7","M_gnash.wav","None","734.895216301","317","153598.709465","160465.269447","161232.011592","161998.427255","162765.730233","163515.050679","164281.801172","NA","154348.626607","155115.013826","155881.755662","156648.468127","157415.607864","158182.240254","158931.79876","159698.402088","163524.411712"
"Blocked","Male","cave","7","M_greet.wav","None","732.837693766","317","153598.709465","160465.269447","161232.011592","161998.427255","162765.730233","163515.050679","164281.801172","165048.518583","154348.626607","155115.013826","155881.755662","156648.468127","157415.607864","158182.240254","158931.79876","159698.402088","164290.693504"
"Blocked","Male","done","21","M_depth.wav","None","729.607490823","317","168198.637675","160465.269447","161232.011592","161998.427255","162765.730233","163515.050679","164281.801172","165048.518583","154348.626607","155115.013826","155881.755662","156648.468127","157415.607864","158182.240254","158931.79876","159698.402088","165058.032965"
"Blocked","Male","done","21","M_cad.wav","None","720.696917269","317","168198.637675","160465.269447","161232.011592","161998.427255","162765.730233","163515.050679","164281.801172","165048.518583","168948.804627","155115.013826","155881.755662","156648.468127","157415.607864","158182.240254","158931.79876","159698.402088","168208.848616"
"Blocked","Male","done","21","M_done.wav","None","736.193418968","317","168198.637675","160465.269447","161232.011592","161998.427255","162765.730233","163515.050679","164281.801172","165048.518583","168948.804627","169714.566086","155881.755662","156648.468127","157415.607864","158182.240254","158931.79876","159698.402088","168957.743953"
"Blocked","Male","done","21","M_priest.wav","space","307.161107194","317","168198.637675","160465.269447","161232.011592","161998.427255","162765.730233","163515.050679","164281.801172","165048.518583","168948.804627","169714.566086","170481.933682","156648.468127","157415.607864","158182.240254","158931.79876","159698.402088","169723.499848"
"Blocked","Male","done","21","M_romp.wav","None","732.981456909","317","168198.637675","160465.269447","161232.011592","161998.427255","162765.730233","163515.050679","164281.801172","165048.518583","168948.804627","169714.566086","170481.933682","171248.114375","157415.607864","158182.240254","158931.79876","159698.402088","170490.726462"
"Blocked","Male","done","21","M_done.wav","None","730.610745959","317","168198.637675","160465.269447","161232.011592","161998.427255","162765.730233","163515.050679","164281.801172","165048.518583","168948.804627","169714.566086","170481.933682","171248.114375","172014.93876","158182.240254","158931.79876","159698.402088","171257.156346"
"Blocked","Male","done","21","M_romp.wav","space","486.544326413","317","168198.637675","160465.269447","161232.011592","161998.427255","162765.730233","163515.050679","164281.801172","165048.518583","168948.804627","169714.566086","170481.933682","171248.114375","172014.93876","172781.728208","158931.79876","159698.402088","172024.099142"
"Blocked","Male","done","21","M_greet.wav","None","725.223776884","317","168198.637675","160465.269447","161232.011592","161998.427255","162765.730233","163515.050679","164281.801172","165048.518583","168948.804627","169714.566086","170481.933682","171248.114375","172014.93876","172781.728208","173548.526931","159698.402088","172791.019678"
"Blocked","Male","done","21","M_jolt.wav","None","721.778392326","317","168198.637675","160465.269447","161232.011592","161998.427255","162765.730233","163515.050679","164281.801172","165048.518583","168948.804627","169714.566086","170481.933682","171248.114375","172014.93876","172781.728208","173548.526931","174315.164268","173558.667071"
"Blocked","Male","done","21","M_dime.wav","None","720.13546573","317","168198.637675","175064.702368","161232.011592","161998.427255","162765.730233","163515.050679","164281.801172","165048.518583","168948.804627","169714.566086","170481.933682","171248.114375","172014.93876","172781.728208","173548.526931","174315.164268","174324.339799"
"Blocked","Male","done","21","M_done.wav","None","733.865372837","317","168198.637675","175064.702368","175831.579621","161998.427255","162765.730233","163515.050679","164281.801172","165048.518583","168948.804627","169714.566086","170481.933682","171248.114375","172014.93876","172781.728208","173548.526931","174315.164268","175074.568275"
"Blocked","Male","done","21","M_jolt.wav","space","397.624403704","317","168198.637675","175064.702368","175831.579621","176598.215721","162765.730233","163515.050679","164281.801172","165048.518583","168948.804627","169714.566086","170481.933682","171248.114375","172014.93876","172781.728208","173548.526931","174315.164268","175840.878511"
"Blocked","Male","done","21","M_greet.wav","None","728.488297202","317","168198.637675","175064.702368","175831.579621","176598.215721","177364.97487","163515.050679","164281.801172","165048.518583","168948.804627","169714.566086","170481.933682","171248.114375","172014.93876","172781.728208","173548.526931","174315.164268","176607.671978"
"Blocked","Male","done","21","M_reek.wav","None","726.23352427","317","168198.637675","175064.702368","175831.579621","176598.215721","177364.97487","178132.024021","164281.801172","165048.518583","168948.804627","169714.566086","170481.933682","171248.114375","172014.93876","172781.728208","173548.526931","174315.164268","177374.09908"
"Blocked","Male","done","21","M_done.wav","None","722.421155777","317","168198.637675","175064.702368","175831.579621","176598.215721","177364.97487","178132.024021","178898.219245","165048.518583","168948.804627","169714.566086","170481.933682","171248.114375","172014.93876","172781.728208","173548.526931","174315.164268","178141.919917"
"Blocked","Male","done","21","M_greet.wav","space","354.018832091","317","168198.637675","175064.702368","175831.579621","176598.215721","177364.97487","178132.024021","178898.219245","179648.150919","168948.804627","169714.566086","170481.933682","171248.114375","172014.93876","172781.728208","173548.526931","174315.164268","178908.398341"
"Blocked","Male","done","24","M_lash.wav","None","735.307339579","317","182781.700692","175064.702368","175831.579621","176598.215721","177364.97487","178132.024021","178898.219245","179648.150919","168948.804627","169714.566086","170481.933682","171248.114375","172014.93876","172781.728208","173548.526931","174315.164268","179657.101375"
"Blocked","Male","done","24","M_romp.wav","None","720.293141901","317","182781.700692","175064.702368","175831.579621","176598.215721","177364.97487","178132.024021","178898.219245","179648.150919","183531.172012","169714.566086","170481.933682","171248.114375","172014.93876","172781.728208","173548.526931","174315.164268","182791.455607"
"Blocked","Male","done","24","M_done.wav","None","735.109470785","317","182781.700692","175064.702368","175831.579621","176598.215721","177364.97487","178132.024021","178898.219245","179648.150919","183531.172012","184297.991759","170481.933682","171248.114375","172014.93876","172781.728208","173548.526931","174315.164268","183540.726276"
"Blocked","Male","done","24","M_cad.wav","space","418.506637216","317","182781.700692","175064.702368","175831.579621","176598.215721","177364.97487","178132.024021","178898.219245","179648.150919","183531.172012","184297.991759","185064.697113","171248.114375","172014.93876","172781.728208","173548.526931","174315.164268","184307.706791"
"Blocked","Male","done","24","M_done.wav","None","729.935519863","317","182781.700692","175064.702368","175831.579621","176598.215721","177364.97487","178132.024021","178898.219245","179648.150919","183531.172012","184297.991759","185064.697113","185831.355782","172014.93876","172781.728208","173548.526931","174315.164268","185074.005278"
"Blocked","Male","done","24","M_cling.wav","space","549.429706298","317","182781.700692","175064.702368","175831.579621","176598.215721","177364.97487","178132.024021","178898.219245","179648.150919","183531.172012","184297.991759","185064.697113","185831.355782","186597.838225","172781.728208","173548.526931","174315.164268","185840.781432"
"Blocked","Male","done","24","M_romp.wav","None","724.964074325","317","182781.700692","175064.702368","175831.579621","176598.215721","177364.97487","178132.024021","178898.219245","179648.150919","183531.172012","184297.991759","185064.697113","185831.355782","186597.838225","187364.955393","173548.526931","174315.164268","186607.385688"
"Blocked","Male","done","24","M_knife.wav","None","721.822912805","317","182781.700692","175064.702368","175831.579621","176598.215721","177364.97487","178132.024021","178898.219245","179648.150919","183531.172012","184297.991759","185064.697113","185831.355782","186597.838225","187364.955393","188131.154327","174315.164268","187374.76534"
"Blocked","Male","done","24","M_depth.wav","None","719.76167988","317","182781.700692","175064.702368","175831.579621","176598.215721","177364.97487","178132.024021","178898.219245","179648.150919","183531.172012","184297.991759","185064.697113","185831.355782","186597.838225","187364.955393","188131.154327","188881.195447","188140.898731"
"Blocked","Male","done","24","M_done.wav","None","734.269148204","317","182781.700692","189647.847933","175831.579621","176598.215721","177364.97487","178132.024021","178898.219245","179648.150919","183531.172012","184297.991759","185064.697113","185831.355782","186597.838225","187364.955393","188131.154327","188881.195447","188890.322748"
"Blocked","Male","done","24","M_greet.wav","space","308.839897159","317","182781.700692","189647.847933","190414.519897","176598.215721","177364.97487","178132.024021","178898.219245","179648.150919","183531.172012","184297.991759","185064.697113","185831.355782","186597.838225","187364.955393","188131.154327","188881.195447","189657.223188"
"Blocked","Male","done","24","M_cad.wav","None","728.954215534","317","182781.700692","189647.847933","190414.519897","191181.027691","177364.97487","178132.024021","178898.219245","179648.150919","183531.172012","184297.991759","185064.697113","185831.355782","186597.838225","187364.955393","188131.154327","188881.195447","190423.91061"
"Blocked","Male","done","24","M_bluff.wav","None","727.249455173","317","182781.700692","189647.847933","190414.519897","191181.027691","191947.489729","178132.024021","178898.219245","179648.150919","183531.172012","184297.991759","185064.697113","185831.355782","186597.838225","187364.955393","188131.154327","188881.195447","191190.125931"
"Blocked","Male","done","24","M_done.wav","None","728.287646547","317","182781.700692","189647.847933","190414.519897","191181.027691","191947.489729","192714.772612","178898.219245","179648.150919","183531.172012","184297.991759","185064.697113","185831.355782","186597.838225","187364.955393","188131.154327","188881.195447","191953.195452"
"Blocked","Male","done","24","M_cling.wav","space","393.49544514","317","182781.700692","189647.847933","190414.519897","191181.027691","191947.489729","192714.772612","193464.360489","179648.150919","183531.172012","184297.991759","185064.697113","185831.355782","186597.838225","187364.955393","188131.154327","188881.195447","192724.521344"
"Blocked","Male","done","24","M_jaw.wav","None","735.422968399","317","182781.700692","189647.847933","190414.519897","191181.027691","191947.489729","192714.772612","193464.360489","194231.009574","183531.172012","184297.991759","185064.697113","185831.355782","186597.838225","187364.955393","188131.154327","188881.195447","193473.799433"
"Blocked","Male","tile","13","M_cling.wav","None","733.757163398","317","197364.726607","189647.847933","190414.519897","191181.027691","191947.489729","192714.772612","193464.360489","194231.009574","183531.172012","184297.991759","185064.697113","185831.355782","186597.838225","187364.955393","188131.154327","188881.195447","194240.243539"
"Blocked","Male","tile","13","M_park.wav","None","721.234254073","317","197364.726607","189647.847933","190414.519897","191181.027691","191947.489729","192714.772612","193464.360489","194231.009574","198130.806203","184297.991759","185064.697113","185831.355782","186597.838225","187364.955393","188131.154327","188881.195447","197374.347962"
"Blocked","Male","tile","13","M_tile.wav","None","720.148759894","317","197364.726607","189647.847933","190414.519897","191181.027691","191947.489729","192714.772612","193464.360489","194231.009574","198130.806203","198880.913484","185064.697113","185831.355782","186597.838225","187364.955393","188131.154327","188881.195447","198139.904442"
"Blocked","Male","tile","13","M_jolt.wav","space","323.424657807","317","197364.726607","189647.847933","190414.519897","191181.027691","191947.489729","192714.772612","193464.360489","194231.009574","198130.806203","198880.913484","199647.519904","185831.355782","186597.838225","187364.955393","188131.154327","188881.195447","198890.374998"
"Blocked","Male","tile","13","M_jolt.wav","None","731.523104478","317","197364.726607","189647.847933","190414.519897","191181.027691","191947.489729","192714.772612","193464.360489","194231.009574","198130.806203","198880.913484","199647.519904","200414.216601","186597.838225","187364.955393","188131.154327","188881.195447","199657.202783"
"Blocked","Male","tile","13","M_tile.wav","None","729.664996266","317","197364.726607","189647.847933","190414.519897","191181.027691","191947.489729","192714.772612","193464.360489","194231.009574","198130.806203","198880.913484","199647.519904","200414.216601","201180.90155","187364.955393","188131.154327","188881.195447","200423.544244"
"Blocked","Male","tile","13","M_lash.wav","space","383.278321475","317","197364.726607","189647.847933","190414.519897","191181.027691","191947.489729","192714.772612","193464.360489","194231.009574","198130.806203","198880.913484","199647.519904","200414.216601","201180.90155","201946.774311","188131.154327","188881.195447","201190.376977"
"Blocked","Male","tile","13","M_romp.wav","None","730.364955962","317","197364.726607","189647.847933","190414.519897","191181.027691","191947.489729","192714.772612","193464.360489","194231.009574","198130.806203","198880.913484","199647.519904","200414.216601","201180.90155","201946.774311","202714.14036","188881.195447","201955.461355"
"Blocked","Male","tile","13","M_dime.wav","None","727.13289829","317","197364.726607","189647.847933","190414.519897","191181.027691","191947.489729","192714.772612","193464.360489","194231.009574","198130.806203","198880.913484","199647.519904","200414.216601","201180.90155","201946.774311","202714.14036","203480.289828","202723.263024"
"Blocked","Male","tile","13","M_jolt.wav","None","725.785228424","317","197364.726607","204247.709363","190414.519897","191181.027691","191947.489729","192714.772612","193464.360489","194231.009574","198130.806203","198880.913484","199647.519904","200414.216601","201180.90155","201946.774311","202714.14036","203480.289828","203489.336436"
"Blocked","Male","tile","13","M_tile.wav","space","204.329485539","317","197364.726607","204247.709363","205014.347627","191181.027691","191947.489729","192714.772612","193464.360489","194231.009574","198130.806203","198880.913484","199647.519904","200414.216601","201180.90155","201946.774311","202714.14036","203480.289828","204257.317732"
"Blocked","Male","tile","13","M_priest.wav","space","325.591935776","317","197364.726607","204247.709363","205014.347627","205763.74753","191947.489729","192714.772612","193464.360489","194231.009574","198130.806203","198880.913484","199647.519904","200414.216601","201180.90155","201946.774311","202714.14036","203480.289828","205024.010101"
"Blocked","Male","tile","13","M_tile.wav","None","734.799373429","317","197364.726607","204247.709363","205014.347627","205763.74753","206530.734537","192714.772612","193464.360489","194231.009574","198130.806203","198880.913484","199647.519904","200414.216601","201180.90155","201946.774311","202714.14036","203480.289828","205773.244597"
"Blocked","Male","tile","13","M_reek.wav","None","732.276859693","317","197364.726607","204247.709363","205014.347627","205763.74753","206530.734537","207297.168131","193464.360489","194231.009574","198130.806203","198880.913484","199647.519904","200414.216601","201180.90155","201946.774311","202714.14036","203480.289828","206540.226658"
"Blocked","Male","tile","13","M_bluff.wav","space","2.93123535812","317","197364.726607","204247.709363","205014.347627","205763.74753","206530.734537","207297.168131","208063.825564","194231.009574","198130.806203","198880.913484","199647.519904","200414.216601","201180.90155","201946.774311","202714.14036","203480.289828","207306.633973"
"Blocked","Male","tile","13","M_knife.wav","None","728.152539115","317","197364.726607","204247.709363","205014.347627","205763.74753","206530.734537","207297.168131","208063.825564","208830.586568","198130.806203","198880.913484","199647.519904","200414.216601","201180.90155","201946.774311","202714.14036","203480.289828","208072.956884"
"Blocked","Male","cave","10","M_depth.wav","None","725.778735708","317","211947.3404","204247.709363","205014.347627","205763.74753","206530.734537","207297.168131","208063.825564","208830.586568","198130.806203","198880.913484","199647.519904","200414.216601","201180.90155","201946.774311","202714.14036","203480.289828","208839.973572"
"Blocked","Male","cave","10","M_cave.wav","None","720.27892014","317","211947.3404","204247.709363","205014.347627","205763.74753","206530.734537","207297.168131","208063.825564","208830.586568","212697.16572","198880.913484","199647.519904","200414.216601","201180.90155","201946.774311","202714.14036","203480.289828","211957.637599"
"Blocked","Male","cave","10","M_jaw.wav","space","370.488289744","317","211947.3404","204247.709363","205014.347627","205763.74753","206530.734537","207297.168131","208063.825564","208830.586568","212697.16572","213463.449676","199647.519904","200414.216601","201180.90155","201946.774311","202714.14036","203480.289828","212706.901157"
"Blocked","Male","cave","10","M_cave.wav","None","733.83971164","317","211947.3404","204247.709363","205014.347627","205763.74753","206530.734537","207297.168131","208063.825564","208830.586568","212697.16572","213463.449676","214230.423698","200414.216601","201180.90155","201946.774311","202714.14036","203480.289828","213472.375089"
"Blocked","Male","cave","10","M_gnash.wav","space","461.560959462","317","211947.3404","204247.709363","205014.347627","205763.74753","206530.734537","207297.168131","208063.825564","208830.586568","212697.16572","213463.449676","214230.423698","214996.791439","201180.90155","201946.774311","202714.14036","203480.289828","214239.78906"
"Blocked","Male","cave","10","M_depth.wav","None","728.423371445","317","211947.3404","204247.709363","205014.347627","205763.74753","206530.734537","207297.168131","208063.825564","208830.586568","212697.16572","213463.449676","214230.423698","214996.791439","215763.76577","201946.774311","202714.14036","203480.289828","215005.739731"
"Blocked","Male","cave","10","M_dime.wav","None","725.360120647","317","211947.3404","204247.709363","205014.347627","205763.74753","206530.734537","207297.168131","208063.825564","208830.586568","212697.16572","213463.449676","214230.423698","214996.791439","215763.76577","216530.762981","202714.14036","203480.289828","215773.461325"
"Blocked","Male","cave","10","M_cave.wav","None","722.751966678","317","211947.3404","204247.709363","205014.347627","205763.74753","206530.734537","207297.168131","208063.825564","208830.586568","212697.16572","213463.449676","214230.423698","214996.791439","215763.76577","216530.762981","217297.37713","203480.289828","216540.764304"
"Blocked","Male","cave","10","M_jaw.wav","space","570.208367892","317","211947.3404","204247.709363","205014.347627","205763.74753","206530.734537","207297.168131","208063.825564","208830.586568","212697.16572","213463.449676","214230.423698","214996.791439","215763.76577","216530.762981","217297.37713","218063.933773","217307.05568"
"Blocked","Male","cave","10","M_cad.wav","None","718.081343453","317","211947.3404","218813.492897","205014.347627","205763.74753","206530.734537","207297.168131","208063.825564","208830.586568","212697.16572","213463.449676","214230.423698","214996.791439","215763.76577","216530.762981","217297.37713","218063.933773","218074.032794"
"Blocked","Male","cave","10","M_cave.wav","None","733.298974577","317","211947.3404","218813.492897","219580.354382","205763.74753","206530.734537","207297.168131","208063.825564","208830.586568","212697.16572","213463.449676","214230.423698","214996.791439","215763.76577","216530.762981","217297.37713","218063.933773","218823.053036"
"Blocked","Male","cave","10","M_greet.wav","space","526.782732923","317","211947.3404","218813.492897","219580.354382","220346.927103","206530.734537","207297.168131","208063.825564","208830.586568","212697.16572","213463.449676","214230.423698","214996.791439","215763.76577","216530.762981","217297.37713","218063.933773","219590.38013"
"Blocked","Male","cave","10","M_gnash.wav","None","728.261057753","317","211947.3404","218813.492897","219580.354382","220346.927103","221113.544034","207297.168131","208063.825564","208830.586568","212697.16572","213463.449676","214230.423698","214996.791439","215763.76577","216530.762981","217297.37713","218063.933773","220356.372848"
"Blocked","Male","cave","10","M_depth.wav","None","726.403567474","317","211947.3404","218813.492897","219580.354382","220346.927103","221113.544034","221880.509709","208063.825564","208830.586568","212697.16572","213463.449676","214230.423698","214996.791439","215763.76577","216530.762981","217297.37713","218063.933773","221122.598681"
"Blocked","Male","cave","10","M_romp.wav","None","723.199644126","317","211947.3404","218813.492897","219580.354382","220346.927103","221113.544034","221880.509709","222646.816853","208830.586568","212697.16572","213463.449676","214230.423698","214996.791439","215763.76577","216530.762981","217297.37713","218063.933773","221890.565137"
"Blocked","Male","cave","10","M_knife.wav","None","726.34977242","317","211947.3404","218813.492897","219580.354382","220346.927103","221113.544034","221880.509709","222646.816853","223413.922272","212697.16572","213463.449676","214230.423698","214996.791439","215763.76577","216530.762981","217297.37713","218063.933773","222652.260709"
"Blocked","Male","cave","8","M_cling.wav","None","719.718086533","317","226530.516881","218813.492897","219580.354382","220346.927103","221113.544034","221880.509709","222646.816853","223413.922272","212697.16572","213463.449676","214230.423698","214996.791439","215763.76577","216530.762981","217297.37713","218063.933773","223423.571142"
"Blocked","Male","cave","8","M_depth.wav","None","720.065593719","317","226530.516881","218813.492897","219580.354382","220346.927103","221113.544034","221880.509709","222646.816853","223413.922272","227279.863607","213463.449676","214230.423698","214996.791439","215763.76577","216530.762981","217297.37713","218063.933773","226540.135144"
"Blocked","Male","cave","8","M_cave.wav","None","735.293117352","317","226530.516881","218813.492897","219580.354382","220346.927103","221113.544034","221880.509709","222646.816853","223413.922272","227279.863607","228046.53186","214230.423698","214996.791439","215763.76577","216530.762981","217297.37713","218063.933773","227289.348308"
"Blocked","Male","cave","8","M_jolt.wav","space","300.794379786","317","226530.516881","218813.492897","219580.354382","220346.927103","221113.544034","221880.509709","222646.816853","223413.922272","227279.863607","228046.53186","228813.381287","214996.791439","215763.76577","216530.762981","217297.37713","218063.933773","228056.146722"
"Blocked","Male","cave","8","M_greet.wav","None","729.362628423","317","226530.516881","218813.492897","219580.354382","220346.927103","221113.544034","221880.509709","222646.816853","223413.922272","227279.863607","228046.53186","228813.381287","229579.962664","215763.76577","216530.762981","217297.37713","218063.933773","228823.116725"
"Blocked","Male","cave","8","M_gnash.wav","None","727.435884066","317","226530.516881","218813.492897","219580.354382","220346.927103","221113.544034","221880.509709","222646.816853","223413.922272","227279.863607","228046.53186","228813.381287","229579.962664","230346.531366","216530.762981","217297.37713","218063.933773","229589.399754"
"Blocked","Male","cave","8","M_bluff.wav","None","725.196260493","317","226530.516881","218813.492897","219580.354382","220346.927103","221113.544034","221880.509709","222646.816853","223413.922272","227279.863607","228046.53186","228813.381287","229579.962664","230346.531366","231113.681306","217297.37713","218063.933773","230356.030598"
"Blocked","Male","cave","8","M_bluff.wav","None","722.083233297","317","226530.516881","218813.492897","219580.354382","220346.927103","221113.544034","221880.509709","222646.816853","223413.922272","227279.863607","228046.53186","228813.381287","229579.962664","230346.531366","231113.681306","231879.803875","218063.933773","231123.810934"
"Blocked","Male","cave","8","M_cave.wav","None","721.25002183","317","226530.516881","218813.492897","219580.354382","220346.927103","221113.544034","221880.509709","222646.816853","223413.922272","227279.863607","228046.53186","228813.381287","229579.962664","230346.531366","231113.681306","231879.803875","232629.7946","231889.123789"
"Blocked","Male","cave","8","M_jolt.wav","space","533.322285395","317","226530.516881","233396.515722","219580.354382","220346.927103","221113.544034","221880.509709","222646.816853","223413.922272","227279.863607","228046.53186","228813.381287","229579.962664","230346.531366","231113.681306","231879.803875","232629.7946","232639.443161"
"Blocked","Male","cave","8","M_cave.wav","None","732.32539976","317","226530.516881","233396.515722","234162.779891","220346.927103","221113.544034","221880.509709","222646.816853","223413.922272","227279.863607","228046.53186","228813.381287","229579.962664","230346.531366","231113.681306","231879.803875","232629.7946","233406.315157"
"Blocked","Male","cave","8","M_lash.wav","space","625.089659356","317","226530.516881","233396.515722","234162.779891","234929.880982","221113.544034","221880.509709","222646.816853","223413.922272","227279.863607","228046.53186","228813.381287","229579.962664","230346.531366","231113.681306","231879.803875","232629.7946","234171.614718"
"Blocked","Male","cave","8","M_park.wav","None","727.626023814","317","226530.516881","233396.515722","234162.779891","234929.880982","235696.50286","221880.509709","222646.816853","223413.922272","227279.863607","228046.53186","228813.381287","229579.962664","230346.531366","231113.681306","231879.803875","232629.7946","234939.270459"
"Blocked","Male","cave","8","M_cave.wav","None","725.552114658","317","226530.516881","233396.515722","234162.779891","234929.880982","235696.50286","236463.073726","222646.816853","223413.922272","227279.863607","228046.53186","228813.381287","229579.962664","230346.531366","231113.681306","231879.803875","232629.7946","235705.869459"
"Blocked","Male","cave","8","M_gnash.wav","None","724.137355108","317","226530.516881","233396.515722","234162.779891","234929.880982","235696.50286","236463.073726","237230.143281","223413.922272","227279.863607","228046.53186","228813.381287","229579.962664","230346.531366","231113.681306","231879.803875","232629.7946","236472.820912"
"Blocked","Male","cave","8","M_cad.wav","space","0.0278251245618","317","226530.516881","233396.515722","234162.779891","234929.880982","235696.50286","236463.073726","237230.143281","237996.712292","227279.863607","228046.53186","228813.381287","229579.962664","230346.531366","231113.681306","231879.803875","232629.7946","237239.466596"
"Blocked","Male","ball","2","M_jolt.wav","None","719.446636271","317","241113.371208","233396.515722","234162.779891","234929.880982","235696.50286","236463.073726","237230.143281","237996.712292","227279.863607","228046.53186","228813.381287","229579.962664","230346.531366","231113.681306","231879.803875","232629.7946","238006.420522"
"Blocked","Male","ball","2","M_ball.wav","None","721.140266396","317","241113.371208","233396.515722","234162.779891","234929.880982","235696.50286","236463.073726","237230.143281","237996.712292","241880.032351","228046.53186","228813.381287","229579.962664","230346.531366","231113.681306","231879.803875","232629.7946","241122.714619"
"Blocked","Male","ball","2","M_romp.wav","space","482.9112757","317","241113.371208","233396.515722","234162.779891","234929.880982","235696.50286","236463.073726","237230.143281","237996.712292","241880.032351","242629.64929","228813.381287","229579.962664","230346.531366","231113.681306","231879.803875","232629.7946","241889.578268"
"Blocked","Male","ball","2","M_greet.wav","None","733.060914092","317","241113.371208","233396.515722","234162.779891","234929.880982","235696.50286","236463.073726","237230.143281","237996.712292","241880.032351","242629.64929","243396.086904","229579.962664","230346.531366","231113.681306","231879.803875","232629.7946","242639.586615"
"Blocked","Male","ball","2","M_priest.wav","None","732.12969536","317","241113.371208","233396.515722","234162.779891","234929.880982","235696.50286","236463.073726","237230.143281","237996.712292","241880.032351","242629.64929","243396.086904","244162.956736","230346.531366","231113.681306","231879.803875","232629.7946","243405.327361"
"Blocked","Male","ball","2","M_knife.wav","None","735.177178867","317","241113.371208","233396.515722","234162.779891","234929.880982","235696.50286","236463.073726","237230.143281","237996.712292","241880.032351","242629.64929","243396.086904","244162.956736","244929.593454","231113.681306","231879.803875","232629.7946","244166.895246"
"Blocked","Male","ball","2","M_dime.wav","None","727.610565256","317","241113.371208","233396.515722","234162.779891","234929.880982","235696.50286","236463.073726","237230.143281","237996.712292","241880.032351","242629.64929","243396.086904","244162.956736","244929.593454","245696.174213","231879.803875","232629.7946","244938.971183"
"Blocked","Male","ball","2","M_jaw.wav","None","725.601581857","317","241113.371208","233396.515722","234162.779891","234929.880982","235696.50286","236463.073726","237230.143281","237996.712292","241880.032351","242629.64929","243396.086904","244162.956736","244929.593454","245696.174213","246463.188737","232629.7946","245705.57853"
"Blocked","Male","ball","2","M_ball.wav","None","723.120497074","317","241113.371208","233396.515722","234162.779891","234929.880982","235696.50286","236463.073726","237230.143281","237996.712292","241880.032351","242629.64929","243396.086904","244162.956736","244929.593454","245696.174213","246463.188737","247229.739506","246472.936541"
"Blocked","Male","ball","2","M_priest.wav","space","380.833100528","317","241113.371208","247979.792683","234162.779891","234929.880982","235696.50286","236463.073726","237230.143281","237996.712292","241880.032351","242629.64929","243396.086904","244162.956736","244929.593454","245696.174213","246463.188737","247229.739506","247239.482054"
"Blocked","Male","ball","2","M_dime.wav","None","735.740176402","317","241113.371208","247979.792683","248746.015115","234929.880982","235696.50286","236463.073726","237230.143281","237996.712292","241880.032351","242629.64929","243396.086904","244162.956736","244929.593454","245696.174213","246463.188737","247229.739506","247988.806519"
"Blocked","Male","ball","2","M_ball.wav","None","733.576299157","317","241113.371208","247979.792683","248746.015115","249512.563411","235696.50286","236463.073726","237230.143281","237996.712292","241880.032351","242629.64929","243396.086904","244162.956736","244929.593454","245696.174213","246463.188737","247229.739506","248755.413867"
"Blocked","Male","ball","2","M_priest.wav","space","586.217781529","317","241113.371208","247979.792683","248746.015115","249512.563411","250279.360897","236463.073726","237230.143281","237996.712292","241880.032351","242629.64929","243396.086904","244162.956736","244929.593454","245696.174213","246463.188737","247229.739506","249522.066352"
"Blocked","Male","ball","2","M_bluff.wav","None","728.8070512","317","241113.371208","247979.792683","248746.015115","249512.563411","250279.360897","251046.0072","237230.143281","237996.712292","241880.032351","242629.64929","243396.086904","244162.956736","244929.593454","245696.174213","246463.188737","247229.739506","250288.91207"
"Blocked","Male","ball","2","M_ball.wav","None","726.628024597","317","241113.371208","247979.792683","248746.015115","249512.563411","250279.360897","251046.0072","251813.089122","237996.712292","241880.032351","242629.64929","243396.086904","244162.956736","244929.593454","245696.174213","246463.188737","247229.739506","251055.456346"
"Blocked","Male","ball","2","M_jaw.wav","space","301.387676038","317","241113.371208","247979.792683","248746.015115","249512.563411","250279.360897","251046.0072","251813.089122","252579.685031","241880.032351","242629.64929","243396.086904","244162.956736","244929.593454","245696.174213","246463.188737","247229.739506","251822.840018"
"Blocked","Male","ball","4","M_bluff.wav","None","720.964349341","317","255696.126292","247979.792683","248746.015115","249512.563411","250279.360897","251046.0072","251813.089122","252579.685031","241880.032351","242629.64929","243396.086904","244162.956736","244929.593454","245696.174213","246463.188737","247229.739506","252589.446129"
"Blocked","Male","ball","4","M_jaw.wav","None","721.10811295","317","255696.126292","247979.792683","248746.015115","249512.563411","250279.360897","251046.0072","251813.089122","252579.685031","256462.865345","242629.64929","243396.086904","244162.956736","244929.593454","245696.174213","246463.188737","247229.739506","255705.767433"
"Blocked","Male","ball","4","M_ball.wav","None","718.627027702","317","255696.126292","247979.792683","248746.015115","249512.563411","250279.360897","251046.0072","251813.089122","252579.685031","256462.865345","257211.969063","243396.086904","244162.956736","244929.593454","245696.174213","246463.188737","247229.739506","256472.946743"
"Blocked","Male","ball","4","M_priest.wav","space","407.252249774","317","255696.126292","247979.792683","248746.015115","249512.563411","250279.360897","251046.0072","251813.089122","252579.685031","256462.865345","257211.969063","257979.138171","244162.956736","244929.593454","245696.174213","246463.188737","247229.739506","257220.820276"
"Blocked","Male","ball","4","M_jolt.wav","None","731.566388626","317","255696.126292","247979.792683","248746.015115","249512.563411","250279.360897","251046.0072","251813.089122","252579.685031","256462.865345","257211.969063","257979.138171","258745.706563","244929.593454","245696.174213","246463.188737","247229.739506","257988.462722"
"Blocked","Male","ball","4","M_greet.wav","None","729.690348264","317","255696.126292","247979.792683","248746.015115","249512.563411","250279.360897","251046.0072","251813.089122","252579.685031","256462.865345","257211.969063","257979.138171","258745.706563","259512.063174","245696.174213","246463.188737","247229.739506","258755.154164"
"Blocked","Male","ball","4","M_ball.wav","None","727.78215399","317","255696.126292","247979.792683","248746.015115","249512.563411","250279.360897","251046.0072","251813.089122","252579.685031","256462.865345","257211.969063","257979.138171","258745.706563","259512.063174","260279.042143","246463.188737","247229.739506","259521.636607"
"Blocked","Male","ball","4","M_greet.wav","space","443.442082498","317","255696.126292","247979.792683","248746.015115","249512.563411","250279.360897","251046.0072","251813.089122","252579.685031","256462.865345","257211.969063","257979.138171","258745.706563","259512.063174","260279.042143","261046.019567","247229.739506","260288.486343"
"Blocked","Male","ball","4","M_lash.wav","None","721.736035775","317","255696.126292","247979.792683","248746.015115","249512.563411","250279.360897","251046.0072","251813.089122","252579.685031","256462.865345","257211.969063","257979.138171","258745.706563","259512.063174","260279.042143","261046.019567","261812.804996","261056.099728"
"Blocked","Male","ball","4","M_ball.wav","None","719.776829239","317","255696.126292","262562.407713","248746.015115","249512.563411","250279.360897","251046.0072","251813.089122","252579.685031","256462.865345","257211.969063","257979.138171","258745.706563","259512.063174","260279.042143","261046.019567","261812.804996","261822.757779"
"Blocked","Male","ball","4","M_greet.wav","space","319.958249573","317","255696.126292","262562.407713","263329.030828","249512.563411","250279.360897","251046.0072","251813.089122","252579.685031","256462.865345","257211.969063","257979.138171","258745.706563","259512.063174","260279.042143","261046.019567","261812.804996","262571.889322"
"Blocked","Male","ball","4","M_ball.wav","None","732.579537202","317","255696.126292","262562.407713","263329.030828","264095.46133","250279.360897","251046.0072","251813.089122","252579.685031","256462.865345","257211.969063","257979.138171","258745.706563","259512.063174","260279.042143","261046.019567","261812.804996","263338.541499"
"Blocked","Male","ball","4","M_depth.wav","space","339.031532872","317","255696.126292","262562.407713","263329.030828","264095.46133","264862.27613","251046.0072","251813.089122","252579.685031","256462.865345","257211.969063","257979.138171","258745.706563","259512.063174","260279.042143","261046.019567","261812.804996","264104.798248"
"Blocked","Male","ball","4","M_greet.wav","None","728.721411433","317","255696.126292","262562.407713","263329.030828","264095.46133","264862.27613","265628.700758","251813.089122","252579.685031","256462.865345","257211.969063","257979.138171","258745.706563","259512.063174","260279.042143","261046.019567","261812.804996","264871.526171"
"Blocked","Male","ball","4","M_reek.wav","None","729.922843631","317","255696.126292","262562.407713","263329.030828","264095.46133","264862.27613","265628.700758","266395.458671","252579.685031","256462.865345","257211.969063","257979.138171","258745.706563","259512.063174","260279.042143","261046.019567","261812.804996","265637.691407"
"Blocked","Male","ball","4","M_gnash.wav","None","728.119458072","317","255696.126292","262562.407713","263329.030828","264095.46133","264862.27613","265628.700758","266395.458671","267162.199889","256462.865345","257211.969063","257979.138171","258745.706563","259512.063174","260279.042143","261046.019567","261812.804996","266404.896379"
"Blocked","Male","cave","12","M_cad.wav","None","726.266914513","317","270295.701122","262562.407713","263329.030828","264095.46133","264862.27613","265628.700758","266395.458671","267162.199889","256462.865345","257211.969063","257979.138171","258745.706563","259512.063174","260279.042143","261046.019567","261812.804996","267171.352233"
"Blocked","Male","cave","12","M_gnash.wav","None","720.748858061","317","270295.701122","262562.407713","263329.030828","264095.46133","264862.27613","265628.700758","266395.458671","267162.199889","271045.43029","257211.969063","257979.138171","258745.706563","259512.063174","260279.042143","261046.019567","261812.804996","270305.202518"
"Blocked","Male","cave","12","M_jaw.wav","None","735.692564398","317","270295.701122","262562.407713","263329.030828","264095.46133","264862.27613","265628.700758","266395.458671","267162.199889","271045.43029","271812.045366","257979.138171","258745.706563","259512.063174","260279.042143","261046.019567","261812.804996","271054.776792"
"Blocked","Male","cave","12","M_cave.wav","None","733.849295881","317","270295.701122","262562.407713","263329.030828","264095.46133","264862.27613","265628.700758","266395.458671","267162.199889","271045.43029","271812.045366","272578.735262","258745.706563","259512.063174","260279.042143","261046.019567","261812.804996","271821.083008"
"Blocked","Male","cave","12","M_reek.wav","space","351.028545294","317","270295.701122","262562.407713","263329.030828","264095.46133","264862.27613","265628.700758","266395.458671","267162.199889","271045.43029","271812.045366","272578.735262","273345.011179","259512.063174","260279.042143","261046.019567","261812.804996","272588.570252"
"Blocked","Male","cave","12","M_cave.wav","None","729.364174418","317","270295.701122","262562.407713","263329.030828","264095.46133","264862.27613","265628.700758","266395.458671","267162.199889","271045.43029","271812.045366","272578.735262","273345.011179","274111.584209","260279.042143","261046.019567","261812.804996","273354.085303"
"Blocked","Male","cave","12","M_jolt.wav","None","727.52956301","317","270295.701122","262562.407713","263329.030828","264095.46133","264862.27613","265628.700758","266395.458671","267162.199889","271045.43029","271812.045366","272578.735262","273345.011179","274111.584209","274878.679735","261046.019567","261812.804996","274120.549505"
"Blocked","Male","cave","12","M_bluff.wav","space","19.4736574776","317","270295.701122","262562.407713","263329.030828","264095.46133","264862.27613","265628.700758","266395.458671","267162.199889","271045.43029","271812.045366","272578.735262","273345.011179","274111.584209","274878.679735","275645.514631","261812.804996","274888.071067"
"Blocked","Male","cave","12","M_park.wav","None","722.220504656","317","270295.701122","262562.407713","263329.030828","264095.46133","264862.27613","265628.700758","266395.458671","267162.199889","271045.43029","271812.045366","272578.735262","273345.011179","274111.584209","274878.679735","275645.514631","276412.339015","275654.598648"
"Blocked","Male","cave","12","M_knife.wav","None","718.887657858","317","270295.701122","277161.329577","263329.030828","264095.46133","264862.27613","265628.700758","266395.458671","267162.199889","271045.43029","271812.045366","272578.735262","273345.011179","274111.584209","274878.679735","275645.514631","276412.339015","276422.479774"
"Blocked","Male","cave","12","M_cave.wav","None","735.850549769","317","270295.701122","277161.329577","277928.602257","264095.46133","264862.27613","265628.700758","266395.458671","267162.199889","271045.43029","271812.045366","272578.735262","273345.011179","274111.584209","274878.679735","275645.514631","276412.339015","277170.285598"
"Blocked","Male","cave","12","M_greet.wav","space","665.415560827","317","270295.701122","277161.329577","277928.602257","278695.201875","264862.27613","265628.700758","266395.458671","267162.199889","271045.43029","271812.045366","272578.735262","273345.011179","274111.584209","274878.679735","275645.514631","276412.339015","277937.997917"
"Blocked","Male","cave","12","M_reek.wav","None","730.703187641","317","270295.701122","277161.329577","277928.602257","278695.201875","279461.899809","265628.700758","266395.458671","267162.199889","271045.43029","271812.045366","272578.735262","273345.011179","274111.584209","274878.679735","275645.514631","276412.339015","278704.614849"
"Blocked","Male","cave","12","M_cave.wav","None","728.23261423","317","270295.701122","277161.329577","277928.602257","278695.201875","279461.899809","280228.069372","266395.458671","267162.199889","271045.43029","271812.045366","272578.735262","273345.011179","274111.584209","274878.679735","275645.514631","276412.339015","279471.941015"
"Blocked","Male","cave","12","M_romp.wav","None","728.278680239","317","270295.701122","277161.329577","277928.602257","278695.201875","279461.899809","280228.069372","280994.79946","267162.199889","271045.43029","271812.045366","272578.735262","273345.011179","274111.584209","274878.679735","275645.514631","276412.339015","280236.912238"
"Blocked","Male","cave","12","M_bluff.wav","space","0.0268979929388","317","270295.701122","277161.329577","277928.602257","278695.201875","279461.899809","280228.069372","280994.79946","281762.17262","271045.43029","271812.045366","272578.735262","273345.011179","274111.584209","274878.679735","275645.514631","276412.339015","281003.603061"
"Blocked","Male","cave","9","M_bluff.wav","None","721.881345846","317","284878.68901","277161.329577","277928.602257","278695.201875","279461.899809","280228.069372","280994.79946","281762.17262","271045.43029","271812.045366","272578.735262","273345.011179","274111.584209","274878.679735","275645.514631","276412.339015","281771.843132"
"Blocked","Male","cave","9","M_cave.wav","None","720.041787252","317","284878.68901","277161.329577","277928.602257","278695.201875","279461.899809","280228.069372","280994.79946","281762.17262","285628.336866","271812.045366","272578.735262","273345.011179","274111.584209","274878.679735","275645.514631","276412.339015","284888.388584"
"Blocked","Male","cave","9","M_gnash.wav","space","373.308533803","317","284878.68901","277161.329577","277928.602257","278695.201875","279461.899809","280228.069372","280994.79946","281762.17262","285628.336866","286395.037892","272578.735262","273345.011179","274111.584209","274878.679735","275645.514631","276412.339015","285637.897623"
"Blocked","Male","cave","9","M_bluff.wav","None","733.026287053","317","284878.68901","277161.329577","277928.602257","278695.201875","279461.899809","280228.069372","280994.79946","281762.17262","285628.336866","286395.037892","287161.42542","273345.011179","274111.584209","274878.679735","275645.514631","276412.339015","286404.375737"
"Blocked","Male","cave","9","M_cad.wav","None","731.983767357","317","284878.68901","277161.329577","277928.602257","278695.201875","279461.899809","280228.069372","280994.79946","281762.17262","285628.336866","286395.037892","287161.42542","287928.023801","274111.584209","274878.679735","275645.514631","276412.339015","287170.493979"
"Blocked","Male","cave","9","M_cave.wav","None","730.490787886","317","284878.68901","277161.329577","277928.602257","278695.201875","279461.899809","280228.069372","280994.79946","281762.17262","285628.336866","286395.037892","287161.42542","287928.023801","288694.613216","274878.679735","275645.514631","276412.339015","287937.121113"
"Blocked","Male","cave","9","M_reek.wav","space","459.715836216","317","284878.68901","277161.329577","277928.602257","278695.201875","279461.899809","280228.069372","280994.79946","281762.17262","285628.336866","286395.037892","287161.42542","287928.023801","288694.613216","289461.644745","275645.514631","276412.339015","288703.384354"
"Blocked","Male","cave","9","M_greet.wav","None","724.820619915","317","284878.68901","277161.329577","277928.602257","278695.201875","279461.899809","280228.069372","280994.79946","281762.17262","285628.336866","286395.037892","287161.42542","287928.023801","288694.613216","289461.644745","290228.218701","276412.339015","289471.112441"
"Blocked","Male","cave","9","M_bluff.wav","None","723.491190933","317","284878.68901","277161.329577","277928.602257","278695.201875","279461.899809","280228.069372","280994.79946","281762.17262","285628.336866","286395.037892","287161.42542","287928.023801","288694.613216","289461.644745","290228.218701","290994.907978","290237.315704"
"Blocked","Male","cave","9","M_cave.wav","space","325.805263128","317","284878.68901","291744.619214","277928.602257","278695.201875","279461.899809","280228.069372","280994.79946","281762.17262","285628.336866","286395.037892","287161.42542","287928.023801","288694.613216","289461.644745","290228.218701","290994.907978","291005.23022"
"Blocked","Male","cave","9","M_cling.wav","space","504.791817628","317","284878.68901","291744.619214","292511.423193","278695.201875","279461.899809","280228.069372","280994.79946","281762.17262","285628.336866","286395.037892","287161.42542","287928.023801","288694.613216","289461.644745","290228.218701","290994.907978","291754.236858"
"Blocked","Male","cave","9","M_park.wav","None","732.48369433","317","284878.68901","291744.619214","292511.423193","293278.09794","279461.899809","280228.069372","280994.79946","281762.17262","285628.336866","286395.037892","287161.42542","287928.023801","288694.613216","289461.644745","290228.218701","290994.907978","292520.720229"
"Blocked","Male","cave","9","M_reek.wav","None","730.731321499","317","284878.68901","291744.619214","292511.423193","293278.09794","294044.265339","280228.069372","280994.79946","281762.17262","285628.336866","286395.037892","287161.42542","287928.023801","288694.613216","289461.644745","290228.218701","290994.907978","293287.412289"
"Blocked","Male","cave","9","M_cad.wav","None","730.051457882","317","284878.68901","291744.619214","292511.423193","293278.09794","294044.265339","294811.388381","280994.79946","281762.17262","285628.336866","286395.037892","287161.42542","287928.023801","288694.613216","289461.644745","290228.218701","290994.907978","294053.022255"
"Blocked","Male","cave","9","M_cave.wav","None","727.243271656","317","284878.68901","291744.619214","292511.423193","293278.09794","294044.265339","294811.388381","295577.9914","281762.17262","285628.336866","286395.037892","287161.42542","287928.023801","288694.613216","289461.644745","290228.218701","290994.907978","294820.682324"
"Blocked","Male","cave","9","M_bluff.wav","space","510.911518242","317","284878.68901","291744.619214","292511.423193","293278.09794","294044.265339","294811.388381","295577.9914","296344.564739","285628.336866","286395.037892","287161.42542","287928.023801","288694.613216","289461.644745","290228.218701","290994.907978","295587.994887"
"Blocked","Male","ball","3","M_cad.wav","None","723.140592687","317","299461.683081","291744.619214","292511.423193","293278.09794","294044.265339","294811.388381","295577.9914","296344.564739","285628.336866","286395.037892","287161.42542","287928.023801","288694.613216","289461.644745","290228.218701","290994.907978","296353.799631"
"Blocked","Male","ball","3","M_cling.wav","None","721.266716719","317","299461.683081","291744.619214","292511.423193","293278.09794","294044.265339","294811.388381","295577.9914","296344.564739","300227.780917","286395.037892","287161.42542","287928.023801","288694.613216","289461.644745","290228.218701","290994.907978","299471.066375"
"Blocked","Male","ball","3","M_knife.wav","None","720.248621888","317","299461.683081","291744.619214","292511.423193","293278.09794","294044.265339","294811.388381","295577.9914","296344.564739","300227.780917","300977.801322","287161.42542","287928.023801","288694.613216","289461.644745","290228.218701","290994.907978","300236.757962"
"Blocked","Male","ball","3","M_ball.wav","None","735.031869262","317","299461.683081","291744.619214","292511.423193","293278.09794","294044.265339","294811.388381","295577.9914","296344.564739","300227.780917","300977.801322","301744.28562","287928.023801","288694.613216","289461.644745","290228.218701","290994.907978","300987.500896"
"Blocked","Male","ball","3","M_knife.wav","space","273.338275962","317","299461.683081","291744.619214","292511.423193","293278.09794","294044.265339","294811.388381","295577.9914","296344.564739","300227.780917","300977.801322","301744.28562","302510.790942","288694.613216","289461.644745","290228.218701","290994.907978","301753.396536"
"Blocked","Male","ball","3","M_jaw.wav","None","731.344405096","317","299461.683081","291744.619214","292511.423193","293278.09794","294044.265339","294811.388381","295577.9914","296344.564739","300227.780917","300977.801322","301744.28562","302510.790942","303277.819378","289461.644745","290228.218701","290994.907978","302519.96771"
"Blocked","Male","ball","3","M_priest.wav","None","730.123803951","317","299461.683081","291744.619214","292511.423193","293278.09794","294044.265339","294811.388381","295577.9914","296344.564739","300227.780917","300977.801322","301744.28562","302510.790942","303277.819378","304044.109209","290228.218701","290994.907978","303286.792404"
"Blocked","Male","ball","3","M_lash.wav","None","728.718319442","317","299461.683081","291744.619214","292511.423193","293278.09794","294044.265339","294811.388381","295577.9914","296344.564739","300227.780917","300977.801322","301744.28562","302510.790942","303277.819378","304044.109209","304810.698624","290994.907978","304053.271755"
"Blocked","Male","ball","3","M_ball.wav","None","727.297685575","317","299461.683081","291744.619214","292511.423193","293278.09794","294044.265339","294811.388381","295577.9914","296344.564739","300227.780917","300977.801322","301744.28562","302510.790942","303277.819378","304044.109209","304810.698624","305577.679448","304819.579517"
"Blocked","Male","ball","3","M_greet.wav","space","335.940147284","317","299461.683081","306344.469823","292511.423193","293278.09794","294044.265339","294811.388381","295577.9914","296344.564739","300227.780917","300977.801322","301744.28562","302510.790942","303277.819378","304044.109209","304810.698624","305577.679448","305586.616301"
"Blocked","Male","ball","3","M_greet.wav","None","721.026801039","317","299461.683081","306344.469823","307111.238867","293278.09794","294044.265339","294811.388381","295577.9914","296344.564739","300227.780917","300977.801322","301744.28562","302510.790942","303277.819378","304044.109209","304810.698624","305577.679448","306354.36943"
"Blocked","Male","ball","3","M_ball.wav","None","719.236091711","317","299461.683081","306344.469823","307111.238867","307860.367318","294044.265339","294811.388381","295577.9914","296344.564739","300227.780917","300977.801322","301744.28562","302510.790942","303277.819378","304044.109209","304810.698624","305577.679448","307120.971213"
"Blocked","Male","ball","3","M_jaw.wav","space","461.206651293","317","299461.683081","306344.469823","307111.238867","307860.367318","308627.604134","294811.388381","295577.9914","296344.564739","300227.780917","300977.801322","301744.28562","302510.790942","303277.819378","304044.109209","304810.698624","305577.679448","307869.316537"
"Blocked","Male","ball","3","M_reek.wav","None","732.17205191","317","299461.683081","306344.469823","307111.238867","307860.367318","308627.604134","309394.135426","295577.9914","296344.564739","300227.780917","300977.801322","301744.28562","302510.790942","303277.819378","304044.109209","304810.698624","305577.679448","308637.073686"
"Blocked","Male","ball","3","M_ball.wav","None","730.479039717","317","299461.683081","306344.469823","307111.238867","307860.367318","308627.604134","309394.135426","310160.957646","296344.564739","300227.780917","300977.801322","301744.28562","302510.790942","303277.819378","304044.109209","304810.698624","305577.679448","309403.642387"
"Blocked","Male","ball","3","M_reek.wav","space","592.364998069","317","299461.683081","306344.469823","307111.238867","307860.367318","308627.604134","309394.135426","310160.957646","310927.593437","300227.780917","300977.801322","301744.28562","302510.790942","303277.819378","304044.109209","304810.698624","305577.679448","310170.08402"
"Blocked","Male","ball","6","M_priest.wav","None","726.00844875","317","314061.132389","306344.469823","307111.238867","307860.367318","308627.604134","309394.135426","310160.957646","310927.593437","300227.780917","300977.801322","301744.28562","302510.790942","303277.819378","304044.109209","304810.698624","305577.679448","310937.115239"
"Blocked","Male","ball","6","M_ball.wav","None","721.065447666","317","314061.132389","306344.469823","307111.238867","307860.367318","308627.604134","309394.135426","310160.957646","310927.593437","314827.189105","300977.801322","301744.28562","302510.790942","303277.819378","304044.109209","304810.698624","305577.679448","314070.888849"
"Blocked","Male","ball","6","M_park.wav","space","390.00306651","317","314061.132389","306344.469823","307111.238867","307860.367318","308627.604134","309394.135426","310160.957646","310927.593437","314827.189105","315577.422837","301744.28562","302510.790942","303277.819378","304044.109209","304810.698624","305577.679448","314836.280543"
"Blocked","Male","ball","6","M_park.wav","None","733.909893315","317","314061.132389","306344.469823","307111.238867","307860.367318","308627.604134","309394.135426","310160.957646","310927.593437","314827.189105","315577.422837","316343.938361","302510.790942","303277.819378","304044.109209","304810.698624","305577.679448","315587.106952"
"Blocked","Male","ball","6","M_ball.wav","None","732.636115048","317","314061.132389","306344.469823","307111.238867","307860.367318","308627.604134","309394.135426","310160.957646","310927.593437","314827.189105","315577.422837","316343.938361","317110.755635","303277.819378","304044.109209","304810.698624","305577.679448","316353.403585"
"Blocked","Male","ball","6","M_dime.wav","space","369.950025808","317","314061.132389","306344.469823","307111.238867","307860.367318","308627.604134","309394.135426","310160.957646","310927.593437","314827.189105","315577.422837","316343.938361","317110.755635","317877.391735","304044.109209","304810.698624","305577.679448","317120.302788"
"Blocked","Male","ball","6","M_jolt.wav","None","728.703479283","317","314061.132389","306344.469823","307111.238867","307860.367318","308627.604134","309394.135426","310160.957646","310927.593437","314827.189105","315577.422837","316343.938361","317110.755635","317877.391735","318643.834604","304810.698624","305577.679448","317886.638375"
"Blocked","Male","ball","6","M_jolt.wav","None","727.288410533","317","314061.132389","306344.469823","307111.238867","307860.367318","308627.604134","309394.135426","310160.957646","310927.593437","314827.189105","315577.422837","316343.938361","317110.755635","317877.391735","318643.834604","319410.481216","305577.679448","318653.372792"
"Blocked","Male","ball","6","M_ball.wav","None","725.877052173","317","314061.132389","306344.469823","307111.238867","307860.367318","308627.604134","309394.135426","310160.957646","310927.593437","314827.189105","315577.422837","316343.938361","317110.755635","317877.391735","318643.834604","319410.481216","320177.710922","319419.874403"
"Blocked","Male","ball","6","M_knife.wav","space","350.823565852","317","314061.132389","320944.21346","307111.238867","307860.367318","308627.604134","309394.135426","310160.957646","310927.593437","314827.189105","315577.422837","316343.938361","317110.755635","317877.391735","318643.834604","319410.481216","320177.710922","320187.350516"
"Blocked","Male","ball","6","M_reek.wav","None","721.793541685","317","314061.132389","320944.21346","321710.342214","307860.367318","308627.604134","309394.135426","310160.957646","310927.593437","314827.189105","315577.422837","316343.938361","317110.755635","317877.391735","318643.834604","319410.481216","320177.710922","320953.694142"
"Blocked","Male","ball","6","M_greet.wav","None","720.456074458","317","314061.132389","320944.21346","321710.342214","322460.115283","308627.604134","309394.135426","310160.957646","310927.593437","314827.189105","315577.422837","316343.938361","317110.755635","317877.391735","318643.834604","319410.481216","320177.710922","321719.818567"
"Blocked","Male","ball","6","M_romp.wav","None","736.011008732","317","314061.132389","320944.21346","321710.342214","322460.115283","323227.152067","309394.135426","310160.957646","310927.593437","314827.189105","315577.422837","316343.938361","317110.755635","317877.391735","318643.834604","319410.481216","320177.710922","322469.168074"
"Blocked","Male","ball","6","M_jaw.wav","None","733.674305957","317","314061.132389","320944.21346","321710.342214","322460.115283","323227.152067","323993.687687","310160.957646","310927.593437","314827.189105","315577.422837","316343.938361","317110.755635","317877.391735","318643.834604","319410.481216","320177.710922","323236.5502"
"Blocked","Male","ball","6","M_ball.wav","None","732.245324645","317","314061.132389","320944.21346","321710.342214","322460.115283","323227.152067","323993.687687","324760.053573","310927.593437","314827.189105","315577.422837","316343.938361","317110.755635","317877.391735","318643.834604","319410.481216","320177.710922","324003.196503"
"Blocked","Male","ball","6","M_knife.wav","space","416.830011178","317","314061.132389","320944.21346","321710.342214","322460.115283","323227.152067","323993.687687","324760.053573","325527.092521","314827.189105","315577.422837","316343.938361","317110.755635","317877.391735","318643.834604","319410.481216","320177.710922","324769.161705"
"Blocked","Male","ball","1","M_priest.wav","None","727.494008373","317","328660.798115","320944.21346","321710.342214","322460.115283","323227.152067","323993.687687","324760.053573","325527.092521","314827.189105","315577.422837","316343.938361","317110.755635","317877.391735","318643.834604","319410.481216","320177.710922","325536.561454"
"Blocked","Male","ball","1","M_ball.wav","None","721.220650245","317","328660.798115","320944.21346","321710.342214","322460.115283","323227.152067","323993.687687","324760.053573","325527.092521","329426.84772","315577.422837","316343.938361","317110.755635","317877.391735","318643.834604","319410.481216","320177.710922","328670.402774"
"Blocked","Male","ball","1","M_romp.wav","space","606.224447489","317","328660.798115","320944.21346","321710.342214","322460.115283","323227.152067","323993.687687","324760.053573","325527.092521","329426.84772","330193.838438","316343.938361","317110.755635","317877.391735","318643.834604","319410.481216","320177.710922","329435.609892"
"Blocked","Male","ball","1","M_ball.wav","None","719.129428267","317","328660.798115","320944.21346","321710.342214","322460.115283","323227.152067","323993.687687","324760.053573","325527.092521","329426.84772","330193.838438","330943.071079","317110.755635","317877.391735","318643.834604","319410.481216","320177.710922","330204.107811"
"Blocked","Male","ball","1","M_bluff.wav","space","689.794192091","317","328660.798115","320944.21346","321710.342214","322460.115283","323227.152067","323993.687687","324760.053573","325527.092521","329426.84772","330193.838438","330943.071079","331710.315316","317877.391735","318643.834604","319410.481216","320177.710922","330951.926929"
"Blocked","Male","ball","1","M_romp.wav","None","732.990423217","317","328660.798115","320944.21346","321710.342214","322460.115283","323227.152067","323993.687687","324760.053573","325527.092521","329426.84772","330193.838438","330943.071079","331710.315316","332476.90133","318643.834604","319410.481216","320177.710922","331719.363778"
"Blocked","Male","ball","1","M_greet.wav","None","731.015448924","317","328660.798115","320944.21346","321710.342214","322460.115283","323227.152067","323993.687687","324760.053573","325527.092521","329426.84772","330193.838438","330943.071079","331710.315316","332476.90133","333243.395213","319410.481216","320177.710922","332486.339656"
"Blocked","Male","ball","1","M_dime.wav","None","729.298630264","317","328660.798115","320944.21346","321710.342214","322460.115283","323227.152067","323993.687687","324760.053573","325527.092521","329426.84772","330193.838438","330943.071079","331710.315316","332476.90133","333243.395213","334010.167038","320177.710922","333252.993379"
"Blocked","Male","ball","1","M_dime.wav","None","728.353190236","317","328660.798115","320944.21346","321710.342214","322460.115283","323227.152067","323993.687687","324760.053573","325527.092521","329426.84772","330193.838438","330943.071079","331710.315316","332476.90133","333243.395213","334010.167038","334776.879194","334019.426354"
"Blocked","Male","ball","1","M_ball.wav","None","726.406968199","317","328660.798115","335543.386061","321710.342214","322460.115283","323227.152067","323993.687687","324760.053573","325527.092521","329426.84772","330193.838438","330943.071079","331710.315316","332476.90133","333243.395213","334010.167038","334776.879194","334786.279801"
"Blocked","Male","ball","1","M_jolt.wav","space","456.76079439","317","328660.798115","335543.386061","336310.65163","322460.115283","323227.152067","323993.687687","324760.053573","325527.092521","329426.84772","330193.838438","330943.071079","331710.315316","332476.90133","333243.395213","334010.167038","334776.879194","335552.926722"
"Blocked","Male","ball","1","M_ball.wav","None","721.648231614","317","328660.798115","335543.386061","336310.65163","337077.05338","323227.152067","323993.687687","324760.053573","325527.092521","329426.84772","330193.838438","330943.071079","331710.315316","332476.90133","333243.395213","334010.167038","334776.879194","336320.163847"
"Blocked","Male","ball","1","M_reek.wav","space","370.476232376","317","328660.798115","335543.386061","336310.65163","337077.05338","337826.727206","323993.687687","324760.053573","325527.092521","329426.84772","330193.838438","330943.071079","331710.315316","332476.90133","333243.395213","334010.167038","334776.879194","337087.178371"
"Blocked","Male","ball","1","M_bluff.wav","None","734.953958541","317","328660.798115","335543.386061","336310.65163","337077.05338","337826.727206","338593.039297","324760.053573","325527.092521","329426.84772","330193.838438","330943.071079","331710.315316","332476.90133","333243.395213","334010.167038","334776.879194","337836.201705"
"Blocked","Male","ball","1","M_gnash.wav","None","734.144552611","317","328660.798115","335543.386061","336310.65163","337077.05338","337826.727206","338593.039297","339359.98302","325527.092521","329426.84772","330193.838438","330943.071079","331710.315316","332476.90133","333243.395213","334010.167038","334776.879194","338602.156704"
"Blocked","Male","ball","1","M_jaw.wav","None","732.232648879","317","328660.798115","335543.386061","336310.65163","337077.05338","337826.727206","338593.039297","339359.98302","340126.714963","329426.84772","330193.838438","330943.071079","331710.315316","332476.90133","333243.395213","334010.167038","334776.879194","339368.977379"
"Blocked","Male","done","22","M_jolt.wav","None","730.360936839","317","343260.320386","335543.386061","336310.65163","337077.05338","337826.727206","338593.039297","339359.98302","340126.714963","329426.84772","330193.838438","330943.071079","331710.315316","332476.90133","333243.395213","334010.167038","334776.879194","340136.129173"
"Blocked","Male","done","22","M_done.wav","None","720.247384626","317","343260.320386","335543.386061","336310.65163","337077.05338","337826.727206","338593.039297","339359.98302","340126.714963","344026.365973","330193.838438","330943.071079","331710.315316","332476.90133","333243.395213","334010.167038","334776.879194","343270.42188"
"Blocked","Male","done","22","M_jaw.wav","None","720.144740772","317","343260.320386","335543.386061","336310.65163","337077.05338","337826.727206","338593.039297","339359.98302","340126.714963","344026.365973","344776.548382","330943.071079","331710.315316","332476.90133","333243.395213","334010.167038","334776.879194","344035.756995"
"Blocked","Male","done","22","M_done.wav","space","223.299814854","317","343260.320386","335543.386061","336310.65163","337077.05338","337826.727206","338593.039297","339359.98302","340126.714963","344026.365973","344776.548382","345543.16315","331710.315316","332476.90133","333243.395213","334010.167038","334776.879194","344786.110067"
"Blocked","Male","done","22","M_jolt.wav","space","624.537791591","317","343260.320386","335543.386061","336310.65163","337077.05338","337826.727206","338593.039297","339359.98302","340126.714963","344026.365973","344776.548382","345543.16315","346309.912715","332476.90133","333243.395213","334010.167038","334776.879194","345552.855922"
"Blocked","Male","done","22","M_depth.wav","None","729.202169459","317","343260.320386","335543.386061","336310.65163","337077.05338","337826.727206","338593.039297","339359.98302","340126.714963","344026.365973","344776.548382","345543.16315","346309.912715","347076.444316","333243.395213","334010.167038","334776.879194","346319.487385"
"Blocked","Male","done","22","M_knife.wav","None","727.371886373","317","343260.320386","335543.386061","336310.65163","337077.05338","337826.727206","338593.039297","339359.98302","340126.714963","344026.365973","344776.548382","345543.16315","346309.912715","347076.444316","347842.996631","334010.167038","334776.879194","347086.436982"
"Blocked","Male","done","22","M_cling.wav","None","726.396456826","317","343260.320386","335543.386061","336310.65163","337077.05338","337826.727206","338593.039297","339359.98302","340126.714963","344026.365973","344776.548382","345543.16315","346309.912715","347076.444316","347842.996631","348609.759182","334776.879194","347852.432174"
"Blocked","Male","done","22","M_bluff.wav","None","724.894820713","317","343260.320386","335543.386061","336310.65163","337077.05338","337826.727206","338593.039297","339359.98302","340126.714963","344026.365973","344776.548382","345543.16315","346309.912715","347076.444316","347842.996631","348609.759182","349376.5746","348619.04014"
"Blocked","Male","done","22","M_depth.wav","None","722.718576901","317","343260.320386","350143.322928","336310.65163","337077.05338","337826.727206","338593.039297","339359.98302","340126.714963","344026.365973","344776.548382","345543.16315","346309.912715","347076.444316","347842.996631","348609.759182","349376.5746","349386.587053"
"Blocked","Male","done","22","M_done.wav","None","720.999594312","317","343260.320386","350143.322928","350910.022099","337077.05338","337826.727206","338593.039297","339359.98302","340126.714963","344026.365973","344776.548382","345543.16315","346309.912715","347076.444316","347842.996631","348609.759182","349376.5746","350153.314049"
"Blocked","Male","done","22","M_cling.wav","space","544.8842966","317","343260.320386","350143.322928","350910.022099","351659.055635","337826.727206","338593.039297","339359.98302","340126.714963","344026.365973","344776.548382","345543.16315","346309.912715","347076.444316","347842.996631","348609.759182","349376.5746","350920.346814"
"Blocked","Male","done","22","M_cad.wav","None","735.680506565","317","343260.320386","350143.322928","350910.022099","351659.055635","352426.330789","338593.039297","339359.98302","340126.714963","344026.365973","344776.548382","345543.16315","346309.912715","347076.444316","347842.996631","348609.759182","349376.5746","351668.253427"
"Blocked","Male","done","22","M_done.wav","None","733.101724181","317","343260.320386","350143.322928","350910.022099","351659.055635","352426.330789","353192.824362","339359.98302","340126.714963","344026.365973","344776.548382","345543.16315","346309.912715","347076.444316","347842.996631","348609.759182","349376.5746","352435.916897"
"Blocked","Male","done","22","M_bluff.wav","space","542.791528162","317","343260.320386","350143.322928","350910.022099","351659.055635","352426.330789","353192.824362","353959.189939","340126.714963","344026.365973","344776.548382","345543.16315","346309.912715","347076.444316","347842.996631","348609.759182","349376.5746","353202.394085"
"Blocked","Male","done","22","M_jolt.wav","None","729.457234498","317","343260.320386","350143.322928","350910.022099","351659.055635","352426.330789","353192.824362","353959.189939","354726.231669","344026.365973","344776.548382","345543.16315","346309.912715","347076.444316","347842.996631","348609.759182","349376.5746","353968.376909"
"Blocked","Male","done","20","M_lash.wav","None","727.320873179","317","357859.849459","350143.322928","350910.022099","351659.055635","352426.330789","353192.824362","353959.189939","354726.231669","344026.365973","344776.548382","345543.16315","346309.912715","347076.444316","347842.996631","348609.759182","349376.5746","354735.599504"
"Blocked","Male","done","20","M_done.wav","None","721.185714472","317","357859.849459","350143.322928","350910.022099","351659.055635","352426.330789","353192.824362","353959.189939","354726.231669","358626.441039","344776.548382","345543.16315","346309.912715","347076.444316","347842.996631","348609.759182","349376.5746","357869.728351"
"Blocked","Male","done","20","M_greet.wav","space","580.491653644","317","357859.849459","350143.322928","350910.022099","351659.055635","352426.330789","353192.824362","353959.189939","354726.231669","358626.441039","359376.036027","345543.16315","346309.912715","347076.444316","347842.996631","348609.759182","349376.5746","358636.466477"
"Blocked","Male","done","20","M_done.wav","None","734.766910784","317","357859.849459","350143.322928","350910.022099","351659.055635","352426.330789","353192.824362","353959.189939","354726.231669","358626.441039","359376.036027","360142.360484","346309.912715","347076.444316","347842.996631","348609.759182","349376.5746","359385.214959"
"Blocked","Male","done","20","M_depth.wav","space","345.478643663","317","357859.849459","350143.322928","350910.022099","351659.055635","352426.330789","353192.824362","353959.189939","354726.231669","358626.441039","359376.036027","360142.360484","360908.959793","347076.444316","347842.996631","348609.759182","349376.5746","360151.487476"
"Blocked","Male","done","20","M_dime.wav","None","731.059350539","317","357859.849459","350143.322928","350910.022099","351659.055635","352426.330789","353192.824362","353959.189939","354726.231669","358626.441039","359376.036027","360142.360484","360908.959793","361675.527876","347842.996631","348609.759182","349376.5746","360917.907776"
"Blocked","Male","done","20","M_done.wav","None","732.296337839","317","357859.849459","350143.322928","350910.022099","351659.055635","352426.330789","353192.824362","353959.189939","354726.231669","358626.441039","359376.036027","360142.360484","360908.959793","361675.527876","362442.590939","348609.759182","349376.5746","361684.313545"
"Blocked","Male","done","20","M_knife.wav","space","564.924970735","317","357859.849459","350143.322928","350910.022099","351659.055635","352426.330789","353192.824362","353959.189939","354726.231669","358626.441039","359376.036027","360142.360484","360908.959793","361675.527876","362442.590939","363209.314225","349376.5746","362451.977324"
"Blocked","Male","done","20","M_romp.wav","None","727.298922371","317","357859.849459","350143.322928","350910.022099","351659.055635","352426.330789","353192.824362","353959.189939","354726.231669","358626.441039","359376.036027","360142.360484","360908.959793","361675.527876","362442.590939","363209.314225","363975.975059","363218.306419"
"Blocked","Male","done","20","M_knife.wav","None","725.184203126","317","357859.849459","364742.848292","350910.022099","351659.055635","352426.330789","353192.824362","353959.189939","354726.231669","358626.441039","359376.036027","360142.360484","360908.959793","361675.527876","362442.590939","363209.314225","363975.975059","363985.48944"
"Blocked","Male","done","20","M_done.wav","None","723.963292781","317","357859.849459","364742.848292","365509.691226","351659.055635","352426.330789","353192.824362","353959.189939","354726.231669","358626.441039","359376.036027","360142.360484","360908.959793","361675.527876","362442.590939","363209.314225","363975.975059","364752.381223"
"Blocked","Male","done","20","M_gnash.wav","space","369.433094747","317","357859.849459","364742.848292","365509.691226","366276.378958","352426.330789","353192.824362","353959.189939","354726.231669","358626.441039","359376.036027","360142.360484","360908.959793","361675.527876","362442.590939","363209.314225","363975.975059","365519.377505"
"Blocked","Male","done","20","M_park.wav","None","720.314165577","317","357859.849459","364742.848292","365509.691226","366276.378958","367042.676826","353192.824362","353959.189939","354726.231669","358626.441039","359376.036027","360142.360484","360908.959793","361675.527876","362442.590939","363209.314225","363975.975059","366285.679703"
"Blocked","Male","done","20","M_jaw.wav","None","719.238874037","317","357859.849459","364742.848292","365509.691226","366276.378958","367042.676826","367791.911323","353959.189939","354726.231669","358626.441039","359376.036027","360142.360484","360908.959793","361675.527876","362442.590939","363209.314225","363975.975059","367052.278703"
"Blocked","Male","done","20","M_lash.wav","None","735.813140403","317","357859.849459","364742.848292","365509.691226","366276.378958","367042.676826","367791.911323","368558.892456","354726.231669","358626.441039","359376.036027","360142.360484","360908.959793","361675.527876","362442.590939","363209.314225","363975.975059","367801.081907"
"Blocked","Male","done","20","M_jaw.wav","None","733.912057243","317","357859.849459","364742.848292","365509.691226","366276.378958","367042.676826","367791.911323","368558.892456","369325.82845","358626.441039","359376.036027","360142.360484","360908.959793","361675.527876","362442.590939","363209.314225","363975.975059","368568.57348"
"Blocked","Male","tile","14","M_romp.wav","None","732.284280006","317","372459.4314","364742.848292","365509.691226","366276.378958","367042.676826","367791.911323","368558.892456","369325.82845","358626.441039","359376.036027","360142.360484","360908.959793","361675.527876","362442.590939","363209.314225","363975.975059","369335.385188"
"Blocked","Male","tile","14","M_park.wav","None","720.676512457","317","372459.4314","364742.848292","365509.691226","366276.378958","367042.676826","367791.911323","368558.892456","369325.82845","373226.042457","359376.036027","360142.360484","360908.959793","361675.527876","362442.590939","363209.314225","363975.975059","372469.75395"
"Blocked","Male","tile","14","M_tile.wav","None","720.576341264","317","372459.4314","364742.848292","365509.691226","366276.378958","367042.676826","367791.911323","368558.892456","369325.82845","373226.042457","373992.707929","360142.360484","360908.959793","361675.527876","362442.590939","363209.314225","363975.975059","373235.70895"
"Blocked","Male","tile","14","M_depth.wav","space","317.796227522","317","372459.4314","364742.848292","365509.691226","366276.378958","367042.676826","367791.911323","368558.892456","369325.82845","373226.042457","373992.707929","374742.07104","360908.959793","361675.527876","362442.590939","363209.314225","363975.975059","374002.754391"
"Blocked","Male","tile","14","M_reek.wav","None","734.351696447","317","372459.4314","364742.848292","365509.691226","366276.378958","367042.676826","367791.911323","368558.892456","369325.82845","373226.042457","373992.707929","374742.07104","375509.009198","361675.527876","362442.590939","363209.314225","363975.975059","374751.076528"
"Blocked","Male","tile","14","M_priest.wav","None","732.429899275","317","372459.4314","364742.848292","365509.691226","366276.378958","367042.676826","367791.911323","368558.892456","369325.82845","373226.042457","373992.707929","374742.07104","375509.009198","376275.540799","362442.590939","363209.314225","363975.975059","375518.211009"
"Blocked","Male","tile","14","M_tile.wav","None","731.256291736","317","372459.4314","364742.848292","365509.691226","366276.378958","367042.676826","367791.911323","368558.892456","369325.82845","373226.042457","373992.707929","374742.07104","375509.009198","376275.540799","377042.310151","363209.314225","363975.975059","376285.047451"
"Blocked","Male","tile","14","M_bluff.wav","space","268.784828018","317","372459.4314","364742.848292","365509.691226","366276.378958","367042.676826","367791.911323","368558.892456","369325.82845","373226.042457","373992.707929","374742.07104","375509.009198","376275.540799","377042.310151","377808.93203","363975.975059","377051.682624"
"Blocked","Male","tile","14","M_romp.wav","None","727.77566174","317","372459.4314","364742.848292","365509.691226","366276.378958","367042.676826","367791.911323","368558.892456","369325.82845","373226.042457","373992.707929","374742.07104","375509.009198","376275.540799","377042.310151","377808.93203","378575.330378","377817.984202"
"Blocked","Male","tile","14","M_depth.wav","None","726.566190831","317","372459.4314","379342.065103","365509.691226","366276.378958","367042.676826","367791.911323","368558.892456","369325.82845","373226.042457","373992.707929","374742.07104","375509.009198","376275.540799","377042.310151","377808.93203","378575.330378","378584.528788"
"Blocked","Male","tile","14","M_depth.wav","None","724.705917761","317","372459.4314","379342.065103","380109.102506","366276.378958","367042.676826","367791.911323","368558.892456","369325.82845","373226.042457","373992.707929","374742.07104","375509.009198","376275.540799","377042.310151","377808.93203","378575.330378","379351.903494"
"Blocked","Male","tile","14","M_tile.wav","None","723.328258842","317","372459.4314","379342.065103","380109.102506","380875.700887","367042.676826","367791.911323","368558.892456","369325.82845","373226.042457","373992.707929","374742.07104","375509.009198","376275.540799","377042.310151","377808.93203","378575.330378","380118.827431"
"Blocked","Male","tile","14","M_depth.wav","space","392.583395354","317","372459.4314","379342.065103","380109.102506","380875.700887","381642.240526","367791.911323","368558.892456","369325.82845","373226.042457","373992.707929","374742.07104","375509.009198","376275.540799","377042.310151","377808.93203","378575.330378","380879.77605"
"Blocked","Male","tile","14","M_tile.wav","None","720.476479735","317","372459.4314","379342.065103","380109.102506","380875.700887","381642.240526","382409.344709","368558.892456","369325.82845","373226.042457","373992.707929","374742.07104","375509.009198","376275.540799","377042.310151","377808.93203","378575.330378","381651.533233"
"Blocked","Male","tile","14","M_romp.wav","space","421.301529277","317","372459.4314","379342.065103","380109.102506","380875.700887","381642.240526","382409.344709","383158.553235","369325.82845","373226.042457","373992.707929","374742.07104","375509.009198","376275.540799","377042.310151","377808.93203","378575.330378","382418.994197"
"Blocked","Male","tile","14","M_park.wav","None","734.344585333","317","372459.4314","379342.065103","380109.102506","380875.700887","381642.240526","382409.344709","383158.553235","383925.400189","373226.042457","373992.707929","374742.07104","375509.009198","376275.540799","377042.310151","377808.93203","378575.330378","383167.849652"
"Blocked","Male","cave","11","M_reek.wav","None","732.955486979","317","387059.05106","379342.065103","380109.102506","380875.700887","381642.240526","382409.344709","383158.553235","383925.400189","373226.042457","373992.707929","374742.07104","375509.009198","376275.540799","377042.310151","377808.93203","378575.330378","383934.801414"
"Blocked","Male","cave","11","M_greet.wav","None","721.300725359","317","387059.05106","379342.065103","380109.102506","380875.700887","381642.240526","382409.344709","383158.553235","383925.400189","387825.695507","373992.707929","374742.07104","375509.009198","376275.540799","377042.310151","377808.93203","378575.330378","387068.598832"
"Blocked","Male","cave","11","M_cave.wav","None","720.090945251","317","387059.05106","379342.065103","380109.102506","380875.700887","381642.240526","382409.344709","383158.553235","383925.400189","387825.695507","388592.189699","374742.07104","375509.009198","376275.540799","377042.310151","377808.93203","378575.330378","387835.341904"
"Blocked","Male","cave","11","M_lash.wav","space","293.97039162","317","387059.05106","379342.065103","380109.102506","380875.700887","381642.240526","382409.344709","383158.553235","383925.400189","387825.695507","388592.189699","389341.75346","375509.009198","376275.540799","377042.310151","377808.93203","378575.330378","388602.140627"
"Blocked","Male","cave","11","M_depth.wav","None","733.216735534","317","387059.05106","379342.065103","380109.102506","380875.700887","381642.240526","382409.344709","383158.553235","383925.400189","387825.695507","388592.189699","389341.75346","390108.092449","376275.540799","377042.310151","377808.93203","378575.330378","389351.288556"
"Blocked","Male","cave","11","M_romp.wav","None","733.01732121","317","387059.05106","379342.065103","380109.102506","380875.700887","381642.240526","382409.344709","383158.553235","383925.400189","387825.695507","388592.189699","389341.75346","390108.092449","390874.805223","377042.310151","377808.93203","378575.330378","390117.186978"
"Blocked","Male","cave","11","M_bluff.wav","None","731.541346293","317","387059.05106","379342.065103","380109.102506","380875.700887","381642.240526","382409.344709","383158.553235","383925.400189","387825.695507","388592.189699","389341.75346","390108.092449","390874.805223","391641.545822","377808.93203","378575.330378","390883.938089"
"Blocked","Male","cave","11","M_depth.wav","None","730.341768358","317","387059.05106","379342.065103","380109.102506","380875.700887","381642.240526","382409.344709","383158.553235","383925.400189","387825.695507","388592.189699","389341.75346","390108.092449","390874.805223","391641.545822","392408.265398","378575.330378","391650.212152"
"Blocked","Male","cave","11","M_cad.wav","None","729.279461782","317","387059.05106","379342.065103","380109.102506","380875.700887","381642.240526","382409.344709","383158.553235","383925.400189","387825.695507","388592.189699","389341.75346","390108.092449","390874.805223","391641.545822","392408.265398","393175.095966","392417.509875"
"Blocked","Male","cave","11","M_cave.wav","space","383.471861947","317","387059.05106","393941.294282","380109.102506","380875.700887","381642.240526","382409.344709","383158.553235","383925.400189","387825.695507","388592.189699","389341.75346","390108.092449","390874.805223","391641.545822","392408.265398","393175.095966","393184.446797"
"Blocked","Male","cave","11","M_lash.wav","space","561.447123531","317","387059.05106","393941.294282","394708.410213","380875.700887","381642.240526","382409.344709","383158.553235","383925.400189","387825.695507","388592.189699","389341.75346","390108.092449","390874.805223","391641.545822","392408.265398","393175.095966","393950.47847"
"Blocked","Male","cave","11","M_cave.wav","None","721.972550731","317","387059.05106","393941.294282","394708.410213","395475.283137","381642.240526","382409.344709","383158.553235","383925.400189","387825.695507","388592.189699","389341.75346","390108.092449","390874.805223","391641.545822","392408.265398","393175.095966","394717.633357"
"Blocked","Male","cave","11","M_knife.wav","None","721.077195834","317","387059.05106","393941.294282","394708.410213","395475.283137","396241.427658","382409.344709","383158.553235","383925.400189","387825.695507","388592.189699","389341.75346","390108.092449","390874.805223","391641.545822","392408.265398","393175.095966","395484.969107"
"Blocked","Male","cave","11","M_jaw.wav","space","0.0278255902231","317","387059.05106","393941.294282","394708.410213","395475.283137","396241.427658","396991.495675","383158.553235","383925.400189","387825.695507","388592.189699","389341.75346","390108.092449","390874.805223","391641.545822","392408.265398","393175.095966","396250.700268"
"Blocked","Male","cave","11","M_cave.wav","None","734.267602209","317","387059.05106","393941.294282","394708.410213","395475.283137","396241.427658","396991.495675","397758.339537","383925.400189","387825.695507","388592.189699","389341.75346","390108.092449","390874.805223","391641.545822","392408.265398","393175.095966","397001.054268"
"Blocked","Male","cave","11","M_dime.wav","None","733.409038745","317","387059.05106","393941.294282","394708.410213","395475.283137","396241.427658","396991.495675","397758.339537","398524.832801","387825.695507","388592.189699","389341.75346","390108.092449","390874.805223","391641.545822","392408.265398","393175.095966","397767.333277"
"Blocked","Male","done","23","M_dime.wav","space","17.5985442474","317","401658.573949","393941.294282","394708.410213","395475.283137","396241.427658","396991.495675","397758.339537","398524.832801","387825.695507","388592.189699","389341.75346","390108.092449","390874.805223","391641.545822","392408.265398","393175.095966","398534.204965"
"Blocked","Male","done","23","M_romp.wav","None","721.139957197","317","401658.573949","393941.294282","394708.410213","395475.283137","396241.427658","396991.495675","397758.339537","398524.832801","402425.085763","388592.189699","389341.75346","390108.092449","390874.805223","391641.545822","392408.265398","393175.095966","401668.50571"
"Blocked","Male","done","23","M_done.wav","None","720.5138891","317","401658.573949","393941.294282","394708.410213","395475.283137","396241.427658","396991.495675","397758.339537","398524.832801","402425.085763","403191.650755","389341.75346","390108.092449","390874.805223","391641.545822","392408.265398","393175.095966","402435.127588"
"Blocked","Male","done","23","M_priest.wav","None","719.710975885","317","401658.573949","393941.294282","394708.410213","395475.283137","396241.427658","396991.495675","397758.339537","398524.832801","402425.085763","403191.650755","403958.336012","390108.092449","390874.805223","391641.545822","392408.265398","393175.095966","403201.273655"
"Blocked","Male","done","23","M_reek.wav","space","15.5008300208","317","401658.573949","393941.294282","394708.410213","395475.283137","396241.427658","396991.495675","397758.339537","398524.832801","402425.085763","403191.650755","403958.336012","404708.03921","390874.805223","391641.545822","392408.265398","393175.095966","403968.145342"
"Blocked","Male","done","23","M_depth.wav","None","733.340403065","317","401658.573949","393941.294282","394708.410213","395475.283137","396241.427658","396991.495675","397758.339537","398524.832801","402425.085763","403191.650755","403958.336012","404708.03921","405474.707773","391641.545822","392408.265398","393175.095966","404717.143942"
"Blocked","Male","done","23","M_jolt.wav","None","732.460815459","317","401658.573949","393941.294282","394708.410213","395475.283137","396241.427658","396991.495675","397758.339537","398524.832801","402425.085763","403191.650755","403958.336012","404708.03921","405474.707773","406241.284512","392408.265398","393175.095966","405484.209788"
"Blocked","Male","done","23","M_done.wav","None","731.302666944","317","401658.573949","393941.294282","394708.410213","395475.283137","396241.427658","396991.495675","397758.339537","398524.832801","402425.085763","403191.650755","403958.336012","404708.03921","405474.707773","406241.284512","407008.039333","393175.095966","406250.772924"
"Blocked","Male","done","23","M_lash.wav","space","414.150130004","317","401658.573949","393941.294282","394708.410213","395475.283137","396241.427658","396991.495675","397758.339537","398524.832801","402425.085763","403191.650755","403958.336012","404708.03921","405474.707773","406241.284512","407008.039333","407774.621638","407017.392638"
"Blocked","Male","done","23","M_depth.wav","None","727.68754838","317","401658.573949","408540.976394","394708.410213","395475.283137","396241.427658","396991.495675","397758.339537","398524.832801","402425.085763","403191.650755","403958.336012","404708.03921","405474.707773","406241.284512","407008.039333","407774.621638","407784.000294"
"Blocked","Male","done","23","M_done.wav","None","726.915243082","317","401658.573949","408540.976394","409308.022762","395475.283137","396241.427658","396991.495675","397758.339537","398524.832801","402425.085763","403191.650755","403958.336012","404708.03921","405474.707773","406241.284512","407008.039333","407774.621638","408550.47779"
"Blocked","Male","done","23","M_jolt.wav","space","578.353746329","317","401658.573949","408540.976394","409308.022762","410074.887029","396241.427658","396991.495675","397758.339537","398524.832801","402425.085763","403191.650755","403958.336012","404708.03921","405474.707773","406241.284512","407008.039333","407774.621638","409317.092867"
"Blocked","Male","done","23","M_priest.wav","None","722.869760357","317","401658.573949","408540.976394","409308.022762","410074.887029","410841.460677","396991.495675","397758.339537","398524.832801","402425.085763","403191.650755","403958.336012","404708.03921","405474.707773","406241.284512","407008.039333","407774.621638","410084.583821"
"Blocked","Male","done","23","M_park.wav","None","722.044896334","317","401658.573949","408540.976394","409308.022762","410074.887029","410841.460677","411608.238068","397758.339537","398524.832801","402425.085763","403191.650755","403958.336012","404708.03921","405474.707773","406241.284512","407008.039333","407774.621638","410850.984334"
"Blocked","Male","done","23","M_done.wav","None","720.090945251","317","401658.573949","408540.976394","409308.022762","410074.887029","410841.460677","411608.238068","412374.980832","398524.832801","402425.085763","403191.650755","403958.336012","404708.03921","405474.707773","406241.284512","407008.039333","407774.621638","411618.506204"
"Blocked","Male","done","23","M_romp.wav","space","548.034115229","317","401658.573949","408540.976394","409308.022762","410074.887029","410841.460677","411608.238068","412374.980832","413124.471011","402425.085763","403191.650755","403958.336012","404708.03921","405474.707773","406241.284512","407008.039333","407774.621638","412379.3664"
"Blocked","Male","tile","16","M_jolt.wav","None","734.069424681","317","416258.082308","408540.976394","409308.022762","410074.887029","410841.460677","411608.238068","412374.980832","413124.471011","402425.085763","403191.650755","403958.336012","404708.03921","405474.707773","406241.284512","407008.039333","407774.621638","413134.070414"
"Blocked","Male","tile","16","M_tile.wav","None","720.863868948","317","416258.082308","408540.976394","409308.022762","410074.887029","410841.460677","411608.238068","412374.980832","413124.471011","417024.497352","403191.650755","403958.336012","404708.03921","405474.707773","406241.284512","407008.039333","407774.621638","416267.785592"
"Blocked","Male","tile","16","M_depth.wav","space","389.799633529","317","416258.082308","408540.976394","409308.022762","410074.887029","410841.460677","411608.238068","412374.980832","413124.471011","417024.497352","417774.291754","403958.336012","404708.03921","405474.707773","406241.284512","407008.039333","407774.621638","417033.480271"
"Blocked","Male","tile","16","M_romp.wav","None","734.295427799","317","416258.082308","408540.976394","409308.022762","410074.887029","410841.460677","411608.238068","412374.980832","413124.471011","417024.497352","417774.291754","418540.797076","404708.03921","405474.707773","406241.284512","407008.039333","407774.621638","417783.661753"
"Blocked","Male","tile","16","M_tile.wav","None","733.746342361","317","416258.082308","408540.976394","409308.022762","410074.887029","410841.460677","411608.238068","412374.980832","413124.471011","417024.497352","417774.291754","418540.797076","419307.681748","405474.707773","406241.284512","407008.039333","407774.621638","418550.20232"
"Blocked","Male","tile","16","M_gnash.wav","space","465.893969405","317","416258.082308","408540.976394","409308.022762","410074.887029","410841.460677","411608.238068","412374.980832","413124.471011","417024.497352","417774.291754","418540.797076","419307.681748","420074.296825","406241.284512","407008.039333","407774.621638","419317.306503"
"Blocked","Male","tile","16","M_romp.wav","None","729.442085139","317","416258.082308","408540.976394","409308.022762","410074.887029","410841.460677","411608.238068","412374.980832","413124.471011","417024.497352","417774.291754","418540.797076","419307.681748","420074.296825","420840.602423","407008.039333","407774.621638","420084.325046"
