"Condition","Talker","Target","Trial","current_stimulus","response_response","response_time_response","subject_nr","time_Audio1","time_Audio10","time_Audio11","time_Audio12","time_Audio13","time_Audio14","time_Audio15","time_Audio16","time_Audio2","time_Audio3","time_Audio4","time_Audio5","time_Audio6","time_Audio7","time_Audio8","time_Audio9","time_response"
"Blocked","Female","cave","12","F_cling.wav","NA","NA","138","52592.3415011","NA","NA","NA","NA","NA","NA","NA","NA","NA","NA","NA","NA","NA","NA","NA","NA"
"Blocked","Female","cave","12","F_cling.wav","None","716.772011016","138","52592.3415011","NA","NA","NA","NA","NA","NA","NA","53358.7512893","NA","NA","NA","NA","NA","NA","NA","52607.1658682"
"Blocked","Female","cave","12","F_park.wav","None","721.885364852","138","52592.3415011","NA","NA","NA","NA","NA","NA","NA","53358.7512893","54108.8180699","NA","NA","NA","NA","NA","NA","53367.9691771"
"Blocked","Female","cave","12","F_reek.wav","None","737.219552393","138","52592.3415011","NA","NA","NA","NA","NA","NA","NA","53358.7512893","54108.8180699","54874.7690504","NA","NA","NA","NA","NA","54117.8918846"
"Blocked","Female","cave","12","F_dime.wav","None","736.23948521","138","52592.3415011","NA","NA","NA","NA","NA","NA","NA","53358.7512893","54108.8180699","54874.7690504","55641.548296","NA","NA","NA","NA","54884.0750515"
"Blocked","Female","cave","12","F_cave.wav","None","734.428679571","138","52592.3415011","NA","NA","NA","NA","NA","NA","NA","53358.7512893","54108.8180699","54874.7690504","55641.548296","56408.532521","NA","NA","NA","55651.1347138"
"Blocked","Female","cave","12","F_depth.wav","space","502.875894425","138","52592.3415011","NA","NA","NA","NA","NA","NA","NA","53358.7512893","54108.8180699","54874.7690504","55641.548296","56408.532521","57174.9741534","NA","NA","56418.0521582"
"Blocked","Female","cave","12","F_reek.wav","None","732.459888328","138","52592.3415011","NA","NA","NA","NA","NA","NA","NA","53358.7512893","54108.8180699","54874.7690504","55641.548296","56408.532521","57174.9741534","57941.9979521","NA","57184.0315823"
"Blocked","Female","cave","12","F_cave.wav","space","377.111627487","138","52592.3415011","NA","NA","NA","NA","NA","NA","NA","53358.7512893","54108.8180699","54874.7690504","55641.548296","56408.532521","57174.9741534","57941.9979521","58708.597261","57951.7639973"
"Blocked","Female","cave","12","F_depth.wav","space","554.936014232","138","52592.3415011","59475.3557922","NA","NA","NA","NA","NA","NA","53358.7512893","54108.8180699","54874.7690504","55641.548296","56408.532521","57174.9741534","57941.9979521","58708.597261","58717.8636885"
"Blocked","Female","cave","12","F_cave.wav","None","729.603471584","138","52592.3415011","59475.3557922","60242.2788016","NA","NA","NA","NA","NA","53358.7512893","54108.8180699","54874.7690504","55641.548296","56408.532521","57174.9741534","57941.9979521","58708.597261","59484.7390858"
"Blocked","Female","cave","12","F_tile.wav","space","564.815524849","138","52592.3415011","59475.3557922","60242.2788016","61008.9127376","NA","NA","NA","NA","53358.7512893","54108.8180699","54874.7690504","55641.548296","56408.532521","57174.9741534","57941.9979521","58708.597261","60251.9681728"
"Blocked","Female","cave","12","F_cave.wav","None","726.194878109","138","52592.3415011","59475.3557922","60242.2788016","61008.9127376","61775.5262683","NA","NA","NA","53358.7512893","54108.8180699","54874.7690504","55641.548296","56408.532521","57174.9741534","57941.9979521","58708.597261","61018.6738361"
"Blocked","Female","cave","12","F_ball.wav","space","359.512155293","138","52592.3415011","59475.3557922","60242.2788016","61008.9127376","61775.5262683","62542.0145855","NA","NA","53358.7512893","54108.8180699","54874.7690504","55641.548296","56408.532521","57174.9741534","57941.9979521","58708.597261","61785.2490299"
"Blocked","Female","cave","12","F_lash.wav","None","724.314200226","138","52592.3415011","59475.3557922","60242.2788016","61008.9127376","61775.5262683","62542.0145855","63309.2096639","NA","53358.7512893","54108.8180699","54874.7690504","55641.548296","56408.532521","57174.9741534","57941.9979521","58708.597261","62551.2167056"
"Blocked","Female","cave","12","F_tile.wav","None","721.515598241","138","52592.3415011","59475.3557922","60242.2788016","61008.9127376","61775.5262683","62542.0145855","63309.2096639","64075.3770631","53358.7512893","54108.8180699","54874.7690504","55641.548296","56408.532521","57174.9741534","57941.9979521","58708.597261","63319.4048364"
"Blocked","Female","cave","7","F_depth.wav","None","721.882582409","138","67208.9871237","59475.3557922","60242.2788016","61008.9127376","61775.5262683","62542.0145855","63309.2096639","64075.3770631","53358.7512893","54108.8180699","54874.7690504","55641.548296","56408.532521","57174.9741534","57941.9979521","58708.597261","64084.5467205"
"Blocked","Female","cave","7","F_jaw.wav","None","721.094818553","138","67208.9871237","59475.3557922","60242.2788016","61008.9127376","61775.5262683","62542.0145855","63309.2096639","64075.3770631","67975.7076271","54108.8180699","54874.7690504","55641.548296","56408.532521","57174.9741534","57941.9979521","58708.597261","67218.9219756"
"Blocked","Female","cave","7","F_romp.wav","None","719.761679764","138","67208.9871237","59475.3557922","60242.2788016","61008.9127376","61775.5262683","62542.0145855","63309.2096639","64075.3770631","67975.7076271","68742.4238021","54874.7690504","55641.548296","56408.532521","57174.9741534","57941.9979521","58708.597261","67985.7717118"
"Blocked","Female","cave","7","F_cave.wav","None","718.535513617","138","67208.9871237","59475.3557922","60242.2788016","61008.9127376","61775.5262683","62542.0145855","63309.2096639","64075.3770631","67975.7076271","68742.4238021","69492.1977993","55641.548296","56408.532521","57174.9741534","57941.9979521","58708.597261","68753.0916948"
"Blocked","Female","cave","7","F_jaw.wav","space","442.746760556","138","67208.9871237","59475.3557922","60242.2788016","61008.9127376","61775.5262683","62542.0145855","63309.2096639","64075.3770631","67975.7076271","68742.4238021","69492.1977993","70258.5170006","56408.532521","57174.9741534","57941.9979521","58708.597261","69501.7291849"
"Blocked","Female","cave","7","F_park.wav","None","734.731974895","138","67208.9871237","59475.3557922","60242.2788016","61008.9127376","61775.5262683","62542.0145855","63309.2096639","64075.3770631","67975.7076271","68742.4238021","69492.1977993","70258.5170006","71025.1357872","57174.9741534","57941.9979521","58708.597261","70267.8471169"
"Blocked","Female","cave","7","F_cave.wav","None","732.880358933","138","67208.9871237","59475.3557922","60242.2788016","61008.9127376","61775.5262683","62542.0145855","63309.2096639","64075.3770631","67975.7076271","68742.4238021","69492.1977993","70258.5170006","71025.1357872","71791.9811951","57941.9979521","58708.597261","71034.9713956"
"Blocked","Female","cave","7","F_jolt.wav","space","447.387085063","138","67208.9871237","59475.3557922","60242.2788016","61008.9127376","61775.5262683","62542.0145855","63309.2096639","64075.3770631","67975.7076271","68742.4238021","69492.1977993","70258.5170006","71025.1357872","71791.9811951","72558.6108026","58708.597261","71801.0565558"
"Blocked","Female","cave","7","F_cave.wav","None","729.904602631","138","67208.9871237","59475.3557922","60242.2788016","61008.9127376","61775.5262683","62542.0145855","63309.2096639","64075.3770631","67975.7076271","68742.4238021","69492.1977993","70258.5170006","71025.1357872","71791.9811951","72558.6108026","73325.1025206","72568.8078302"
"Blocked","Female","cave","7","F_knife.wav","space","361.6840709","138","67208.9871237","74091.8625977","60242.2788016","61008.9127376","61775.5262683","62542.0145855","63309.2096639","64075.3770631","67975.7076271","68742.4238021","69492.1977993","70258.5170006","71025.1357872","71791.9811951","72558.6108026","73325.1025206","73334.7384055"
"Blocked","Female","cave","7","F_priest.wav","None","727.259039413","138","67208.9871237","74091.8625977","74858.5472374","61008.9127376","61775.5262683","62542.0145855","63309.2096639","64075.3770631","67975.7076271","68742.4238021","69492.1977993","70258.5170006","71025.1357872","71791.9811951","72558.6108026","73325.1025206","74102.1087832"
"Blocked","Female","cave","7","F_jaw.wav","None","726.598653593","138","67208.9871237","74091.8625977","74858.5472374","75624.7236026","61775.5262683","62542.0145855","63309.2096639","64075.3770631","67975.7076271","68742.4238021","69492.1977993","70258.5170006","71025.1357872","71791.9811951","72558.6108026","73325.1025206","74868.2650522"
"Blocked","Female","cave","7","F_cave.wav","None","726.615966996","138","67208.9871237","74091.8625977","74858.5472374","75624.7236026","76391.331259","62542.0145855","63309.2096639","64075.3770631","67975.7076271","68742.4238021","69492.1977993","70258.5170006","71025.1357872","71791.9811951","72558.6108026","73325.1025206","75633.7782488"
"Blocked","Female","cave","7","F_knife.wav","space","415.91919784","138","67208.9871237","74091.8625977","74858.5472374","75624.7236026","76391.331259","77158.7594514","63309.2096639","64075.3770631","67975.7076271","68742.4238021","69492.1977993","70258.5170006","71025.1357872","71791.9811951","72558.6108026","73325.1025206","76400.3750845"
"Blocked","Female","cave","7","F_ball.wav","None","722.685804707","138","67208.9871237","74091.8625977","74858.5472374","75624.7236026","76391.331259","77158.7594514","77925.351031","64075.3770631","67975.7076271","68742.4238021","69492.1977993","70258.5170006","71025.1357872","71791.9811951","72558.6108026","73325.1025206","77168.7450069"
"Blocked","Female","cave","7","F_jolt.wav","None","721.054317313","138","67208.9871237","74091.8625977","74858.5472374","75624.7236026","76391.331259","77158.7594514","77925.351031","78691.7292838","67975.7076271","68742.4238021","69492.1977993","70258.5170006","71025.1357872","71791.9811951","72558.6108026","73325.1025206","77935.8433154"
"Blocked","Female","tile","15","F_park.wav","None","721.279083518","138","81825.4197285","74091.8625977","74858.5472374","75624.7236026","76391.331259","77158.7594514","77925.351031","78691.7292838","67975.7076271","68742.4238021","69492.1977993","70258.5170006","71025.1357872","71791.9811951","72558.6108026","73325.1025206","78701.1014472"
"Blocked","Female","tile","15","F_lash.wav","None","721.554244403","138","81825.4197285","74091.8625977","74858.5472374","75624.7236026","76391.331259","77158.7594514","77925.351031","78691.7292838","82591.2742482","68742.4238021","69492.1977993","70258.5170006","71025.1357872","71791.9811951","72558.6108026","73325.1025206","81835.3585996"
"Blocked","Female","tile","15","F_jaw.wav","None","721.363486839","138","81825.4197285","74091.8625977","74858.5472374","75624.7236026","76391.331259","77158.7594514","77925.351031","78691.7292838","82591.2742482","83358.0918307","69492.1977993","70258.5170006","71025.1357872","71791.9811951","72558.6108026","73325.1025206","82601.2616588"
"Blocked","Female","tile","15","F_jolt.wav","None","726.737470599","138","81825.4197285","74091.8625977","74858.5472374","75624.7236026","76391.331259","77158.7594514","77925.351031","78691.7292838","82591.2742482","83358.0918307","84124.6184849","70258.5170006","71025.1357872","71791.9811951","72558.6108026","73325.1025206","83361.943464"
"Blocked","Female","tile","15","F_tile.wav","None","720.55933706","138","81825.4197285","74091.8625977","74858.5472374","75624.7236026","76391.331259","77158.7594514","77925.351031","78691.7292838","82591.2742482","83358.0918307","84124.6184849","84874.3003495","71025.1357872","71791.9811951","72558.6108026","73325.1025206","84133.5862546"
"Blocked","Female","tile","15","F_romp.wav","space","452.492709854","138","81825.4197285","74091.8625977","74858.5472374","75624.7236026","76391.331259","77158.7594514","77925.351031","78691.7292838","82591.2742482","83358.0918307","84124.6184849","84874.3003495","85640.8891467","71791.9811951","72558.6108026","73325.1025206","84883.559666"
"Blocked","Female","tile","15","F_tile.wav","None","734.874811023","138","81825.4197285","74091.8625977","74858.5472374","75624.7236026","76391.331259","77158.7594514","77925.351031","78691.7292838","82591.2742482","83358.0918307","84124.6184849","84874.3003495","85640.8891467","86407.6962175","72558.6108026","73325.1025206","85650.1500091"
"Blocked","Female","tile","15","F_romp.wav","space","519.273006474","138","81825.4197285","74091.8625977","74858.5472374","75624.7236026","76391.331259","77158.7594514","77925.351031","78691.7292838","82591.2742482","83358.0918307","84124.6184849","84874.3003495","85640.8891467","86407.6962175","87174.2732662","73325.1025206","86416.7227295"
"Blocked","Female","tile","15","F_romp.wav","None","732.98825894","138","81825.4197285","74091.8625977","74858.5472374","75624.7236026","76391.331259","77158.7594514","77925.351031","78691.7292838","82591.2742482","83358.0918307","84124.6184849","84874.3003495","85640.8891467","86407.6962175","87174.2732662","87941.7883352","87183.2490744"
"Blocked","Female","tile","15","F_tile.wav","None","730.47687544","138","81825.4197285","88708.0902231","74858.5472374","75624.7236026","76391.331259","77158.7594514","77925.351031","78691.7292838","82591.2742482","83358.0918307","84124.6184849","84874.3003495","85640.8891467","86407.6962175","87174.2732662","87941.7883352","87951.5138792"
"Blocked","Female","tile","15","F_romp.wav","space","482.134951279","138","81825.4197285","88708.0902231","89474.6103847","75624.7236026","76391.331259","77158.7594514","77925.351031","78691.7292838","82591.2742482","83358.0918307","84124.6184849","84874.3003495","85640.8891467","86407.6962175","87174.2732662","87941.7883352","88717.809893"
"Blocked","Female","tile","15","F_tile.wav","None","728.480568039","138","81825.4197285","88708.0902231","89474.6103847","90241.2857492","76391.331259","77158.7594514","77925.351031","78691.7292838","82591.2742482","83358.0918307","84124.6184849","84874.3003495","85640.8891467","86407.6962175","87174.2732662","87941.7883352","89484.356334"
"Blocked","Female","tile","15","F_cling.wav","space","349.488571868","138","81825.4197285","88708.0902231","89474.6103847","90241.2857492","91007.5765071","77158.7594514","77925.351031","78691.7292838","82591.2742482","83358.0918307","84124.6184849","84874.3003495","85640.8891467","86407.6962175","87174.2732662","87941.7883352","90250.4278906"
"Blocked","Female","tile","15","F_depth.wav","None","729.219483212","138","81825.4197285","88708.0902231","89474.6103847","90241.2857492","91007.5765071","91774.064515","77925.351031","78691.7292838","82591.2742482","83358.0918307","84124.6184849","84874.3003495","85640.8891467","86407.6962175","87174.2732662","87941.7883352","91016.6855672"
"Blocked","Female","tile","15","F_romp.wav","None","728.18500211","138","81825.4197285","88708.0902231","89474.6103847","90241.2857492","91007.5765071","91774.064515","92540.8180995","78691.7292838","82591.2742482","83358.0918307","84124.6184849","84874.3003495","85640.8891467","86407.6962175","87174.2732662","87941.7883352","91783.3340341"
"Blocked","Female","tile","15","F_dime.wav","None","727.27604385","138","81825.4197285","88708.0902231","89474.6103847","90241.2857492","91007.5765071","91774.064515","92540.8180995","93307.9148622","82591.2742482","83358.0918307","84124.6184849","84874.3003495","85640.8891467","86407.6962175","87174.2732662","87941.7883352","92549.8545049"
"Blocked","Female","ball","3","F_knife.wav","None","725.427210447","138","96441.7116612","88708.0902231","89474.6103847","90241.2857492","91007.5765071","91774.064515","92540.8180995","93307.9148622","82591.2742482","83358.0918307","84124.6184849","84874.3003495","85640.8891467","86407.6962175","87174.2732662","87941.7883352","93317.4947874"
"Blocked","Female","ball","3","F_priest.wav","None","722.158979857","138","96441.7116612","88708.0902231","89474.6103847","90241.2857492","91007.5765071","91774.064515","92540.8180995","93307.9148622","97208.3576547","83358.0918307","84124.6184849","84874.3003495","85640.8891467","86407.6962175","87174.2732662","87941.7883352","96451.2557228"
"Blocked","Female","ball","3","F_ball.wav","None","720.836662105","138","96441.7116612","88708.0902231","89474.6103847","90241.2857492","91007.5765071","91774.064515","92540.8180995","93307.9148622","97208.3576547","97974.8407159","84124.6184849","84874.3003495","85640.8891467","86407.6962175","87174.2732662","87941.7883352","97218.2495319"
"Blocked","Female","ball","3","F_bluff.wav","space","454.688122263","138","96441.7116612","88708.0902231","89474.6103847","90241.2857492","91007.5765071","91774.064515","92540.8180995","93307.9148622","97208.3576547","97974.8407159","98741.6579893","84874.3003495","85640.8891467","86407.6962175","87174.2732662","87941.7883352","97984.9616877"
"Blocked","Female","ball","3","F_ball.wav","None","717.9168656","138","96441.7116612","88708.0902231","89474.6103847","90241.2857492","91007.5765071","91774.064515","92540.8180995","93307.9148622","97208.3576547","97974.8407159","98741.6579893","99490.610214","85640.8891467","86407.6962175","87174.2732662","87941.7883352","98752.059687"
"Blocked","Female","ball","3","F_jolt.wav","space","363.93575219","138","96441.7116612","88708.0902231","89474.6103847","90241.2857492","91007.5765071","91774.064515","92540.8180995","93307.9148622","97208.3576547","97974.8407159","98741.6579893","99490.610214","100257.630612","86407.6962175","87174.2732662","87941.7883352","99499.7022698"
"Blocked","Female","ball","3","F_ball.wav","None","733.646480716","138","96441.7116612","88708.0902231","89474.6103847","90241.2857492","91007.5765071","91774.064515","92540.8180995","93307.9148622","97208.3576547","97974.8407159","98741.6579893","99490.610214","100257.630612","101023.882414","87174.2732662","87941.7883352","100266.839534"
"Blocked","Female","ball","3","F_park.wav","space","318.347476772","138","96441.7116612","88708.0902231","89474.6103847","90241.2857492","91007.5765071","91774.064515","92540.8180995","93307.9148622","97208.3576547","97974.8407159","98741.6579893","99490.610214","100257.630612","101023.882414","101790.984742","87941.7883352","101033.178831"
"Blocked","Female","ball","3","F_knife.wav","None","729.770113947","138","96441.7116612","88708.0902231","89474.6103847","90241.2857492","91007.5765071","91774.064515","92540.8180995","93307.9148622","97208.3576547","97974.8407159","98741.6579893","99490.610214","100257.630612","101023.882414","101790.984742","102557.680821","101801.157654"
"Blocked","Female","ball","3","F_bluff.wav","None","729.604399065","138","96441.7116612","103323.908817","89474.6103847","90241.2857492","91007.5765071","91774.064515","92540.8180995","93307.9148622","97208.3576547","97974.8407159","98741.6579893","99490.610214","100257.630612","101023.882414","101790.984742","102557.680821","102567.010319"
"Blocked","Female","ball","3","F_cave.wav","None","729.328929097","138","96441.7116612","103323.908817","104090.476282","90241.2857492","91007.5765071","91774.064515","92540.8180995","93307.9148622","97208.3576547","97974.8407159","98741.6579893","99490.610214","100257.630612","101023.882414","101790.984742","102557.680821","103333.022824"
"Blocked","Female","ball","3","F_dime.wav","None","728.4703654","138","96441.7116612","103323.908817","104090.476282","104857.620347","91007.5765071","91774.064515","92540.8180995","93307.9148622","97208.3576547","97974.8407159","98741.6579893","99490.610214","100257.630612","101023.882414","101790.984742","102557.680821","104099.588743"
"Blocked","Female","ball","3","F_greet.wav","None","726.524143713","138","96441.7116612","103323.908817","104090.476282","104857.620347","105624.057033","91774.064515","92540.8180995","93307.9148622","97208.3576547","97974.8407159","98741.6579893","99490.610214","100257.630612","101023.882414","101790.984742","102557.680821","104867.132564"
"Blocked","Female","ball","3","F_ball.wav","None","726.159014506","138","96441.7116612","103323.908817","104090.476282","104857.620347","105624.057033","106390.942015","92540.8180995","93307.9148622","97208.3576547","97974.8407159","98741.6579893","99490.610214","100257.630612","101023.882414","101790.984742","102557.680821","105633.362107"
"Blocked","Female","ball","3","F_gnash.wav","space","446.869226173","138","96441.7116612","103323.908817","104090.476282","104857.620347","105624.057033","106390.942015","107157.813393","93307.9148622","97208.3576547","97974.8407159","98741.6579893","99490.610214","100257.630612","101023.882414","101790.984742","102557.680821","106400.540181"
"Blocked","Female","ball","3","F_cling.wav","None","722.904078313","138","96441.7116612","103323.908817","104090.476282","104857.620347","105624.057033","106390.942015","107157.813393","107924.828226","97208.3576547","97974.8407159","98741.6579893","99490.610214","100257.630612","101023.882414","101790.984742","102557.680821","107167.934055"
"Blocked","Female","done","21","F_jaw.wav","None","721.4144998","138","111057.901568","103323.908817","104090.476282","104857.620347","105624.057033","106390.942015","107157.813393","107924.828226","97208.3576547","97974.8407159","98741.6579893","99490.610214","100257.630612","101023.882414","101790.984742","102557.680821","107934.998046"
"Blocked","Female","done","21","F_reek.wav","None","720.946726389","138","111057.901568","103323.908817","104090.476282","104857.620347","105624.057033","106390.942015","107157.813393","107924.828226","111823.728572","97974.8407159","98741.6579893","99490.610214","100257.630612","101023.882414","101790.984742","102557.680821","111067.681526"
"Blocked","Female","done","21","F_cling.wav","None","721.198081155","138","111057.901568","103323.908817","104090.476282","104857.620347","105624.057033","106390.942015","107157.813393","107924.828226","111823.728572","112590.358179","98741.6579893","99490.610214","100257.630612","101023.882414","101790.984742","102557.680821","111832.990361"
"Blocked","Female","done","21","F_done.wav","None","725.844589178","138","111057.901568","103323.908817","104090.476282","104857.620347","105624.057033","106390.942015","107157.813393","107924.828226","111823.728572","112590.358179","113340.256153","99490.610214","100257.630612","101023.882414","101790.984742","102557.680821","112594.156017"
"Blocked","Female","done","21","F_park.wav","space","353.92608121","138","111057.901568","103323.908817","104090.476282","104857.620347","105624.057033","106390.942015","107157.813393","107924.828226","111823.728572","112590.358179","113340.256153","114106.81527","100257.630612","101023.882414","101790.984742","102557.680821","113349.299669"
"Blocked","Female","done","21","F_done.wav","None","734.984875424","138","111057.901568","103323.908817","104090.476282","104857.620347","105624.057033","106390.942015","107157.813393","107924.828226","111823.728572","112590.358179","113340.256153","114106.81527","114873.433129","101023.882414","101790.984742","102557.680821","114116.112614"
"Blocked","Female","done","21","F_depth.wav","space","388.584597385","138","111057.901568","103323.908817","104090.476282","104857.620347","105624.057033","106390.942015","107157.813393","107924.828226","111823.728572","112590.358179","113340.256153","114106.81527","114873.433129","115640.034911","101790.984742","102557.680821","114882.590729"
"Blocked","Female","done","21","F_gnash.wav","None","732.389088487","138","111057.901568","103323.908817","104090.476282","104857.620347","105624.057033","106390.942015","107157.813393","107924.828226","111823.728572","112590.358179","113340.256153","114106.81527","114873.433129","115640.034911","116407.234628","102557.680821","115649.556095"
"Blocked","Female","done","21","F_priest.wav","None","731.674288749","138","111057.901568","103323.908817","104090.476282","104857.620347","105624.057033","106390.942015","107157.813393","107924.828226","111823.728572","112590.358179","113340.256153","114106.81527","114873.433129","115640.034911","116407.234628","117173.35998","116416.52146"
"Blocked","Female","done","21","F_reek.wav","None","731.532998267","138","111057.901568","117940.786626","104090.476282","104857.620347","105624.057033","106390.942015","107157.813393","107924.828226","111823.728572","112590.358179","113340.256153","114106.81527","114873.433129","115640.034911","116407.234628","117173.35998","117182.406897"
"Blocked","Female","done","21","F_cling.wav","None","728.969365009","138","111057.901568","117940.786626","118707.204762","104857.620347","105624.057033","106390.942015","107157.813393","107924.828226","111823.728572","112590.358179","113340.256153","114106.81527","114873.433129","115640.034911","116407.234628","117173.35998","117950.555454"
"Blocked","Female","done","21","F_done.wav","None","727.949414984","138","111057.901568","117940.786626","118707.204762","119473.712247","105624.057033","106390.942015","107157.813393","107924.828226","111823.728572","112590.358179","113340.256153","114106.81527","114873.433129","115640.034911","116407.234628","117173.35998","118716.931233"
"Blocked","Female","done","21","F_cave.wav","space","307.721940451","138","111057.901568","117940.786626","118707.204762","119473.712247","120240.512826","106390.942015","107157.813393","107924.828226","111823.728572","112590.358179","113340.256153","114106.81527","114873.433129","115640.034911","116407.234628","117173.35998","119483.321544"
"Blocked","Female","done","21","F_park.wav","None","719.345846912","138","111057.901568","117940.786626","118707.204762","119473.712247","120240.512826","121006.687027","107157.813393","107924.828226","111823.728572","112590.358179","113340.256153","114106.81527","114873.433129","115640.034911","116407.234628","117173.35998","120256.226982"
"Blocked","Female","done","21","F_done.wav","None","725.40804185","138","111057.901568","117940.786626","118707.204762","119473.712247","120240.512826","121006.687027","121773.998662","107924.828226","111823.728572","112590.358179","113340.256153","114106.81527","114873.433129","115640.034911","116407.234628","117173.35998","121015.874616"
"Blocked","Female","done","21","F_dime.wav","space","391.13462728","138","111057.901568","117940.786626","118707.204762","119473.712247","120240.512826","121006.687027","121773.998662","122540.235315","111823.728572","112590.358179","113340.256153","114106.81527","114873.433129","115640.034911","116407.234628","117173.35998","121783.837671"
"Blocked","Female","ball","6","F_jolt.wav","None","722.786593949","138","125673.85496","117940.786626","118707.204762","119473.712247","120240.512826","121006.687027","121773.998662","122540.235315","111823.728572","112590.358179","113340.256153","114106.81527","114873.433129","115640.034911","116407.234628","117173.35998","122549.561103"
"Blocked","Female","ball","6","F_priest.wav","None","707.96624606","138","125673.85496","117940.786626","118707.204762","119473.712247","120240.512826","121006.687027","121773.998662","122540.235315","126440.663886","112590.358179","113340.256153","114106.81527","114873.433129","115640.034911","116407.234628","117173.35998","125697.623909"
"Blocked","Female","ball","6","F_park.wav","None","672.851395793","138","125673.85496","117940.786626","118707.204762","119473.712247","120240.512826","121006.687027","121773.998662","122540.235315","126440.663886","127207.349453","113340.256153","114106.81527","114873.433129","115640.034911","116407.234628","117173.35998","126498.764868"
"Blocked","Female","ball","6","F_jaw.wav","None","721.226524678","138","125673.85496","117940.786626","118707.204762","119473.712247","120240.512826","121006.687027","121773.998662","122540.235315","126440.663886","127207.349453","127973.881363","114106.81527","114873.433129","115640.034911","116407.234628","117173.35998","127216.309803"
"Blocked","Female","ball","6","F_tile.wav","None","719.704792602","138","125673.85496","117940.786626","118707.204762","119473.712247","120240.512826","121006.687027","121773.998662","122540.235315","126440.663886","127207.349453","127973.881363","128740.174285","114873.433129","115640.034911","116407.234628","117173.35998","127983.701513"
"Blocked","Female","ball","6","F_cave.wav","None","720.141030732","138","125673.85496","117940.786626","118707.204762","119473.712247","120240.512826","121006.687027","121773.998662","122540.235315","126440.663886","127207.349453","127973.881363","128740.174285","129489.904998","115640.034911","116407.234628","117173.35998","128749.317045"
"Blocked","Female","ball","6","F_greet.wav","None","736.027085804","138","125673.85496","117940.786626","118707.204762","119473.712247","120240.512826","121006.687027","121773.998662","122540.235315","126440.663886","127207.349453","127973.881363","128740.174285","129489.904998","130256.664148","116407.234628","117173.35998","129499.258612"
"Blocked","Female","ball","6","F_done.wav","None","735.117818229","138","125673.85496","117940.786626","118707.204762","119473.712247","120240.512826","121006.687027","121773.998662","122540.235315","126440.663886","127207.349453","127973.881363","128740.174285","129489.904998","130256.664148","131023.192966","117173.35998","130265.845554"
"Blocked","Female","ball","6","F_ball.wav","None","733.892888878","138","125673.85496","117940.786626","118707.204762","119473.712247","120240.512826","121006.687027","121773.998662","122540.235315","126440.663886","127207.349453","127973.881363","128740.174285","129489.904998","130256.664148","131023.192966","131789.577712","131032.811538"
"Blocked","Female","ball","6","F_priest.wav","space","448.355094763","138","125673.85496","132556.710338","118707.204762","119473.712247","120240.512826","121006.687027","121773.998662","122540.235315","126440.663886","127207.349453","127973.881363","128740.174285","129489.904998","130256.664148","131023.192966","131789.577712","131798.311749"
"Blocked","Female","ball","6","F_ball.wav","None","732.590976171","138","125673.85496","132556.710338","133322.945445","119473.712247","120240.512826","121006.687027","121773.998662","122540.235315","126440.663886","127207.349453","127973.881363","128740.174285","129489.904998","130256.664148","131023.192966","131789.577712","132565.648737"
"Blocked","Female","ball","6","F_park.wav","space","434.593343176","138","125673.85496","132556.710338","133322.945445","134089.589584","120240.512826","121006.687027","121773.998662","122540.235315","126440.663886","127207.349453","127973.881363","128740.174285","129489.904998","130256.664148","131023.192966","131789.577712","133332.018642"
"Blocked","Female","ball","6","F_ball.wav","None","730.744616129","138","125673.85496","132556.710338","133322.945445","134089.589584","134856.596378","121006.687027","121773.998662","122540.235315","126440.663886","127207.349453","127973.881363","128740.174285","129489.904998","130256.664148","131023.192966","131789.577712","134098.621352"
"Blocked","Female","ball","6","F_cad.wav","space","437.281571794","138","125673.85496","132556.710338","133322.945445","134089.589584","134856.596378","135623.274216","121773.998662","122540.235315","126440.663886","127207.349453","127973.881363","128740.174285","129489.904998","130256.664148","131023.192966","131789.577712","134865.278784"
"Blocked","Female","ball","6","F_ball.wav","None","727.758966503","138","125673.85496","132556.710338","133322.945445","134089.589584","134856.596378","135623.274216","136389.984208","122540.235315","126440.663886","127207.349453","127973.881363","128740.174285","129489.904998","130256.664148","131023.192966","131789.577712","135632.762009"
"Blocked","Female","ball","6","F_jolt.wav","space","343.336717691","138","125673.85496","132556.710338","133322.945445","134089.589584","134856.596378","135623.274216","136389.984208","137156.199528","126440.663886","127207.349453","127973.881363","128740.174285","129489.904998","130256.664148","131023.192966","131789.577712","136399.174579"
"Blocked","Female","tile","14","F_greet.wav","None","726.633898797","138","140290.251083","132556.710338","133322.945445","134089.589584","134856.596378","135623.274216","136389.984208","137156.199528","126440.663886","127207.349453","127973.881363","128740.174285","129489.904998","130256.664148","131023.192966","131789.577712","137165.212746"
"Blocked","Female","tile","14","F_bluff.wav","None","722.500921343","138","140290.251083","132556.710338","133322.945445","134089.589584","134856.596378","135623.274216","136389.984208","137156.199528","141056.256786","127207.349453","127973.881363","128740.174285","129489.904998","130256.664148","131023.192966","131789.577712","140299.702393"
"Blocked","Female","tile","14","F_tile.wav","None","722.718576551","138","140290.251083","132556.710338","133322.945445","134089.589584","134856.596378","135623.274216","136389.984208","137156.199528","141056.256786","141823.557292","127973.881363","128740.174285","129489.904998","130256.664148","131023.192966","131789.577712","141065.417787"
"Blocked","Female","tile","14","F_greet.wav","space","365.085244179","138","140290.251083","132556.710338","133322.945445","134089.589584","134856.596378","135623.274216","136389.984208","137156.199528","141056.256786","141823.557292","142589.476119","128740.174285","129489.904998","130256.664148","131023.192966","131789.577712","141833.277271"
"Blocked","Female","tile","14","F_ball.wav","None","720.96373071","138","140290.251083","132556.710338","133322.945445","134089.589584","134856.596378","135623.274216","136389.984208","137156.199528","141056.256786","141823.557292","142589.476119","143356.779406","129489.904998","130256.664148","131023.192966","131789.577712","142598.388856"
"Blocked","Female","tile","14","F_jaw.wav","None","725.222540204","138","140290.251083","132556.710338","133322.945445","134089.589584","134856.596378","135623.274216","136389.984208","137156.199528","141056.256786","141823.557292","142589.476119","143356.779406","144123.377169","130256.664148","131023.192966","131789.577712","143360.982875"
"Blocked","Female","tile","14","F_depth.wav","None","719.169929507","138","140290.251083","132556.710338","133322.945445","134089.589584","134856.596378","135623.274216","136389.984208","137156.199528","141056.256786","141823.557292","142589.476119","143356.779406","144123.377169","144872.723585","131023.192966","131789.577712","144133.049227"
"Blocked","Female","tile","14","F_dime.wav","None","736.647588783","138","140290.251083","132556.710338","133322.945445","134089.589584","134856.596378","135623.274216","136389.984208","137156.199528","141056.256786","141823.557292","142589.476119","143356.779406","144123.377169","144872.723585","145638.931486","131789.577712","144881.763391"
"Blocked","Female","tile","14","F_tile.wav","None","736.756725702","138","140290.251083","132556.710338","133322.945445","134089.589584","134856.596378","135623.274216","136389.984208","137156.199528","141056.256786","141823.557292","142589.476119","143356.779406","144123.377169","144872.723585","145638.931486","146406.111724","145647.58854"
"Blocked","Female","tile","14","F_jolt.wav","space","470.797397546","138","140290.251083","147172.812131","133322.945445","134089.589584","134856.596378","135623.274216","136389.984208","137156.199528","141056.256786","141823.557292","142589.476119","143356.779406","144123.377169","144872.723585","145638.931486","146406.111724","146415.436584"
"Blocked","Female","tile","14","F_tile.wav","None","733.076681383","138","140290.251083","147172.812131","147939.356717","134089.589584","134856.596378","135623.274216","136389.984208","137156.199528","141056.256786","141823.557292","142589.476119","143356.779406","144123.377169","144872.723585","145638.931486","146406.111724","147182.407206"
"Blocked","Female","tile","14","F_reek.wav","space","545.284980093","138","140290.251083","147172.812131","147939.356717","148705.906868","134856.596378","135623.274216","136389.984208","137156.199528","141056.256786","141823.557292","142589.476119","143356.779406","144123.377169","144872.723585","145638.931486","146406.111724","147948.868625"
"Blocked","Female","tile","14","F_tile.wav","None","732.096305117","138","140290.251083","147172.812131","147939.356717","148705.906868","149472.410953","135623.274216","136389.984208","137156.199528","141056.256786","141823.557292","142589.476119","143356.779406","144123.377169","144872.723585","145638.931486","146406.111724","148714.781887"
"Blocked","Female","tile","14","F_gnash.wav","space","396.90929465","138","140290.251083","147172.812131","147939.356717","148705.906868","149472.410953","150239.127746","136389.984208","137156.199528","141056.256786","141823.557292","142589.476119","143356.779406","144123.377169","144872.723585","145638.931486","146406.111724","149481.233413"
"Blocked","Female","tile","14","F_reek.wav","None","730.360318441","138","140290.251083","147172.812131","147939.356717","148705.906868","149472.410953","150239.127746","151005.756426","137156.199528","141056.256786","141823.557292","142589.476119","143356.779406","144123.377169","144872.723585","145638.931486","146406.111724","150247.858074"
"Blocked","Female","tile","14","F_priest.wav","None","729.490624741","138","140290.251083","147172.812131","147939.356717","148705.906868","149472.410953","150239.127746","151005.756426","151772.345842","141056.256786","141823.557292","142589.476119","143356.779406","144123.377169","144872.723585","145638.931486","146406.111724","151014.794687"
"Blocked","Female","tile","17","F_jaw.wav","None","729.071081732","138","154906.581971","147172.812131","147939.356717","148705.906868","149472.410953","150239.127746","151005.756426","151772.345842","141056.256786","141823.557292","142589.476119","143356.779406","144123.377169","144872.723585","145638.931486","146406.111724","151781.206639"
"Blocked","Female","tile","17","F_greet.wav","None","721.43150412","138","154906.581971","147172.812131","147939.356717","148705.906868","149472.410953","150239.127746","151005.756426","151772.345842","155672.416704","141823.557292","142589.476119","143356.779406","144123.377169","144872.723585","145638.931486","146406.111724","154916.452824"
"Blocked","Female","tile","17","F_tile.wav","None","722.786903149","138","154906.581971","147172.812131","147939.356717","148705.906868","149472.410953","150239.127746","151005.756426","151772.345842","155672.416704","156439.901474","142589.476119","143356.779406","144123.377169","144872.723585","145638.931486","146406.111724","155681.204846"
"Blocked","Female","tile","17","F_cad.wav","space","364.117543679","138","154906.581971","147172.812131","147939.356717","148705.906868","149472.410953","150239.127746","151005.756426","151772.345842","155672.416704","156439.901474","157206.310644","143356.779406","144123.377169","144872.723585","145638.931486","146406.111724","156449.798916"
"Blocked","Female","tile","17","F_tile.wav","None","719.262989471","138","154906.581971","147172.812131","147939.356717","148705.906868","149472.410953","150239.127746","151005.756426","151772.345842","155672.416704","156439.901474","157206.310644","157972.768971","144123.377169","144872.723585","145638.931486","146406.111724","157216.372255"
"Blocked","Female","tile","17","F_jolt.wav","space","319.66763048","138","154906.581971","147172.812131","147939.356717","148705.906868","149472.410953","150239.127746","151005.756426","151772.345842","155672.416704","156439.901474","157206.310644","157972.768971","158722.360868","144872.723585","145638.931486","146406.111724","157982.159376"
"Blocked","Female","tile","17","F_tile.wav","None","734.876356903","138","154906.581971","147172.812131","147939.356717","148705.906868","149472.410953","150239.127746","151005.756426","151772.345842","155672.416704","156439.901474","157206.310644","157972.768971","158722.360868","159489.3015","145638.931486","146406.111724","158732.010974"
"Blocked","Female","tile","17","F_reek.wav","space","419.463516795","138","154906.581971","147172.812131","147939.356717","148705.906868","149472.410953","150239.127746","151005.756426","151772.345842","155672.416704","156439.901474","157206.310644","157972.768971","158722.360868","159489.3015","160255.947184","146406.111724","159498.350581"
"Blocked","Female","tile","17","F_jaw.wav","None","732.665795251","138","154906.581971","147172.812131","147939.356717","148705.906868","149472.410953","150239.127746","151005.756426","151772.345842","155672.416704","156439.901474","157206.310644","157972.768971","158722.360868","159489.3015","160255.947184","161022.05986","160265.367269"
"Blocked","Female","tile","17","F_jolt.wav","None","732.865827857","138","154906.581971","161788.772944","147939.356717","148705.906868","149472.410953","150239.127746","151005.756426","151772.345842","155672.416704","156439.901474","157206.310644","157972.768971","158722.360868","159489.3015","160255.947184","161022.05986","161031.150989"
"Blocked","Female","tile","17","F_knife.wav","None","732.362190844","138","154906.581971","161788.772944","162555.489737","148705.906868","149472.410953","150239.127746","151005.756426","151772.345842","155672.416704","156439.901474","157206.310644","157972.768971","158722.360868","159489.3015","160255.947184","161022.05986","161797.726801"
"Blocked","Female","tile","17","F_ball.wav","None","731.904001557","138","154906.581971","161788.772944","162555.489737","163322.457885","149472.410953","150239.127746","151005.756426","151772.345842","155672.416704","156439.901474","157206.310644","157972.768971","158722.360868","159489.3015","160255.947184","161022.05986","162564.281898"
"Blocked","Female","tile","17","F_bluff.wav","None","730.321053881","138","154906.581971","161788.772944","162555.489737","163322.457885","164089.149017","150239.127746","151005.756426","151772.345842","155672.416704","156439.901474","157206.310644","157972.768971","158722.360868","159489.3015","160255.947184","161022.05986","163331.780581"
"Blocked","Female","tile","17","F_tile.wav","None","729.769186466","138","154906.581971","161788.772944","162555.489737","163322.457885","164089.149017","164855.838604","151005.756426","151772.345842","155672.416704","156439.901474","157206.310644","157972.768971","158722.360868","159489.3015","160255.947184","161022.05986","164098.318365"
"Blocked","Female","tile","17","F_dime.wav","space","444.459250197","138","154906.581971","161788.772944","162555.489737","163322.457885","164089.149017","164855.838604","165622.382571","151772.345842","155672.416704","156439.901474","157206.310644","157972.768971","158722.360868","159489.3015","160255.947184","161022.05986","164865.231791"
"Blocked","Female","tile","17","F_jolt.wav","None","727.120840689","138","154906.581971","161788.772944","162555.489737","163322.457885","164089.149017","164855.838604","165622.382571","166388.575941","155672.416704","156439.901474","157206.310644","157972.768971","158722.360868","159489.3015","160255.947184","161022.05986","165631.621173"
"Blocked","Female","ball","1","F_cling.wav","None","727.125169127","138","169522.660577","161788.772944","162555.489737","163322.457885","164089.149017","164855.838604","165622.382571","166388.575941","155672.416704","156439.901474","157206.310644","157972.768971","158722.360868","159489.3015","160255.947184","161022.05986","166397.732304"
"Blocked","Female","ball","1","F_cad.wav","None","721.785812406","138","169522.660577","161788.772944","162555.489737","163322.457885","164089.149017","164855.838604","165622.382571","166388.575941","170288.717911","156439.901474","157206.310644","157972.768971","158722.360868","159489.3015","160255.947184","161022.05986","169532.497731"
"Blocked","Female","ball","1","F_done.wav","None","722.431667382","138","169522.660577","161788.772944","162555.489737","163322.457885","164089.149017","164855.838604","165622.382571","166388.575941","170288.717911","171056.003267","157206.310644","157972.768971","158722.360868","159489.3015","160255.947184","161022.05986","170297.940437"
"Blocked","Female","ball","1","F_depth.wav","None","720.721341902","138","169522.660577","161788.772944","162555.489737","163322.457885","164089.149017","164855.838604","165622.382571","166388.575941","170288.717911","171056.003267","171821.818523","157972.768971","158722.360868","159489.3015","160255.947184","161022.05986","171065.690784"
"Blocked","Female","ball","1","F_jolt.wav","None","721.589489724","138","169522.660577","161788.772944","162555.489737","163322.457885","164089.149017","164855.838604","165622.382571","166388.575941","170288.717911","171056.003267","171821.818523","172589.106661","158722.360868","159489.3015","160255.947184","161022.05986","171830.833595"
"Blocked","Female","ball","1","F_ball.wav","None","719.468277995","138","169522.660577","161788.772944","162555.489737","163322.457885","164089.149017","164855.838604","165622.382571","166388.575941","170288.717911","171056.003267","171821.818523","172589.106661","173355.914041","159489.3015","160255.947184","161022.05986","172598.9568"
"Blocked","Female","ball","1","F_cling.wav","space","335.603461717","138","169522.660577","161788.772944","162555.489737","163322.457885","164089.149017","164855.838604","165622.382571","166388.575941","170288.717911","171056.003267","171821.818523","172589.106661","173355.914041","174104.962108","160255.947184","161022.05986","173365.768818"
"Blocked","Female","ball","1","F_ball.wav","None","741.805154015","138","169522.660577","161788.772944","162555.489737","163322.457885","164089.149017","164855.838604","165622.382571","166388.575941","170288.717911","171056.003267","171821.818523","172589.106661","173355.914041","174104.962108","174871.994254","161022.05986","174108.541982"
"Blocked","Female","ball","1","F_priest.wav","space","652.148171328","138","169522.660577","161788.772944","162555.489737","163322.457885","164089.149017","164855.838604","165622.382571","166388.575941","170288.717911","171056.003267","171821.818523","172589.106661","173355.914041","174104.962108","174871.994254","175638.626026","174881.223581"
"Blocked","Female","ball","1","F_ball.wav","None","733.938336722","138","169522.660577","176405.491839","162555.489737","163322.457885","164089.149017","164855.838604","165622.382571","166388.575941","170288.717911","171056.003267","171821.818523","172589.106661","173355.914041","174104.962108","174871.994254","175638.626026","175647.891217"
"Blocked","Female","ball","1","F_park.wav","space","278.085264028","138","169522.660577","176405.491839","177172.34343","163322.457885","164089.149017","164855.838604","165622.382571","166388.575941","170288.717911","171056.003267","171821.818523","172589.106661","173355.914041","174104.962108","174871.994254","175638.626026","176415.234078"
"Blocked","Female","ball","1","F_knife.wav","None","730.838912888","138","169522.660577","176405.491839","177172.34343","177938.751982","164089.149017","164855.838604","165622.382571","166388.575941","170288.717911","171056.003267","171821.818523","172589.106661","173355.914041","174104.962108","174871.994254","175638.626026","177181.915626"
"Blocked","Female","ball","1","F_ball.wav","None","730.883124052","138","169522.660577","176405.491839","177172.34343","177938.751982","178704.979051","164855.838604","165622.382571","166388.575941","170288.717911","171056.003267","171821.818523","172589.106661","173355.914041","174104.962108","174871.994254","175638.626026","177947.964923"
"Blocked","Female","ball","1","F_gnash.wav","space","523.498116527","138","169522.660577","176405.491839","177172.34343","177938.751982","178704.979051","179471.86125","165622.382571","166388.575941","170288.717911","171056.003267","171821.818523","172589.106661","173355.914041","174104.962108","174871.994254","175638.626026","178713.76843"
"Blocked","Female","ball","1","F_done.wav","None","729.001518688","138","169522.660577","176405.491839","177172.34343","177938.751982","178704.979051","179471.86125","180238.6575","166388.575941","170288.717911","171056.003267","171821.818523","172589.106661","173355.914041","174104.962108","174871.994254","175638.626026","179481.182091"
"Blocked","Female","ball","1","F_jaw.wav","None","728.678745683","138","169522.660577","176405.491839","177172.34343","177938.751982","178704.979051","179471.86125","180238.6575","181004.946093","170288.717911","171056.003267","171821.818523","172589.106661","173355.914041","174104.962108","174871.994254","175638.626026","180247.670408"
"Blocked","Female","done","24","F_knife.wav","None","728.06504427","138","184138.956528","176405.491839","177172.34343","177938.751982","178704.979051","179471.86125","180238.6575","181004.946093","170288.717911","171056.003267","171821.818523","172589.106661","173355.914041","174104.962108","174871.994254","175638.626026","181014.196753"
"Blocked","Female","done","24","F_jolt.wav","None","721.729543526","138","184138.956528","176405.491839","177172.34343","177938.751982","178704.979051","179471.86125","180238.6575","181004.946093","184905.340655","171056.003267","171821.818523","172589.106661","173355.914041","174104.962108","174871.994254","175638.626026","184148.642499"
"Blocked","Female","done","24","F_romp.wav","None","721.684095683","138","184138.956528","176405.491839","177172.34343","177938.751982","178704.979051","179471.86125","180238.6575","181004.946093","184905.340655","185671.600496","171821.818523","172589.106661","173355.914041","174104.962108","174871.994254","175638.626026","184914.732915"
"Blocked","Female","done","24","F_done.wav","None","722.060045577","138","184138.956528","176405.491839","177172.34343","177938.751982","178704.979051","179471.86125","180238.6575","181004.946093","184905.340655","185671.600496","186439.22161","172589.106661","173355.914041","174104.962108","174871.994254","175638.626026","185680.491283"
"Blocked","Female","done","24","F_ball.wav","space","355.996898375","138","184138.956528","176405.491839","177172.34343","177938.751982","178704.979051","179471.86125","180238.6575","181004.946093","184905.340655","185671.600496","186439.22161","187188.901311","173355.914041","174104.962108","174871.994254","175638.626026","186449.027538"
"Blocked","Female","done","24","F_done.wav","None","735.612798715","138","184138.956528","176405.491839","177172.34343","177938.751982","178704.979051","179471.86125","180238.6575","181004.946093","184905.340655","185671.600496","186439.22161","187188.901311","187955.122815","174104.962108","174871.994254","175638.626026","187198.215041"
"Blocked","Female","done","24","F_park.wav","space","376.400537672","138","184138.956528","176405.491839","177172.34343","177938.751982","178704.979051","179471.86125","180238.6575","181004.946093","184905.340655","185671.600496","186439.22161","187188.901311","187955.122815","188721.62659","174871.994254","175638.626026","187964.522185"
"Blocked","Female","done","24","F_romp.wav","None","733.764274395","138","184138.956528","176405.491839","177172.34343","177938.751982","178704.979051","179471.86125","180238.6575","181004.946093","184905.340655","185671.600496","186439.22161","187188.901311","187955.122815","188721.62659","189487.8719","175638.626026","188731.166323"
"Blocked","Female","done","24","F_romp.wav","None","734.650044935","138","184138.956528","176405.491839","177172.34343","177938.751982","178704.979051","179471.86125","180238.6575","181004.946093","184905.340655","185671.600496","186439.22161","187188.901311","187955.122815","188721.62659","189487.8719","190255.049047","189496.739808"
"Blocked","Female","done","24","F_done.wav","None","733.023504377","138","184138.956528","191021.489133","177172.34343","177938.751982","178704.979051","179471.86125","180238.6575","181004.946093","184905.340655","185671.600496","186439.22161","187188.901311","187955.122815","188721.62659","189487.8719","190255.049047","190264.658961"
"Blocked","Female","done","24","F_gnash.wav","space","477.76236746","138","184138.956528","191021.489133","191787.843271","177938.751982","178704.979051","179471.86125","180238.6575","181004.946093","184905.340655","185671.600496","186439.22161","187188.901311","187955.122815","188721.62659","189487.8719","190255.049047","191031.110487"
"Blocked","Female","done","24","F_done.wav","None","732.53625317","138","184138.956528","191021.489133","191787.843271","192554.53935","178704.979051","179471.86125","180238.6575","181004.946093","184905.340655","185671.600496","186439.22161","187188.901311","187955.122815","188721.62659","189487.8719","190255.049047","191796.808567"
"Blocked","Female","done","24","F_knife.wav","space","489.162991638","138","184138.956528","191021.489133","191787.843271","192554.53935","193321.145151","179471.86125","180238.6575","181004.946093","184905.340655","185671.600496","186439.22161","187188.901311","187955.122815","188721.62659","189487.8719","190255.049047","192563.682419"
"Blocked","Female","done","24","F_cad.wav","None","731.212389539","138","184138.956528","191021.489133","191787.843271","192554.53935","193321.145151","194088.271285","180238.6575","181004.946093","184905.340655","185671.600496","186439.22161","187188.901311","187955.122815","188721.62659","189487.8719","190255.049047","193329.988635"
"Blocked","Female","done","24","F_cad.wav","None","729.373140377","138","184138.956528","191021.489133","191787.843271","192554.53935","193321.145151","194088.271285","194854.950978","181004.946093","184905.340655","185671.600496","186439.22161","187188.901311","187955.122815","188721.62659","189487.8719","190255.049047","194097.826168"
"Blocked","Female","done","24","F_cling.wav","None","728.392763995","138","184138.956528","191021.489133","191787.843271","192554.53935","193321.145151","194088.271285","194854.950978","195621.542867","184905.340655","185671.600496","186439.22161","187188.901311","187955.122815","188721.62659","189487.8719","190255.049047","194864.955393"
"Blocked","Female","tile","13","F_lash.wav","None","728.690494085","138","198754.569834","191021.489133","191787.843271","192554.53935","193321.145151","194088.271285","194854.950978","195621.542867","184905.340655","185671.600496","186439.22161","187188.901311","187955.122815","188721.62659","189487.8719","190255.049047","195630.885041"
"Blocked","Female","tile","13","F_park.wav","None","722.957255435","138","198754.569834","191021.489133","191787.843271","192554.53935","193321.145151","194088.271285","194854.950978","195621.542867","199521.469965","185671.600496","186439.22161","187188.901311","187955.122815","188721.62659","189487.8719","190255.049047","198763.572231"
"Blocked","Female","tile","13","F_priest.wav","None","721.190661076","138","198754.569834","191021.489133","191787.843271","192554.53935","193321.145151","194088.271285","194854.950978","195621.542867","199521.469965","200288.526535","186439.22161","187188.901311","187955.122815","188721.62659","189487.8719","190255.049047","199531.5189"
"Blocked","Female","tile","13","F_gnash.wav","None","720.845627948","138","198754.569834","191021.489133","191787.843271","192554.53935","193321.145151","194088.271285","194854.950978","195621.542867","199521.469965","200288.526535","201054.456183","187188.901311","187955.122815","188721.62659","189487.8719","190255.049047","200298.312677"
"Blocked","Female","tile","13","F_tile.wav","None","722.028819611","138","198754.569834","191021.489133","191787.843271","192554.53935","193321.145151","194088.271285","194854.950978","195621.542867","199521.469965","200288.526535","201054.456183","201821.002624","187955.122815","188721.62659","189487.8719","190255.049047","201063.499699"
"Blocked","Female","tile","13","F_knife.wav","space","382.380184485","138","198754.569834","191021.489133","191787.843271","192554.53935","193321.145151","194088.271285","194854.950978","195621.542867","199521.469965","200288.526535","201054.456183","201821.002624","202588.148545","188721.62659","189487.8719","190255.049047","201830.195469"
"Blocked","Female","tile","13","F_gnash.wav","None","718.920429703","138","198754.569834","191021.489133","191787.843271","192554.53935","193321.145151","194088.271285","194854.950978","195621.542867","199521.469965","200288.526535","201054.456183","201821.002624","202588.148545","203354.946031","189487.8719","190255.049047","202598.268589"
"Blocked","Female","tile","13","F_tile.wav","None","718.627955415","138","198754.569834","191021.489133","191787.843271","192554.53935","193321.145151","194088.271285","194854.950978","195621.542867","199521.469965","200288.526535","201054.456183","201821.002624","202588.148545","203354.946031","204104.742598","190255.049047","203365.005169"
"Blocked","Female","tile","13","F_jolt.wav","space","474.329967867","138","198754.569834","191021.489133","191787.843271","192554.53935","193321.145151","194088.271285","194854.950978","195621.542867","199521.469965","200288.526535","201054.456183","201821.002624","202588.148545","203354.946031","204104.742598","204870.656169","204114.162373"
"Blocked","Female","tile","13","F_tile.wav","None","735.913620447","138","198754.569834","205637.546716","191787.843271","192554.53935","193321.145151","194088.271285","194854.950978","195621.542867","199521.469965","200288.526535","201054.456183","201821.002624","202588.148545","203354.946031","204104.742598","204870.656169","204879.536135"
"Blocked","Female","tile","13","F_dime.wav","space","413.467793143","138","198754.569834","205637.546716","206404.137368","192554.53935","193321.145151","194088.271285","194854.950978","195621.542867","199521.469965","200288.526535","201054.456183","201821.002624","202588.148545","203354.946031","204104.742598","204870.656169","205646.989988"
"Blocked","Female","tile","13","F_tile.wav","None","733.608452952","138","198754.569834","205637.546716","206404.137368","207170.790781","193321.145151","194088.271285","194854.950978","195621.542867","199521.469965","200288.526535","201054.456183","201821.002624","202588.148545","203354.946031","204104.742598","204870.656169","206413.460991"
"Blocked","Female","tile","13","F_depth.wav","space","360.647425638","138","198754.569834","205637.546716","206404.137368","207170.790781","207937.348043","194088.271285","194854.950978","195621.542867","199521.469965","200288.526535","201054.456183","201821.002624","202588.148545","203354.946031","204104.742598","204870.656169","207179.746184"
"Blocked","Female","tile","13","F_greet.wav","None","732.267275685","138","198754.569834","205637.546716","206404.137368","207170.790781","207937.348043","208704.454081","194854.950978","195621.542867","199521.469965","200288.526535","201054.456183","201821.002624","202588.148545","203354.946031","204104.742598","204870.656169","207946.418766"
"Blocked","Female","tile","13","F_depth.wav","None","731.879268074","138","198754.569834","205637.546716","206404.137368","207170.790781","207937.348043","208704.454081","209471.020618","195621.542867","199521.469965","200288.526535","201054.456183","201821.002624","202588.148545","203354.946031","204104.742598","204870.656169","208713.871692"
"Blocked","Female","tile","13","F_depth.wav","None","731.217336259","138","198754.569834","205637.546716","206404.137368","207170.790781","207937.348043","208704.454081","209471.020618","210237.762145","199521.469965","200288.526535","201054.456183","201821.002624","202588.148545","203354.946031","204104.742598","204870.656169","209480.783262"
"Blocked","Female","done","22","F_romp.wav","None","731.852061232","138","213371.29244","205637.546716","206404.137368","207170.790781","207937.348043","208704.454081","209471.020618","210237.762145","199521.469965","200288.526535","201054.456183","201821.002624","202588.148545","203354.946031","204104.742598","204870.656169","210246.711055"
"Blocked","Female","done","22","F_reek.wav","None","721.84084449","138","213371.29244","205637.546716","206404.137368","207170.790781","207937.348043","208704.454081","209471.020618","210237.762145","214137.249604","200288.526535","201054.456183","201821.002624","202588.148545","203354.946031","204104.742598","204870.656169","213380.817642"
"Blocked","Female","done","22","F_jaw.wav","None","722.446198342","138","213371.29244","205637.546716","206404.137368","207170.790781","207937.348043","208704.454081","209471.020618","210237.762145","214137.249604","214904.044617","201054.456183","201821.002624","202588.148545","203354.946031","204104.742598","204870.656169","214146.49408"
"Blocked","Female","done","22","F_jolt.wav","None","721.86897893","138","213371.29244","205637.546716","206404.137368","207170.790781","207937.348043","208704.454081","209471.020618","210237.762145","214137.249604","214904.044617","215671.324408","201821.002624","202588.148545","203354.946031","204104.742598","204870.656169","214913.406268"
"Blocked","Female","done","22","F_priest.wav","None","720.411244896","138","213371.29244","205637.546716","206404.137368","207170.790781","207937.348043","208704.454081","209471.020618","210237.762145","214137.249604","214904.044617","215671.324408","216437.811179","202588.148545","203354.946031","204104.742598","204870.656169","215681.320784"
"Blocked","Female","done","22","F_jaw.wav","None","721.04442399","138","213371.29244","205637.546716","206404.137368","207170.790781","207937.348043","208704.454081","209471.020618","210237.762145","214137.249604","214904.044617","215671.324408","216437.811179","217203.496892","203354.946031","204104.742598","204870.656169","216447.521265"
"Blocked","Female","done","22","F_done.wav","None","725.893747061","138","213371.29244","205637.546716","206404.137368","207170.790781","207937.348043","208704.454081","209471.020618","210237.762145","214137.249604","214904.044617","215671.324408","216437.811179","217203.496892","217971.127591","204104.742598","204870.656169","217212.269576"
"Blocked","Female","done","22","F_dime.wav","space","543.606808176","138","213371.29244","205637.546716","206404.137368","207170.790781","207937.348043","208704.454081","209471.020618","210237.762145","214137.249604","214904.044617","215671.324408","216437.811179","217203.496892","217971.127591","218738.213841","204870.656169","217980.438229"
"Blocked","Female","done","22","F_done.wav","None","721.72088665","138","213371.29244","205637.546716","206404.137368","207170.790781","207937.348043","208704.454081","209471.020618","210237.762145","214137.249604","214904.044617","215671.324408","216437.811179","217203.496892","217971.127591","218738.213841","219504.513874","218747.603628"
"Blocked","Female","done","22","F_tile.wav","None","721.335352398","138","213371.29244","220270.919334","206404.137368","207170.790781","207937.348043","208704.454081","209471.020618","210237.762145","214137.249604","214904.044617","215671.324408","216437.811179","217203.496892","217971.127591","218738.213841","219504.513874","219514.445634"
"Blocked","Female","done","22","F_jaw.wav","space","0.0392645597458","138","213371.29244","220270.919334","221037.108066","207170.790781","207937.348043","208704.454081","209471.020618","210237.762145","214137.249604","214904.044617","215671.324408","216437.811179","217203.496892","217971.127591","218738.213841","219504.513874","220280.507607"
"Blocked","Female","done","22","F_done.wav","None","721.442015842","138","213371.29244","220270.919334","221037.108066","221803.898751","207937.348043","208704.454081","209471.020618","210237.762145","214137.249604","214904.044617","215671.324408","216437.811179","217203.496892","217971.127591","218738.213841","219504.513874","221046.019258"
"Blocked","Female","done","22","F_gnash.wav","space","447.17283058","138","213371.29244","220270.919334","221037.108066","221803.898751","222553.594528","208704.454081","209471.020618","210237.762145","214137.249604","214904.044617","215671.324408","216437.811179","217203.496892","217971.127591","218738.213841","219504.513874","221812.777789"
"Blocked","Female","done","22","F_knife.wav","None","736.693655141","138","213371.29244","220270.919334","221037.108066","221803.898751","222553.594528","223320.43097","209471.020618","210237.762145","214137.249604","214904.044617","215671.324408","216437.811179","217203.496892","217971.127591","218738.213841","219504.513874","222562.317435"
"Blocked","Female","done","22","F_done.wav","None","735.589920077","138","213371.29244","220270.919334","221037.108066","221803.898751","222553.594528","223320.43097","224103.746145","210237.762145","214137.249604","214904.044617","215671.324408","216437.811179","217203.496892","217971.127591","218738.213841","219504.513874","223329.977505"
"Blocked","Female","done","22","F_greet.wav","space","435.281245271","138","213371.29244","220270.919334","221037.108066","221803.898751","222553.594528","223320.43097","224103.746145","224853.803341","214137.249604","214904.044617","215671.324408","216437.811179","217203.496892","217971.127591","218738.213841","219504.513874","224112.61498"
"Blocked","Female","tile","18","F_romp.wav","None","734.396835091","138","227987.602613","220270.919334","221037.108066","221803.898751","222553.594528","223320.43097","224103.746145","224853.803341","214137.249604","214904.044617","215671.324408","216437.811179","217203.496892","217971.127591","218738.213841","219504.513874","224862.930333"
"Blocked","Female","tile","18","F_tile.wav","None","722.180621698","138","227987.602613","220270.919334","221037.108066","221803.898751","222553.594528","223320.43097","224103.746145","224853.803341","228753.713744","214904.044617","215671.324408","216437.811179","217203.496892","217971.127591","218738.213841","219504.513874","227997.260759"
"Blocked","Female","tile","18","F_jaw.wav","space","393.136190367","138","227987.602613","220270.919334","221037.108066","221803.898751","222553.594528","223320.43097","224103.746145","224853.803341","228753.713744","229520.923662","215671.324408","216437.811179","217203.496892","217971.127591","218738.213841","219504.513874","228762.629264"
"Blocked","Female","tile","18","F_romp.wav","None","720.903133508","138","227987.602613","220270.919334","221037.108066","221803.898751","222553.594528","223320.43097","224103.746145","224853.803341","228753.713744","229520.923662","230288.012387","216437.811179","217203.496892","217971.127591","218738.213841","219504.513874","229530.384867"
"Blocked","Female","tile","18","F_tile.wav","None","720.162981772","138","227987.602613","220270.919334","221037.108066","221803.898751","222553.594528","223320.43097","224103.746145","224853.803341","228753.713744","229520.923662","230288.012387","231053.575978","217203.496892","217971.127591","218738.213841","219504.513874","230297.647962"
"Blocked","Female","tile","18","F_lash.wav","space","365.034540417","138","227987.602613","220270.919334","221037.108066","221803.898751","222553.594528","223320.43097","224103.746145","224853.803341","228753.713744","229520.923662","230288.012387","231053.575978","231820.080063","217971.127591","218738.213841","219504.513874","231062.634025"
"Blocked","Female","tile","18","F_cave.wav","None","720.721960184","138","227987.602613","220270.919334","221037.108066","221803.898751","222553.594528","223320.43097","224103.746145","224853.803341","228753.713744","229520.923662","230288.012387","231053.575978","231820.080063","232586.700395","218738.213841","219504.513874","231828.969303"
"Blocked","Female","tile","18","F_priest.wav","None","720.751331304","138","227987.602613","220270.919334","221037.108066","221803.898751","222553.594528","223320.43097","224103.746145","224853.803341","228753.713744","229520.923662","230288.012387","231053.575978","231820.080063","232586.700395","233353.511794","219504.513874","232595.567066"
"Blocked","Female","tile","18","F_tile.wav","None","726.325656869","138","227987.602613","220270.919334","221037.108066","221803.898751","222553.594528","223320.43097","224103.746145","224853.803341","228753.713744","229520.923662","230288.012387","231053.575978","231820.080063","232586.700395","233353.511794","234120.534356","233357.298811"
"Blocked","Female","tile","18","F_dime.wav","space","633.409409667","138","227987.602613","234870.366168","221037.108066","221803.898751","222553.594528","223320.43097","224103.746145","224853.803341","228753.713744","229520.923662","230288.012387","231053.575978","231820.080063","232586.700395","233353.511794","234120.534356","234130.162512"
"Blocked","Female","tile","18","F_reek.wav","None","735.348458751","138","227987.602613","234870.366168","235636.221306","221803.898751","222553.594528","223320.43097","224103.746145","224853.803341","228753.713744","229520.923662","230288.012387","231053.575978","231820.080063","232586.700395","233353.511794","234120.534356","234879.959697"
"Blocked","Female","tile","18","F_bluff.wav","None","736.648825463","138","227987.602613","234870.366168","235636.221306","236403.520575","222553.594528","223320.43097","224103.746145","224853.803341","228753.713744","229520.923662","230288.012387","231053.575978","231820.080063","232586.700395","233353.511794","234120.534356","235645.067881"
"Blocked","Female","tile","18","F_tile.wav","None","735.222317628","138","227987.602613","234870.366168","235636.221306","236403.520575","237169.519786","223320.43097","224103.746145","224853.803341","228753.713744","229520.923662","230288.012387","231053.575978","231820.080063","232586.700395","233353.511794","234120.534356","236412.645712"
"Blocked","Female","tile","18","F_dime.wav","space","320.95006539","138","227987.602613","234870.366168","235636.221306","236403.520575","237169.519786","237936.476495","224103.746145","224853.803341","228753.713744","229520.923662","230288.012387","231053.575978","231820.080063","232586.700395","233353.511794","234120.534356","237178.545679"
"Blocked","Female","tile","18","F_done.wav","None","734.216589248","138","227987.602613","234870.366168","235636.221306","236403.520575","237169.519786","237936.476495","238703.604174","224853.803341","228753.713744","229520.923662","230288.012387","231053.575978","231820.080063","232586.700395","233353.511794","234120.534356","237945.614307"
"Blocked","Female","tile","18","F_cad.wav","None","733.546309872","138","227987.602613","234870.366168","235636.221306","236403.520575","237169.519786","237936.476495","238703.604174","239469.703865","228753.713744","229520.923662","230288.012387","231053.575978","231820.080063","232586.700395","233353.511794","234120.534356","238713.003854"
"Blocked","Female","cave","10","F_knife.wav","None","734.462379012","138","242603.843224","234870.366168","235636.221306","236403.520575","237169.519786","237936.476495","238703.604174","239469.703865","228753.713744","229520.923662","230288.012387","231053.575978","231820.080063","232586.700395","233353.511794","234120.534356","239478.672871"
"Blocked","Female","cave","10","F_ball.wav","None","721.551152645","138","242603.843224","234870.366168","235636.221306","236403.520575","237169.519786","237936.476495","238703.604174","239469.703865","243370.405433","229520.923662","230288.012387","231053.575978","231820.080063","232586.700395","233353.511794","234120.534356","242613.529503"
"Blocked","Female","cave","10","F_park.wav","None","721.271045157","138","242603.843224","234870.366168","235636.221306","236403.520575","237169.519786","237936.476495","238703.604174","239469.703865","243370.405433","244137.26228","230288.012387","231053.575978","231820.080063","232586.700395","233353.511794","234120.534356","243380.496724"
"Blocked","Female","cave","10","F_done.wav","None","721.171801793","138","242603.843224","234870.366168","235636.221306","236403.520575","237169.519786","237936.476495","238703.604174","239469.703865","243370.405433","244137.26228","244903.822324","231053.575978","231820.080063","232586.700395","233353.511794","234120.534356","244146.688238"
"Blocked","Female","cave","10","F_jolt.wav","None","720.350029413","138","242603.843224","234870.366168","235636.221306","236403.520575","237169.519786","237936.476495","238703.604174","239469.703865","243370.405433","244137.26228","244903.822324","245669.970864","231820.080063","232586.700395","233353.511794","234120.534356","244914.057379"
"Blocked","Female","cave","10","F_cave.wav","None","721.88103653","138","242603.843224","234870.366168","235636.221306","236403.520575","237169.519786","237936.476495","238703.604174","239469.703865","243370.405433","244137.26228","244903.822324","245669.970864","246437.074737","232586.700395","233353.511794","234120.534356","245678.855467"
"Blocked","Female","cave","10","F_bluff.wav","space","452.783947461","138","242603.843224","234870.366168","235636.221306","236403.520575","237169.519786","237936.476495","238703.604174","239469.703865","243370.405433","244137.26228","244903.822324","245669.970864","246437.074737","247203.83296","233353.511794","234120.534356","246446.424331"
"Blocked","Female","cave","10","F_cave.wav","None","719.024001388","138","242603.843224","234870.366168","235636.221306","236403.520575","237169.519786","237936.476495","238703.604174","239469.703865","243370.405433","244137.26228","244903.822324","245669.970864","246437.074737","247203.83296","247953.444643","234120.534356","247213.353524"
"Blocked","Female","cave","10","F_reek.wav","space","567.874447443","138","242603.843224","234870.366168","235636.221306","236403.520575","237169.519786","237936.476495","238703.604174","239469.703865","243370.405433","244137.26228","244903.822324","245669.970864","246437.074737","247203.83296","247953.444643","248719.177349","247963.279324"
"Blocked","Female","cave","10","F_ball.wav","None","736.476927297","138","242603.843224","249485.905891","235636.221306","236403.520575","237169.519786","237936.476495","238703.604174","239469.703865","243370.405433","244137.26228","244903.822324","245669.970864","246437.074737","247203.83296","247953.444643","248719.177349","248728.049277"
"Blocked","Female","cave","10","F_cave.wav","None","736.212896649","138","242603.843224","249485.905891","250253.124158","236403.520575","237169.519786","237936.476495","238703.604174","239469.703865","243370.405433","244137.26228","244903.822324","245669.970864","246437.074737","247203.83296","247953.444643","248719.177349","249494.714439"
"Blocked","Female","cave","10","F_tile.wav","space","380.438291002","138","242603.843224","249485.905891","250253.124158","251019.775407","237169.519786","237936.476495","238703.604174","239469.703865","243370.405433","244137.26228","244903.822324","245669.970864","246437.074737","247203.83296","247953.444643","248719.177349","250262.675021"
"Blocked","Female","cave","10","F_jolt.wav","None","733.228174504","138","242603.843224","249485.905891","250253.124158","251019.775407","251785.946207","237936.476495","238703.604174","239469.703865","243370.405433","244137.26228","244903.822324","245669.970864","246437.074737","247203.83296","247953.444643","248719.177349","251029.578243"
"Blocked","Female","cave","10","F_park.wav","None","734.432698693","138","242603.843224","249485.905891","250253.124158","251019.775407","251785.946207","252553.064921","238703.604174","239469.703865","243370.405433","244137.26228","244903.822324","245669.970864","246437.074737","247203.83296","247953.444643","248719.177349","251795.011674"
"Blocked","Female","cave","10","F_cave.wav","None","733.403782826","138","242603.843224","249485.905891","250253.124158","251019.775407","251785.946207","252553.064921","253319.681234","239469.703865","243370.405433","244137.26228","244903.822324","245669.970864","246437.074737","247203.83296","247953.444643","248719.177349","252562.506029"
"Blocked","Female","cave","10","F_lash.wav","space","449.902488035","138","242603.843224","249485.905891","250253.124158","251019.775407","251785.946207","252553.064921","253319.681234","254086.560032","243370.405433","244137.26228","244903.822324","245669.970864","246437.074737","247203.83296","247953.444643","248719.177349","253329.073802"
"Blocked","Female","ball","5","F_greet.wav","None","731.068934896","138","257220.020455","249485.905891","250253.124158","251019.775407","251785.946207","252553.064921","253319.681234","254086.560032","243370.405433","244137.26228","244903.822324","245669.970864","246437.074737","247203.83296","247953.444643","248719.177349","254096.02711"
"Blocked","Female","ball","5","F_ball.wav","None","722.030056175","138","257220.020455","249485.905891","250253.124158","251019.775407","251785.946207","252553.064921","253319.681234","254086.560032","257986.93388","244137.26228","244903.822324","245669.970864","246437.074737","247203.83296","247953.444643","248719.177349","257229.668397"
"Blocked","Female","ball","5","F_park.wav","space","581.848907634","138","257220.020455","249485.905891","250253.124158","251019.775407","251785.946207","252553.064921","253319.681234","254086.560032","257986.93388","258753.431472","244903.822324","245669.970864","246437.074737","247203.83296","247953.444643","248719.177349","257997.041248"
"Blocked","Female","ball","5","F_ball.wav","None","720.388675458","138","257220.020455","249485.905891","250253.124158","251019.775407","251785.946207","252553.064921","253319.681234","254086.560032","257986.93388","258753.431472","259519.371941","245669.970864","246437.074737","247203.83296","247953.444643","248719.177349","258763.302635"
"Blocked","Female","ball","5","F_reek.wav","space","386.667746701","138","257220.020455","249485.905891","250253.124158","251019.775407","251785.946207","252553.064921","253319.681234","254086.560032","257986.93388","258753.431472","259519.371941","260287.114249","246437.074737","247203.83296","247953.444643","248719.177349","259528.1539"
"Blocked","Female","ball","5","F_gnash.wav","None","719.746839721","138","257220.020455","249485.905891","250253.124158","251019.775407","251785.946207","252553.064921","253319.681234","254086.560032","257986.93388","258753.431472","259519.371941","260287.114249","261053.221979","247203.83296","247953.444643","248719.177349","260296.180026"
"Blocked","Female","ball","5","F_romp.wav","None","719.444471993","138","257220.020455","249485.905891","250253.124158","251019.775407","251785.946207","252553.064921","253319.681234","254086.560032","257986.93388","258753.431472","259519.371941","260287.114249","261053.221979","261819.789443","247953.444643","248719.177349","261063.189912"
"Blocked","Female","ball","5","F_done.wav","None","719.476934755","138","257220.020455","249485.905891","250253.124158","251019.775407","251785.946207","252553.064921","253319.681234","254086.560032","257986.93388","258753.431472","259519.371941","260287.114249","261053.221979","261819.789443","262586.539627","248719.177349","261829.583005"
"Blocked","Female","ball","5","F_ball.wav","None","719.722415321","138","257220.020455","249485.905891","250253.124158","251019.775407","251785.946207","252553.064921","253319.681234","254086.560032","257986.93388","258753.431472","259519.371941","260287.114249","261053.221979","261819.789443","262586.539627","263353.207262","262595.943016"
"Blocked","Female","ball","5","F_jaw.wav","space","448.133420199","138","257220.020455","264102.696205","250253.124158","251019.775407","251785.946207","252553.064921","253319.681234","254086.560032","257986.93388","258753.431472","259519.371941","260287.114249","261053.221979","261819.789443","262586.539627","263353.207262","263362.560875"
"Blocked","Female","ball","5","F_dime.wav","None","736.509080976","138","257220.020455","264102.696205","264886.599111","251019.775407","251785.946207","252553.064921","253319.681234","254086.560032","257986.93388","258753.431472","259519.371941","260287.114249","261053.221979","261819.789443","262586.539627","263353.207262","264111.774658"
"Blocked","Female","ball","5","F_tile.wav","None","718.41060929","138","257220.020455","264102.696205","264886.599111","265653.149262","251785.946207","252553.064921","253319.681234","254086.560032","257986.93388","258753.431472","259519.371941","260287.114249","261053.221979","261819.789443","262586.539627","263353.207262","264896.484805"
"Blocked","Female","ball","5","F_ball.wav","None","718.735546339","138","257220.020455","264102.696205","264886.599111","265653.149262","266419.732494","252553.064921","253319.681234","254086.560032","257986.93388","258753.431472","259519.371941","260287.114249","261053.221979","261819.789443","262586.539627","263353.207262","265662.84729"
"Blocked","Female","ball","5","F_romp.wav","space","429.046533653","138","257220.020455","264102.696205","264886.599111","265653.149262","266419.732494","267168.831265","253319.681234","254086.560032","257986.93388","258753.431472","259519.371941","260287.114249","261053.221979","261819.789443","262586.539627","263353.207262","266429.594691"
"Blocked","Female","ball","5","F_gnash.wav","None","735.777276801","138","257220.020455","264102.696205","264886.599111","265653.149262","266419.732494","267168.831265","267935.755511","254086.560032","257986.93388","258753.431472","259519.371941","260287.114249","261053.221979","261819.789443","262586.539627","263353.207262","267177.698555"
"Blocked","Female","ball","5","F_reek.wav","None","735.051346943","138","257220.020455","264102.696205","264886.599111","265653.149262","266419.732494","267168.831265","267935.755511","268702.41078","257986.93388","258753.431472","259519.371941","260287.114249","261053.221979","261819.789443","262586.539627","263353.207262","267945.232174"
"Blocked","Female","cave","9","F_reek.wav","None","735.325580114","138","271836.33001","264102.696205","264886.599111","265653.149262","266419.732494","267168.831265","267935.755511","268702.41078","257986.93388","258753.431472","259519.371941","260287.114249","261053.221979","261819.789443","262586.539627","263353.207262","268711.736259"
"Blocked","Female","cave","9","F_cave.wav","None","722.282647737","138","271836.33001","264102.696205","264886.599111","265653.149262","266419.732494","267168.831265","267935.755511","268702.41078","272602.311598","258753.431472","259519.371941","260287.114249","261053.221979","261819.789443","262586.539627","263353.207262","271845.865106"
"Blocked","Female","cave","9","F_reek.wav","space","359.194638324","138","271836.33001","264102.696205","264886.599111","265653.149262","266419.732494","267168.831265","267935.755511","268702.41078","272602.311598","273368.872261","259519.371941","260287.114249","261053.221979","261819.789443","262586.539627","263353.207262","272611.252161"
"Blocked","Female","cave","9","F_cad.wav","None","722.257914138","138","271836.33001","264102.696205","264886.599111","265653.149262","266419.732494","267168.831265","267935.755511","268702.41078","272602.311598","273368.872261","274135.480845","260287.114249","261053.221979","261819.789443","262586.539627","263353.207262","273377.782216"
"Blocked","Female","cave","9","F_gnash.wav","None","722.472168505","138","271836.33001","264102.696205","264886.599111","265653.149262","266419.732494","267168.831265","267935.755511","268702.41078","272602.311598","273368.872261","274135.480845","274902.840093","261053.221979","261819.789443","262586.539627","263353.207262","274144.445523"
"Blocked","Female","cave","9","F_knife.wav","None","720.307982294","138","271836.33001","264102.696205","264886.599111","265653.149262","266419.732494","267168.831265","267935.755511","268702.41078","272602.311598","273368.872261","274135.480845","274902.840093","275669.180627","261819.789443","262586.539627","263353.207262","274912.915617"
"Blocked","Female","cave","9","F_cave.wav","None","721.565992804","138","271836.33001","264102.696205","264886.599111","265653.149262","266419.732494","267168.831265","267935.755511","268702.41078","272602.311598","273368.872261","274135.480845","274902.840093","275669.180627","276436.318818","262586.539627","263353.207262","275678.387075"
"Blocked","Female","cave","9","F_reek.wav","space","564.28127992","138","271836.33001","264102.696205","264886.599111","265653.149262","266419.732494","267168.831265","267935.755511","268702.41078","272602.311598","273368.872261","274135.480845","274902.840093","275669.180627","276436.318818","277202.529192","263353.207262","276446.040343"
"Blocked","Female","cave","9","F_tile.wav","None","720.11938889","138","271836.33001","264102.696205","264886.599111","265653.149262","266419.732494","267168.831265","267935.755511","268702.41078","272602.311598","273368.872261","274135.480845","274902.840093","275669.180627","276436.318818","277202.529192","277968.768318","277211.675352"
"Blocked","Female","cave","9","F_knife.wav","None","720.847792109","138","271836.33001","278736.246596","264886.599111","265653.149262","266419.732494","267168.831265","267935.755511","268702.41078","272602.311598","273368.872261","274135.480845","274902.840093","275669.180627","276436.318818","277202.529192","277968.768318","277977.691877"
"Blocked","Female","cave","9","F_cave.wav","None","718.84561074","138","271836.33001","278736.246596","279502.798293","265653.149262","266419.732494","267168.831265","267935.755511","268702.41078","272602.311598","273368.872261","274135.480845","274902.840093","275669.180627","276436.318818","277202.529192","277968.768318","278746.408378"
"Blocked","Female","cave","9","F_bluff.wav","space","417.815025081","138","271836.33001","278736.246596","279502.798293","280252.453878","266419.732494","267168.831265","267935.755511","268702.41078","272602.311598","273368.872261","274135.480845","274902.840093","275669.180627","276436.318818","277202.529192","277968.768318","279512.415319"
"Blocked","Female","cave","9","F_cling.wav","None","735.731210443","138","271836.33001","278736.246596","279502.798293","280252.453878","281035.36806","267168.831265","267935.755511","268702.41078","272602.311598","273368.872261","274135.480845","274902.840093","275669.180627","276436.318818","277202.529192","277968.768318","280261.93085"
"Blocked","Female","cave","9","F_cave.wav","None","719.884420047","138","271836.33001","278736.246596","279502.798293","280252.453878","281035.36806","281802.627446","267935.755511","268702.41078","272602.311598","273368.872261","274135.480845","274902.840093","275669.180627","276436.318818","277202.529192","277968.768318","281044.856162"
"Blocked","Female","cave","9","F_priest.wav","None","719.041933306","138","271836.33001","278736.246596","279502.798293","280252.453878","281035.36806","281802.627446","282568.660666","268702.41078","272602.311598","273368.872261","274135.480845","274902.840093","275669.180627","276436.318818","277202.529192","277968.768318","281812.376178"
"Blocked","Female","cave","9","F_jolt.wav","space","88.5634502629","138","271836.33001","278736.246596","279502.798293","280252.453878","281035.36806","281802.627446","282568.660666","283318.356752","272602.311598","273368.872261","274135.480845","274902.840093","275669.180627","276436.318818","277202.529192","277968.768318","282577.588243"
"Blocked","Female","cave","8","F_bluff.wav","None","736.306265695","138","286452.538158","278736.246596","279502.798293","280252.453878","281035.36806","281802.627446","282568.660666","283318.356752","272602.311598","273368.872261","274135.480845","274902.840093","275669.180627","276436.318818","277202.529192","277968.768318","283327.237336"
"Blocked","Female","cave","8","F_priest.wav","None","721.129445592","138","286452.538158","278736.246596","279502.798293","280252.453878","281035.36806","281802.627446","282568.660666","283318.356752","287218.532422","273368.872261","274135.480845","274902.840093","275669.180627","276436.318818","277202.529192","277968.768318","286462.676443"
"Blocked","Female","cave","8","F_jaw.wav","None","723.087415914","138","286452.538158","278736.246596","279502.798293","280252.453878","281035.36806","281802.627446","282568.660666","283318.356752","287218.532422","287985.179343","274135.480845","274902.840093","275669.180627","276436.318818","277202.529192","277968.768318","287227.500192"
"Blocked","Female","cave","8","F_depth.wav","None","723.275081604","138","286452.538158","278736.246596","279502.798293","280252.453878","281035.36806","281802.627446","282568.660666","283318.356752","287218.532422","287985.179343","288752.457279","274902.840093","275669.180627","276436.318818","277202.529192","277968.768318","287994.185759"
"Blocked","Female","cave","8","F_cave.wav","None","721.93019453","138","286452.538158","278736.246596","279502.798293","280252.453878","281035.36806","281802.627446","282568.660666","283318.356752","287218.532422","287985.179343","288752.457279","289519.019488","275669.180627","276436.318818","277202.529192","277968.768318","288762.108622"
"Blocked","Female","cave","8","F_ball.wav","space","376.842031721","138","286452.538158","278736.246596","279502.798293","280252.453878","281035.36806","281802.627446","282568.660666","283318.356752","287218.532422","287985.179343","288752.457279","289519.019488","290285.906015","276436.318818","277202.529192","277968.768318","289529.113871"
"Blocked","Female","cave","8","F_cave.wav","None","720.51636246","138","286452.538158","278736.246596","279502.798293","280252.453878","281035.36806","281802.627446","282568.660666","283318.356752","287218.532422","287985.179343","288752.457279","289519.019488","290285.906015","291052.462658","277202.529192","277968.768318","290295.518094"
"Blocked","Female","cave","8","F_greet.wav","space","355.325382319","138","286452.538158","278736.246596","279502.798293","280252.453878","281035.36806","281802.627446","282568.660666","283318.356752","287218.532422","287985.179343","288752.457279","289519.019488","290285.906015","291052.462658","291818.946029","277968.768318","291062.556114"
"Blocked","Female","cave","8","F_cave.wav","None","719.577723998","138","286452.538158","278736.246596","279502.798293","280252.453878","281035.36806","281802.627446","282568.660666","283318.356752","287218.532422","287985.179343","288752.457279","289519.019488","290285.906015","291052.462658","291818.946029","292585.319026","291828.584387"
"Blocked","Female","cave","8","F_bluff.wav","space","406.658644672","138","286452.538158","293352.354882","279502.798293","280252.453878","281035.36806","281802.627446","282568.660666","283318.356752","287218.532422","287985.179343","288752.457279","289519.019488","290285.906015","291052.462658","291818.946029","292585.319026","292595.166074"
"Blocked","Female","cave","8","F_jolt.wav","None","718.81994966","138","286452.538158","293352.354882","294118.834542","280252.453878","281035.36806","281802.627446","282568.660666","283318.356752","287218.532422","287985.179343","288752.457279","289519.019488","290285.906015","291052.462658","291818.946029","292585.319026","293362.002825"
"Blocked","Female","cave","8","F_done.wav","None","719.403352356","138","286452.538158","293352.354882","294118.834542","294885.840718","281035.36806","281802.627446","282568.660666","283318.356752","287218.532422","287985.179343","288752.457279","289519.019488","290285.906015","291052.462658","291818.946029","292585.319026","294128.15693"
"Blocked","Female","cave","8","F_cave.wav","None","719.160035951","138","286452.538158","293352.354882","294118.834542","294885.840718","295652.188982","281802.627446","282568.660666","283318.356752","287218.532422","287985.179343","288752.457279","289519.019488","290285.906015","291052.462658","291818.946029","292585.319026","294895.293884"
"Blocked","Female","cave","8","F_cad.wav","space","299.407754908","138","286452.538158","293352.354882","294118.834542","294885.840718","295652.188982","296401.154191","282568.660666","283318.356752","287218.532422","287985.179343","288752.457279","289519.019488","290285.906015","291052.462658","291818.946029","292585.319026","295662.330668"
"Blocked","Female","cave","8","F_depth.wav","None","736.262054532","138","286452.538158","293352.354882","294118.834542","294885.840718","295652.188982","296401.154191","297167.778543","283318.356752","287218.532422","287985.179343","288752.457279","289519.019488","290285.906015","291052.462658","291818.946029","292585.319026","296410.157206"
"Blocked","Female","cave","8","F_tile.wav","None","736.463323818","138","286452.538158","293352.354882","294118.834542","294885.840718","295652.188982","296401.154191","297167.778543","297934.567373","287218.532422","287985.179343","288752.457279","289519.019488","290285.906015","291052.462658","291818.946029","292585.319026","297176.810002"
"Blocked","Female","done","19","F_ball.wav","None","736.330999294","138","301068.82638","293352.354882","294118.834542","294885.840718","295652.188982","296401.154191","297167.778543","297934.567373","287218.532422","287985.179343","288752.457279","289519.019488","290285.906015","291052.462658","291818.946029","292585.319026","297943.705495"
"Blocked","Female","done","19","F_jolt.wav","None","721.561355283","138","301068.82638","293352.354882","294118.834542","294885.840718","295652.188982","296401.154191","297167.778543","297934.567373","301835.52215","287985.179343","288752.457279","289519.019488","290285.906015","291052.462658","291818.946029","292585.319026","301078.761541"
"Blocked","Female","done","19","F_done.wav","None","721.765097929","138","301068.82638","293352.354882","294118.834542","294885.840718","295652.188982","296401.154191","297167.778543","297934.567373","301835.52215","302601.484261","288752.457279","289519.019488","290285.906015","291052.462658","291818.946029","292585.319026","301844.884111"
"Blocked","Female","done","19","F_tile.wav","space","495.166444452","138","301068.82638","293352.354882","294118.834542","294885.840718","295652.188982","296401.154191","297167.778543","297934.567373","301835.52215","302601.484261","303367.93455","289519.019488","290285.906015","291052.462658","291818.946029","292585.319026","302610.382158"
"Blocked","Female","done","19","F_cling.wav","None","722.081996617","138","301068.82638","293352.354882","294118.834542","294885.840718","295652.188982","296401.154191","297167.778543","297934.567373","301835.52215","302601.484261","303367.93455","304135.32997","290285.906015","291052.462658","291818.946029","292585.319026","303376.928908"
"Blocked","Female","done","19","F_reek.wav","None","720.582215581","138","301068.82638","293352.354882","294118.834542","294885.840718","295652.188982","296401.154191","297167.778543","297934.567373","301835.52215","302601.484261","303367.93455","304135.32997","304901.899599","291052.462658","291818.946029","292585.319026","304144.968947"
"Blocked","Female","done","19","F_park.wav","None","720.5874715","138","301068.82638","293352.354882","294118.834542","294885.840718","295652.188982","296401.154191","297167.778543","297934.567373","301835.52215","302601.484261","303367.93455","304135.32997","304901.899599","305668.562288","291818.946029","292585.319026","304911.959355"
"Blocked","Female","done","19","F_done.wav","None","720.499667339","138","301068.82638","293352.354882","294118.834542","294885.840718","295652.188982","296401.154191","297167.778543","297934.567373","301835.52215","302601.484261","303367.93455","304135.32997","304901.899599","305668.562288","306435.232706","292585.319026","305678.375945"
"Blocked","Female","done","19","F_tile.wav","space","316.325817723","138","301068.82638","293352.354882","294118.834542","294885.840718","295652.188982","296401.154191","297167.778543","297934.567373","301835.52215","302601.484261","303367.93455","304135.32997","304901.899599","305668.562288","306435.232706","307201.344145","306445.089956"
"Blocked","Female","done","19","F_done.wav","None","720.451127738","138","301068.82638","307967.916866","294118.834542","294885.840718","295652.188982","296401.154191","297167.778543","297934.567373","301835.52215","302601.484261","303367.93455","304135.32997","304901.899599","305668.562288","306435.232706","307201.344145","307210.435892"
"Blocked","Female","done","19","F_jolt.wav","space","560.236724908","138","301068.82638","307967.916866","308718.055992","294885.840718","295652.188982","296401.154191","297167.778543","297934.567373","301835.52215","302601.484261","303367.93455","304135.32997","304901.899599","305668.562288","306435.232706","307201.344145","307977.09889"
"Blocked","Female","done","19","F_knife.wav","None","735.528086196","138","301068.82638","307967.916866","308718.055992","309484.550183","295652.188982","296401.154191","297167.778543","297934.567373","301835.52215","302601.484261","303367.93455","304135.32997","304901.899599","305668.562288","306435.232706","307201.344145","308727.519979"
"Blocked","Female","done","19","F_romp.wav","None","736.029868247","138","301068.82638","307967.916866","308718.055992","309484.550183","310251.943748","296401.154191","297167.778543","297934.567373","301835.52215","302601.484261","303367.93455","304135.32997","304901.899599","305668.562288","306435.232706","307201.344145","309493.905651"
"Blocked","Female","done","19","F_romp.wav","None","735.432243673","138","301068.82638","307967.916866","308718.055992","309484.550183","310251.943748","311034.419219","297167.778543","297934.567373","301835.52215","302601.484261","303367.93455","304135.32997","304901.899599","305668.562288","306435.232706","307201.344145","310261.434942"
"Blocked","Female","done","19","F_done.wav","None","720.5200725","138","301068.82638","307967.916866","308718.055992","309484.550183","310251.943748","311034.419219","311801.981282","297934.567373","301835.52215","302601.484261","303367.93455","304135.32997","304901.899599","305668.562288","306435.232706","307201.344145","311043.327319"
"Blocked","Female","done","19","F_ball.wav","space","413.497164263","138","301068.82638","307967.916866","308718.055992","309484.550183","310251.943748","311034.419219","311801.981282","312551.342847","301835.52215","302601.484261","303367.93455","304135.32997","304901.899599","305668.562288","306435.232706","307201.344145","311811.723212"
"Blocked","Female","ball","2","F_dime.wav","None","735.623619519","138","315684.960637","307967.916866","308718.055992","309484.550183","310251.943748","311034.419219","311801.981282","312551.342847","301835.52215","302601.484261","303367.93455","304135.32997","304901.899599","305668.562288","306435.232706","307201.344145","312560.671726"
"Blocked","Female","ball","2","F_priest.wav","None","721.160053392","138","315684.960637","307967.916866","308718.055992","309484.550183","310251.943748","311034.419219","311801.981282","312551.342847","316451.673411","302601.484261","303367.93455","304135.32997","304901.899599","305668.562288","306435.232706","307201.344145","315694.656191"
"Blocked","Female","ball","2","F_dime.wav","None","721.583924606","138","315684.960637","307967.916866","308718.055992","309484.550183","310251.943748","311034.419219","311801.981282","312551.342847","316451.673411","317218.228508","303367.93455","304135.32997","304901.899599","305668.562288","306435.232706","307201.344145","316461.347633"
"Blocked","Female","ball","2","F_gnash.wav","None","721.852592891","138","315684.960637","307967.916866","308718.055992","309484.550183","310251.943748","311034.419219","311801.981282","312551.342847","316451.673411","317218.228508","317984.946848","304135.32997","304901.899599","305668.562288","306435.232706","307201.344145","317228.079575"
"Blocked","Female","ball","2","F_ball.wav","None","722.046133014","138","315684.960637","307967.916866","308718.055992","309484.550183","310251.943748","311034.419219","311801.981282","312551.342847","316451.673411","317218.228508","317984.946848","318751.553886","304901.899599","305668.562288","306435.232706","307201.344145","317994.589534"
