"Condition","Talker","Target","Trial","current_stimulus","response_response","response_time_response","subject_nr","time_Audio1","time_Audio10","time_Audio11","time_Audio12","time_Audio13","time_Audio14","time_Audio15","time_Audio16","time_Audio2","time_Audio3","time_Audio4","time_Audio5","time_Audio6","time_Audio7","time_Audio8","time_Audio9","time_response","title"
"Mixed","Both","tile","30","F_knife.wav","NA","NA","128","46315.1151995","NA","NA","NA","NA","NA","NA","NA","NA","NA","NA","NA","NA","NA","NA","NA","NA","Mapping"
"Mixed","Both","tile","30","F_tile.wav","None","719.917215756","128","46315.1151995","NA","NA","NA","NA","NA","NA","NA","47081.4628098","NA","NA","NA","NA","NA","NA","NA","46329.9725177","Mapping"
"Mixed","Both","tile","30","F_cad.wav","space","533.141975757","128","46315.1151995","NA","NA","NA","NA","NA","NA","NA","47081.4628098","47848.4374232","NA","NA","NA","NA","NA","NA","47090.4313059","Mapping"
"Mixed","Both","tile","30","M_tile.wav","None","725.807892741","128","46315.1151995","NA","NA","NA","NA","NA","NA","NA","47081.4628098","47848.4374232","48614.6403404","NA","NA","NA","NA","NA","47857.8811187","Mapping"
"Mixed","Both","tile","30","F_bluff.wav","space","591.732152156","128","46315.1151995","NA","NA","NA","NA","NA","NA","NA","47081.4628098","47848.4374232","48614.6403404","49381.2359076","NA","NA","NA","NA","48623.7507471","Mapping"
"Mixed","Both","tile","30","F_gnash.wav","None","727.559049847","128","46315.1151995","NA","NA","NA","NA","NA","NA","NA","47081.4628098","47848.4374232","48614.6403404","49381.2359076","50148.5082548","NA","NA","NA","49390.4591624","Mapping"
"Mixed","Both","tile","30","M_tile.wav","None","727.055097464","128","46315.1151995","NA","NA","NA","NA","NA","NA","NA","47081.4628098","47848.4374232","48614.6403404","49381.2359076","50148.5082548","50915.0283837","NA","NA","50158.0379003","Mapping"
"Mixed","Both","tile","30","M_cling.wav","space","386.927167769","128","46315.1151995","NA","NA","NA","NA","NA","NA","NA","47081.4628098","47848.4374232","48614.6403404","49381.2359076","50148.5082548","50915.0283837","51681.4607073","NA","50924.5200009","Mapping"
"Mixed","Both","tile","30","M_cad.wav","None","728.752458352","128","46315.1151995","NA","NA","NA","NA","NA","NA","NA","47081.4628098","47848.4374232","48614.6403404","49381.2359076","50148.5082548","50915.0283837","51681.4607073","52448.3506074","51691.0113767","Mapping"
"Mixed","Both","tile","30","M_ball.wav","None","730.05500494","128","46315.1151995","53214.9603965","NA","NA","NA","NA","NA","NA","47081.4628098","47848.4374232","48614.6403404","49381.2359076","50148.5082548","50915.0283837","51681.4607073","52448.3506074","52457.4399904","Mapping"
"Mixed","Both","tile","30","F_tile.wav","None","729.990387801","128","46315.1151995","53214.9603965","53981.4168357","NA","NA","NA","NA","NA","47081.4628098","47848.4374232","48614.6403404","49381.2359076","50148.5082548","50915.0283837","51681.4607073","52448.3506074","53224.6375177","Mapping"
"Mixed","Both","tile","30","M_cad.wav","space","400.931167882","128","46315.1151995","53214.9603965","53981.4168357","54748.3719713","NA","NA","NA","NA","47081.4628098","47848.4374232","48614.6403404","49381.2359076","50148.5082548","50915.0283837","51681.4607073","52448.3506074","53990.4530408","Mapping"
"Mixed","Both","tile","30","F_priest.wav","None","725.268694689","128","46315.1151995","53214.9603965","53981.4168357","54748.3719713","55514.9016845","NA","NA","NA","47081.4628098","47848.4374232","48614.6403404","49381.2359076","50148.5082548","50915.0283837","51681.4607073","52448.3506074","54757.837618","Mapping"
"Mixed","Both","tile","30","F_greet.wav","None","726.116756792","128","46315.1151995","53214.9603965","53981.4168357","54748.3719713","55514.9016845","56281.4252143","NA","NA","47081.4628098","47848.4374232","48614.6403404","49381.2359076","50148.5082548","50915.0283837","51681.4607073","52448.3506074","55524.3725871","Mapping"
"Mixed","Both","tile","30","M_cad.wav","None","727.243383881","128","46315.1151995","53214.9603965","53981.4168357","54748.3719713","55514.9016845","56281.4252143","57048.6283068","NA","47081.4628098","47848.4374232","48614.6403404","49381.2359076","50148.5082548","50915.0283837","51681.4607073","52448.3506074","56290.4413232","Mapping"
"Mixed","Both","tile","30","M_cave.wav","None","723.840623628","128","46315.1151995","53214.9603965","53981.4168357","54748.3719713","55514.9016845","56281.4252143","57048.6283068","57814.8673972","47081.4628098","47848.4374232","48614.6403404","49381.2359076","50148.5082548","50915.0283837","51681.4607073","52448.3506074","57058.2952253","Mapping"
"Mixed","Both","tile","29","F_done.wav","None","724.69301417","128","60981.6431504","53214.9603965","53981.4168357","54748.3719713","55514.9016845","56281.4252143","57048.6283068","57814.8673972","47081.4628098","47848.4374232","48614.6403404","49381.2359076","50148.5082548","50915.0283837","51681.4607073","52448.3506074","57824.6833371","Mapping"
"Mixed","Both","tile","29","F_cad.wav","None","723.985626013","128","60981.6431504","53214.9603965","53981.4168357","54748.3719713","55514.9016845","56281.4252143","57048.6283068","57814.8673972","61747.9177959","47848.4374232","48614.6403404","49381.2359076","50148.5082548","50915.0283837","51681.4607073","52448.3506074","60991.2519443","Mapping"
"Mixed","Both","tile","29","M_knife.wav","None","722.606404219","128","60981.6431504","53214.9603965","53981.4168357","54748.3719713","55514.9016845","56281.4252143","57048.6283068","57814.8673972","61747.9177959","62515.0810049","48614.6403404","49381.2359076","50148.5082548","50915.0283837","51681.4607073","52448.3506074","61756.921847","Mapping"
"Mixed","Both","tile","29","F_tile.wav","None","722.723890096","128","60981.6431504","53214.9603965","53981.4168357","54748.3719713","55514.9016845","56281.4252143","57048.6283068","57814.8673972","61747.9177959","62515.0810049","63282.3484055","49381.2359076","50148.5082548","50915.0283837","51681.4607073","52448.3506074","62524.9052926","Mapping"
"Mixed","Both","tile","29","F_knife.wav","space","434.659799677","128","60981.6431504","53214.9603965","53981.4168357","54748.3719713","55514.9016845","56281.4252143","57048.6283068","57814.8673972","61747.9177959","62515.0810049","63282.3484055","64030.8771275","50148.5082548","50915.0283837","51681.4607073","52448.3506074","63292.5647247","Mapping"
"Mixed","Both","tile","29","M_cave.wav","None","735.878282227","128","60981.6431504","53214.9603965","53981.4168357","54748.3719713","55514.9016845","56281.4252143","57048.6283068","57814.8673972","61747.9177959","62515.0810049","63282.3484055","64030.8771275","64798.1179391","50915.0283837","51681.4607073","52448.3506074","64039.9751673","Mapping"
"Mixed","Both","tile","29","M_gnash.wav","None","732.709875214","128","60981.6431504","53214.9603965","53981.4168357","54748.3719713","55514.9016845","56281.4252143","57048.6283068","57814.8673972","61747.9177959","62515.0810049","63282.3484055","64030.8771275","64798.1179391","65564.7404044","51681.4607073","52448.3506074","64807.505365","Mapping"
"Mixed","Both","tile","29","M_tile.wav","None","733.492701896","128","60981.6431504","53214.9603965","53981.4168357","54748.3719713","55514.9016845","56281.4252143","57048.6283068","57814.8673972","61747.9177959","62515.0810049","63282.3484055","64030.8771275","64798.1179391","65564.7404044","66331.4435637","52448.3506074","65574.1868822","Mapping"
"Mixed","Both","tile","29","F_jaw.wav","space","434.419572121","128","60981.6431504","53214.9603965","53981.4168357","54748.3719713","55514.9016845","56281.4252143","57048.6283068","57814.8673972","61747.9177959","62515.0810049","63282.3484055","64030.8771275","64798.1179391","65564.7404044","66331.4435637","67097.812816","66340.7787393","Mapping"
"Mixed","Both","tile","29","M_jolt.wav","None","732.389571844","128","60981.6431504","67864.2092757","53981.4168357","54748.3719713","55514.9016845","56281.4252143","57048.6283068","57814.8673972","61747.9177959","62515.0810049","63282.3484055","64030.8771275","64798.1179391","65564.7404044","66331.4435637","67097.812816","67106.675575","Mapping"
"Mixed","Both","tile","29","F_park.wav","None","733.101906953","128","60981.6431504","67864.2092757","68631.1399866","54748.3719713","55514.9016845","56281.4252143","57048.6283068","57814.8673972","61747.9177959","62515.0810049","63282.3484055","64030.8771275","64798.1179391","65564.7404044","66331.4435637","67097.812816","67873.0779089","Mapping"
"Mixed","Both","tile","29","M_tile.wav","None","733.764465083","128","60981.6431504","67864.2092757","68631.1399866","69397.3605266","55514.9016845","56281.4252143","57048.6283068","57814.8673972","61747.9177959","62515.0810049","63282.3484055","64030.8771275","64798.1179391","65564.7404044","66331.4435637","67097.812816","68640.2522483","Mapping"
"Mixed","Both","tile","29","F_dime.wav","space","312.087775441","128","60981.6431504","67864.2092757","68631.1399866","69397.3605266","70164.6146326","56281.4252143","57048.6283068","57814.8673972","61747.9177959","62515.0810049","63282.3484055","64030.8771275","64798.1179391","65564.7404044","66331.4435637","67097.812816","69407.0224983","Mapping"
"Mixed","Both","tile","29","M_romp.wav","None","731.016842881","128","60981.6431504","67864.2092757","68631.1399866","69397.3605266","70164.6146326","70931.1375441","57048.6283068","57814.8673972","61747.9177959","62515.0810049","63282.3484055","64030.8771275","64798.1179391","65564.7404044","66331.4435637","67097.812816","70174.3143235","Mapping"
"Mixed","Both","tile","29","F_tile.wav","None","732.549414388","128","60981.6431504","67864.2092757","68631.1399866","69397.3605266","70164.6146326","70931.1375441","71698.0330092","57814.8673972","61747.9177959","62515.0810049","63282.3484055","64030.8771275","64798.1179391","65564.7404044","66331.4435637","67097.812816","70940.0986201","Mapping"
"Mixed","Both","tile","29","M_cling.wav","space","659.609582275","128","60981.6431504","67864.2092757","68631.1399866","69397.3605266","70164.6146326","70931.1375441","71698.0330092","72464.5509738","61747.9177959","62515.0810049","63282.3484055","64030.8771275","64798.1179391","65564.7404044","66331.4435637","67097.812816","71707.4847431","Mapping"
"Mixed","Both","tile","36","F_cad.wav","None","726.519609452","128","75598.3002277","67864.2092757","68631.1399866","69397.3605266","70164.6146326","70931.1375441","71698.0330092","72464.5509738","61747.9177959","62515.0810049","63282.3484055","64030.8771275","64798.1179391","65564.7404044","66331.4435637","67097.812816","72474.5202637","Mapping"
"Mixed","Both","tile","36","M_bluff.wav","None","720.086951857","128","75598.3002277","67864.2092757","68631.1399866","69397.3605266","70164.6146326","70931.1375441","71698.0330092","72464.5509738","76364.7733622","62515.0810049","63282.3484055","64030.8771275","64798.1179391","65564.7404044","66331.4435637","67097.812816","75608.0054835","Mapping"
"Mixed","Both","tile","36","F_tile.wav","None","720.359642641","128","75598.3002277","67864.2092757","68631.1399866","69397.3605266","70164.6146326","70931.1375441","71698.0330092","72464.5509738","76364.7733622","77114.6299831","63282.3484055","64030.8771275","64798.1179391","65564.7404044","66331.4435637","67097.812816","76374.9884447","Mapping"
"Mixed","Both","tile","36","F_knife.wav","space","443.069310742","128","75598.3002277","67864.2092757","68631.1399866","69397.3605266","70164.6146326","70931.1375441","71698.0330092","72464.5509738","76364.7733622","77114.6299831","77881.0817847","64030.8771275","64798.1179391","65564.7404044","66331.4435637","67097.812816","77123.8535471","Mapping"
"Mixed","Both","tile","36","M_park.wav","None","732.98071092","128","75598.3002277","67864.2092757","68631.1399866","69397.3605266","70164.6146326","70931.1375441","71698.0330092","72464.5509738","76364.7733622","77114.6299831","77881.0817847","78647.5536826","64798.1179391","65564.7404044","66331.4435637","67097.812816","77890.8603147","Mapping"
"Mixed","Both","tile","36","F_bluff.wav","None","734.585010796","128","75598.3002277","67864.2092757","68631.1399866","69397.3605266","70164.6146326","70931.1375441","71698.0330092","72464.5509738","76364.7733622","77114.6299831","77881.0817847","78647.5536826","79414.4673889","65564.7404044","66331.4435637","67097.812816","78656.931524","Mapping"
"Mixed","Both","tile","36","F_depth.wav","None","732.512004441","128","75598.3002277","67864.2092757","68631.1399866","69397.3605266","70164.6146326","70931.1375441","71698.0330092","72464.5509738","76364.7733622","77114.6299831","77881.0817847","78647.5536826","79414.4673889","80180.9841169","66331.4435637","67097.812816","79424.0097106","Mapping"
"Mixed","Both","tile","36","M_knife.wav","None","733.644814929","128","75598.3002277","67864.2092757","68631.1399866","69397.3605266","70164.6146326","70931.1375441","71698.0330092","72464.5509738","76364.7733622","77114.6299831","77881.0817847","78647.5536826","79414.4673889","80180.9841169","80947.8523748","67097.812816","80190.2964137","Mapping"
"Mixed","Both","tile","36","M_dime.wav","None","730.97015766","128","75598.3002277","67864.2092757","68631.1399866","69397.3605266","70164.6146326","70931.1375441","71698.0330092","72464.5509738","76364.7733622","77114.6299831","77881.0817847","78647.5536826","79414.4673889","80180.9841169","80947.8523748","81714.4024934","80957.3480113","Mapping"
"Mixed","Both","tile","36","F_tile.wav","None","731.828113319","128","75598.3002277","82480.9284967","68631.1399866","69397.3605266","70164.6146326","70931.1375441","71698.0330092","72464.5509738","76364.7733622","77114.6299831","77881.0817847","78647.5536826","79414.4673889","80180.9841169","80947.8523748","81714.4024934","81723.9234821","Mapping"
"Mixed","Both","tile","36","M_cad.wav","space","453.026852105","128","75598.3002277","82480.9284967","83247.7633639","69397.3605266","70164.6146326","70931.1375441","71698.0330092","72464.5509738","76364.7733622","77114.6299831","77881.0817847","78647.5536826","79414.4673889","80180.9841169","80947.8523748","81714.4024934","82489.8951377","Mapping"
"Mixed","Both","tile","36","F_cad.wav","None","727.030054433","128","75598.3002277","82480.9284967","83247.7633639","84014.4158188","70164.6146326","70931.1375441","71698.0330092","72464.5509738","76364.7733622","77114.6299831","77881.0817847","78647.5536826","79414.4673889","80180.9841169","80947.8523748","81714.4024934","83257.158519","Mapping"
"Mixed","Both","tile","36","M_tile.wav","None","724.482158083","128","75598.3002277","82480.9284967","83247.7633639","84014.4158188","84781.3106657","70931.1375441","71698.0330092","72464.5509738","76364.7733622","77114.6299831","77881.0817847","78647.5536826","79414.4673889","80180.9841169","80947.8523748","81714.4024934","84024.1359151","Mapping"
"Mixed","Both","tile","36","F_ball.wav","space","431.491083698","128","75598.3002277","82480.9284967","83247.7633639","84014.4158188","84781.3106657","85548.1007027","71698.0330092","72464.5509738","76364.7733622","77114.6299831","77881.0817847","78647.5536826","79414.4673889","80180.9841169","80947.8523748","81714.4024934","84791.345191","Mapping"
"Mixed","Both","tile","36","M_tile.wav","None","722.204788355","128","75598.3002277","82480.9284967","83247.7633639","84014.4158188","84781.3106657","85548.1007027","86314.6687534","72464.5509738","76364.7733622","77114.6299831","77881.0817847","78647.5536826","79414.4673889","80180.9841169","80947.8523748","81714.4024934","85557.8841794","Mapping"
"Mixed","Both","tile","36","M_priest.wav","space","442.319875001","128","75598.3002277","82480.9284967","83247.7633639","84014.4158188","84781.3106657","85548.1007027","86314.6687534","87081.2578279","76364.7733622","77114.6299831","77881.0817847","78647.5536826","79414.4673889","80180.9841169","80947.8523748","81714.4024934","86324.4661429","Mapping"
"Mixed","Both","done","48","M_gnash.wav","None","719.925254234","128","90198.0340914","82480.9284967","83247.7633639","84014.4158188","84781.3106657","85548.1007027","86314.6687534","87081.2578279","76364.7733622","77114.6299831","77881.0817847","78647.5536826","79414.4673889","80180.9841169","80947.8523748","81714.4024934","87091.4633261","Mapping"
"Mixed","Both","done","48","F_done.wav","None","720.025735558","128","90198.0340914","82480.9284967","83247.7633639","84014.4158188","84781.3106657","85548.1007027","86314.6687534","87081.2578279","90947.4396285","77114.6299831","77881.0817847","78647.5536826","79414.4673889","80180.9841169","80947.8523748","81714.4024934","90207.7421298","Mapping"
"Mixed","Both","done","48","M_greet.wav","space","497.958683991","128","90198.0340914","82480.9284967","83247.7633639","84014.4158188","84781.3106657","85548.1007027","86314.6687534","87081.2578279","90947.4396285","91714.0729148","77881.0817847","78647.5536826","79414.4673889","80180.9841169","80947.8523748","81714.4024934","90956.7429593","Mapping"
"Mixed","Both","done","48","F_dime.wav","None","735.464917612","128","90198.0340914","82480.9284967","83247.7633639","84014.4158188","84781.3106657","85548.1007027","86314.6687534","87081.2578279","90947.4396285","91714.0729148","92480.5355375","78647.5536826","79414.4673889","80180.9841169","80947.8523748","81714.4024934","91723.6987132","Mapping"
"Mixed","Both","done","48","F_done.wav","space","389.374891878","128","90198.0340914","82480.9284967","83247.7633639","84014.4158188","84781.3106657","85548.1007027","86314.6687534","87081.2578279","90947.4396285","91714.0729148","92480.5355375","93247.30486","79414.4673889","80180.9841169","80947.8523748","81714.4024934","92489.3210032","Mapping"
"Mixed","Both","done","48","F_cling.wav","None","730.868130573","128","90198.0340914","82480.9284967","83247.7633639","84014.4158188","84781.3106657","85548.1007027","86314.6687534","87081.2578279","90947.4396285","91714.0729148","92480.5355375","93247.30486","94013.9029005","80180.9841169","80947.8523748","81714.4024934","93256.5315157","Mapping"
"Mixed","Both","done","48","M_reek.wav","space","39.4174187677","128","90198.0340914","82480.9284967","83247.7633639","84014.4158188","84781.3106657","85548.1007027","86314.6687534","87081.2578279","90947.4396285","91714.0729148","92480.5355375","93247.30486","94013.9029005","94780.690155","80947.8523748","81714.4024934","94023.2377669","Mapping"
"Mixed","Both","done","48","M_jolt.wav","None","732.375349849","128","90198.0340914","82480.9284967","83247.7633639","84014.4158188","84781.3106657","85548.1007027","86314.6687534","87081.2578279","90947.4396285","91714.0729148","92480.5355375","93247.30486","94013.9029005","94780.690155","95547.5751082","81714.4024934","94790.1987768","Mapping"
"Mixed","Both","done","48","F_ball.wav","None","730.237417272","128","90198.0340914","82480.9284967","83247.7633639","84014.4158188","84781.3106657","85548.1007027","86314.6687534","87081.2578279","90947.4396285","91714.0729148","92480.5355375","93247.30486","94013.9029005","94780.690155","95547.5751082","96314.1941726","95556.7652816","Mapping"
"Mixed","Both","done","48","M_priest.wav","None","727.532770135","128","90198.0340914","97080.5025178","83247.7633639","84014.4158188","84781.3106657","85548.1007027","86314.6687534","87081.2578279","90947.4396285","91714.0729148","92480.5355375","93247.30486","94013.9029005","94780.690155","95547.5751082","96314.1941726","96323.7711216","Mapping"
"Mixed","Both","done","48","M_dime.wav","None","726.174881333","128","90198.0340914","97080.5025178","97847.8870949","84014.4158188","84781.3106657","85548.1007027","86314.6687534","87081.2578279","90947.4396285","91714.0729148","92480.5355375","93247.30486","94013.9029005","94780.690155","95547.5751082","96314.1941726","97089.6055043","Mapping"
"Mixed","Both","done","48","M_done.wav","None","722.285791649","128","90198.0340914","97080.5025178","97847.8870949","98614.3750699","84781.3106657","85548.1007027","86314.6687534","87081.2578279","90947.4396285","91714.0729148","92480.5355375","93247.30486","94013.9029005","94780.690155","95547.5751082","96314.1941726","97857.9713972","Mapping"
"Mixed","Both","done","48","F_lash.wav","space","718.091238872","128","90198.0340914","97080.5025178","97847.8870949","98614.3750699","99380.6058125","85548.1007027","86314.6687534","87081.2578279","90947.4396285","91714.0729148","92480.5355375","93247.30486","94013.9029005","94780.690155","95547.5751082","96314.1941726","98624.5029655","Mapping"
"Mixed","Both","done","48","F_cave.wav","None","724.624996074","128","90198.0340914","97080.5025178","97847.8870949","98614.3750699","99380.6058125","100147.504369","86314.6687534","87081.2578279","90947.4396285","91714.0729148","92480.5355375","93247.30486","94013.9029005","94780.690155","95547.5751082","96314.1941726","99390.0068421","Mapping"
"Mixed","Both","done","48","M_done.wav","None","725.207169191","128","90198.0340914","97080.5025178","97847.8870949","98614.3750699","99380.6058125","100147.504369","100914.298735","87081.2578279","90947.4396285","91714.0729148","92480.5355375","93247.30486","94013.9029005","94780.690155","95547.5751082","96314.1941726","100156.855622","Mapping"
"Mixed","Both","done","48","F_gnash.wav","space","626.045430545","128","90198.0340914","97080.5025178","97847.8870949","98614.3750699","99380.6058125","100147.504369","100914.298735","101680.971286","90947.4396285","91714.0729148","92480.5355375","93247.30486","94013.9029005","94780.690155","95547.5751082","96314.1941726","100924.506397","Mapping"
"Mixed","Both","ball","5","M_cling.wav","None","720.465379884","128","104797.700555","97080.5025178","97847.8870949","98614.3750699","99380.6058125","100147.504369","100914.298735","101680.971286","90947.4396285","91714.0729148","92480.5355375","93247.30486","94013.9029005","94780.690155","95547.5751082","96314.1941726","101690.53154","Mapping"
"Mixed","Both","ball","5","M_ball.wav","None","720.815673005","128","104797.700555","97080.5025178","97847.8870949","98614.3750699","99380.6058125","100147.504369","100914.298735","101680.971286","105547.581601","91714.0729148","92480.5355375","93247.30486","94013.9029005","94780.690155","95547.5751082","96314.1941726","104807.565654","Mapping"
"Mixed","Both","ball","5","M_cling.wav","space","489.507125341","128","104797.700555","97080.5025178","97847.8870949","98614.3750699","99380.6058125","100147.504369","100914.298735","101680.971286","105547.581601","106314.075141","92480.5355375","93247.30486","94013.9029005","94780.690155","95547.5751082","96314.1941726","105556.907811","Mapping"
"Mixed","Both","ball","5","F_reek.wav","None","733.138080221","128","104797.700555","97080.5025178","97847.8870949","98614.3750699","99380.6058125","100147.504369","100914.298735","101680.971286","105547.581601","106314.075141","107080.470364","93247.30486","94013.9029005","94780.690155","95547.5751082","96314.1941726","106323.76432","Mapping"
"Mixed","Both","ball","5","F_park.wav","None","734.686110402","128","104797.700555","97080.5025178","97847.8870949","98614.3750699","99380.6058125","100147.504369","100914.298735","101680.971286","105547.581601","106314.075141","107080.470364","107847.366756","94013.9029005","94780.690155","95547.5751082","96314.1941726","107089.447208","Mapping"
"Mixed","Both","ball","5","M_knife.wav","None","732.066794997","128","104797.700555","97080.5025178","97847.8870949","98614.3750699","99380.6058125","100147.504369","100914.298735","101680.971286","105547.581601","106314.075141","107080.470364","107847.366756","108614.006226","94780.690155","95547.5751082","96314.1941726","107856.50066","Mapping"
"Mixed","Both","ball","5","M_ball.wav","None","734.963129624","128","104797.700555","97080.5025178","97847.8870949","98614.3750699","99380.6058125","100147.504369","100914.298735","101680.971286","105547.581601","106314.075141","107080.470364","107847.366756","108614.006226","109380.434531","95547.5751082","96314.1941726","108618.11421","Mapping"
"Mixed","Both","ball","5","M_lash.wav","space","392.655837932","128","104797.700555","97080.5025178","97847.8870949","98614.3750699","99380.6058125","100147.504369","100914.298735","101680.971286","105547.581601","106314.075141","107080.470364","107847.366756","108614.006226","109380.434531","110147.330305","96314.1941726","109389.723021","Mapping"
"Mixed","Both","ball","5","M_lash.wav","None","727.862657746","128","104797.700555","97080.5025178","97847.8870949","98614.3750699","99380.6058125","100147.504369","100914.298735","101680.971286","105547.581601","106314.075141","107080.470364","107847.366756","108614.006226","109380.434531","110147.330305","110913.90794","110156.850366","Mapping"
"Mixed","Both","ball","5","F_ball.wav","None","725.614968687","128","104797.700555","111680.819482","97847.8870949","98614.3750699","99380.6058125","100147.504369","100914.298735","101680.971286","105547.581601","106314.075141","107080.470364","107847.366756","108614.006226","109380.434531","110147.330305","110913.90794","110923.42831","Mapping"
"Mixed","Both","ball","5","F_cave.wav","space","435.965438141","128","104797.700555","111680.819482","112447.485232","98614.3750699","99380.6058125","100147.504369","100914.298735","101680.971286","105547.581601","106314.075141","107080.470364","107847.366756","108614.006226","109380.434531","110147.330305","110913.90794","111690.366441","Mapping"
"Mixed","Both","ball","5","F_ball.wav","None","720.251432038","128","104797.700555","111680.819482","112447.485232","113196.800799","99380.6058125","100147.504369","100914.298735","101680.971286","105547.581601","106314.075141","107080.470364","107847.366756","108614.006226","109380.434531","110147.330305","110913.90794","112457.409073","Mapping"
"Mixed","Both","ball","5","F_jaw.wav","space","376.412805635","128","104797.700555","111680.819482","112447.485232","113196.800799","113963.781287","100147.504369","100914.298735","101680.971286","105547.581601","106314.075141","107080.470364","107847.366756","108614.006226","109380.434531","110147.330305","110913.90794","113205.902858","Mapping"
"Mixed","Both","ball","5","M_romp.wav","None","732.870026957","128","104797.700555","111680.819482","112447.485232","113196.800799","113963.781287","114730.362942","100914.298735","101680.971286","105547.581601","106314.075141","107080.470364","107847.366756","108614.006226","109380.434531","110147.330305","110913.90794","113973.264866","Mapping"
"Mixed","Both","ball","5","F_park.wav","None","731.265417999","128","104797.700555","111680.819482","112447.485232","113196.800799","113963.781287","114730.362942","115497.269537","101680.971286","105547.581601","106314.075141","107080.470364","107847.366756","108614.006226","109380.434531","110147.330305","110913.90794","114739.401311","Mapping"
"Mixed","Both","ball","5","F_dime.wav","None","728.788940818","128","104797.700555","111680.819482","112447.485232","113196.800799","113963.781287","114730.362942","115497.269537","116263.802342","105547.581601","106314.075141","107080.470364","107847.366756","108614.006226","109380.434531","110147.330305","110913.90794","115506.409006","Mapping"
"Mixed","Both","cave","20","F_jaw.wav","None","725.959078525","128","119396.848227","111680.819482","112447.485232","113196.800799","113963.781287","114730.362942","115497.269537","116263.802342","105547.581601","106314.075141","107080.470364","107847.366756","108614.006226","109380.434531","110147.330305","110913.90794","116273.808423","Mapping"
"Mixed","Both","cave","20","F_cave.wav","None","723.241446074","128","119396.848227","111680.819482","112447.485232","113196.800799","113963.781287","114730.362942","115497.269537","116263.802342","120163.750494","106314.075141","107080.470364","107847.366756","108614.006226","109380.434531","110147.330305","110913.90794","119406.030361","Mapping"
"Mixed","Both","cave","20","F_priest.wav","space","649.035858805","128","119396.848227","111680.819482","112447.485232","113196.800799","113963.781287","114730.362942","115497.269537","116263.802342","120163.750494","120913.687809","107080.470364","107847.366756","108614.006226","109380.434531","110147.330305","110913.90794","120173.162344","Mapping"
"Mixed","Both","cave","20","M_gnash.wav","None","734.585319879","128","119396.848227","111680.819482","112447.485232","113196.800799","113963.781287","114730.362942","115497.269537","116263.802342","120163.750494","120913.687809","121679.945759","107847.366756","108614.006226","109380.434531","110147.330305","110913.90794","120923.205397","Mapping"
"Mixed","Both","cave","20","M_cave.wav","None","733.128186548","128","119396.848227","111680.819482","112447.485232","113196.800799","113963.781287","114730.362942","115497.269537","116263.802342","120163.750494","120913.687809","121679.945759","122446.651701","108614.006226","109380.434531","110147.330305","110913.90794","121689.159429","Mapping"
"Mixed","Both","cave","20","M_bluff.wav","space","638.517786632","128","119396.848227","111680.819482","112447.485232","113196.800799","113963.781287","114730.362942","115497.269537","116263.802342","120163.750494","120913.687809","121679.945759","122446.651701","123213.637444","109380.434531","110147.330305","110913.90794","122455.62638","Mapping"
"Mixed","Both","cave","20","F_cave.wav","None","727.144448552","128","119396.848227","111680.819482","112447.485232","113196.800799","113963.781287","114730.362942","115497.269537","116263.802342","120163.750494","120913.687809","121679.945759","122446.651701","123213.637444","123980.144279","110147.330305","110913.90794","123223.38753","Mapping"
"Mixed","Both","cave","20","M_priest.wav","space","513.027785695","128","119396.848227","111680.819482","112447.485232","113196.800799","113963.781287","114730.362942","115497.269537","116263.802342","120163.750494","120913.687809","121679.945759","122446.651701","123213.637444","123980.144279","124747.387873","110913.90794","123989.128234","Mapping"
"Mixed","Both","cave","20","M_knife.wav","None","721.468956093","128","119396.848227","111680.819482","112447.485232","113196.800799","113963.781287","114730.362942","115497.269537","116263.802342","120163.750494","120913.687809","121679.945759","122446.651701","123213.637444","123980.144279","124747.387873","125513.993952","124757.5303","Mapping"
"Mixed","Both","cave","20","F_ball.wav","None","719.657819485","128","119396.848227","126263.505845","112447.485232","113196.800799","113963.781287","114730.362942","115497.269537","116263.802342","120163.750494","120913.687809","121679.945759","122446.651701","123213.637444","123980.144279","124747.387873","125513.993952","125523.775883","Mapping"
"Mixed","Both","cave","20","F_cad.wav","None","735.276321997","128","119396.848227","126263.505845","127030.189526","113196.800799","113963.781287","114730.362942","115497.269537","116263.802342","120163.750494","120913.687809","121679.945759","122446.651701","123213.637444","123980.144279","124747.387873","125513.993952","126272.802065","Mapping"
"Mixed","Both","cave","20","M_bluff.wav","None","733.077482204","128","119396.848227","126263.505845","127030.189526","127796.998114","113963.781287","114730.362942","115497.269537","116263.802342","120163.750494","120913.687809","121679.945759","122446.651701","123213.637444","123980.144279","124747.387873","125513.993952","127039.527794","Mapping"
"Mixed","Both","cave","20","M_reek.wav","None","731.157207512","128","119396.848227","126263.505845","127030.189526","127796.998114","128563.111371","114730.362942","115497.269537","116263.802342","120163.750494","120913.687809","121679.945759","122446.651701","123213.637444","123980.144279","124747.387873","125513.993952","127806.116559","Mapping"
"Mixed","Both","cave","20","F_dime.wav","None","729.824052542","128","119396.848227","126263.505845","127030.189526","127796.998114","128563.111371","129330.123703","115497.269537","116263.802342","120163.750494","120913.687809","121679.945759","122446.651701","123213.637444","123980.144279","124747.387873","125513.993952","128571.986187","Mapping"
"Mixed","Both","cave","20","M_cave.wav","None","726.935447427","128","119396.848227","126263.505845","127030.189526","127796.998114","128563.111371","129330.123703","130096.987324","116263.802342","120163.750494","120913.687809","121679.945759","122446.651701","123213.637444","123980.144279","124747.387873","125513.993952","129339.435691","Mapping"
"Mixed","Both","cave","20","F_depth.wav","space","492.00493563","128","119396.848227","126263.505845","127030.189526","127796.998114","128563.111371","129330.123703","130096.987324","130863.947715","120163.750494","120913.687809","121679.945759","122446.651701","123213.637444","123980.144279","124747.387873","125513.993952","130106.032804","Mapping"
"Mixed","Both","cave","13","F_ball.wav","None","721.224709181","128","133980.397183","126263.505845","127030.189526","127796.998114","128563.111371","129330.123703","130096.987324","130863.947715","120163.750494","120913.687809","121679.945759","122446.651701","123213.637444","123980.144279","124747.387873","125513.993952","130873.741704","Mapping"
"Mixed","Both","cave","13","M_cling.wav","None","720.318831853","128","133980.397183","126263.505845","127030.189526","127796.998114","128563.111371","129330.123703","130096.987324","130863.947715","134730.436525","120913.687809","121679.945759","122446.651701","123213.637444","123980.144279","124747.387873","125513.993952","133990.665134","Mapping"
"Mixed","Both","cave","13","M_greet.wav","None","735.736062634","128","133980.397183","126263.505845","127030.189526","127796.998114","128563.111371","129330.123703","130096.987324","130863.947715","134730.436525","135496.779807","121679.945759","122446.651701","123213.637444","123980.144279","124747.387873","125513.993952","134739.834153","Mapping"
"Mixed","Both","cave","13","M_done.wav","None","734.112903243","128","133980.397183","126263.505845","127030.189526","127796.998114","128563.111371","129330.123703","130096.987324","130863.947715","134730.436525","135496.779807","136263.397016","122446.651701","123213.637444","123980.144279","124747.387873","125513.993952","135506.1122","Mapping"
"Mixed","Both","cave","13","F_cave.wav","None","731.466689846","128","133980.397183","126263.505845","127030.189526","127796.998114","128563.111371","129330.123703","130096.987324","130863.947715","134730.436525","135496.779807","136263.397016","137029.936004","123213.637444","123980.144279","124747.387873","125513.993952","136273.37218","Mapping"
"Mixed","Both","cave","13","M_depth.wav","space","454.772134661","128","133980.397183","126263.505845","127030.189526","127796.998114","128563.111371","129330.123703","130096.987324","130863.947715","134730.436525","135496.779807","136263.397016","137029.936004","137796.84631","123980.144279","124747.387873","125513.993952","137039.156786","Mapping"
"Mixed","Both","cave","13","F_lash.wav","None","730.174345896","128","133980.397183","126263.505845","127030.189526","127796.998114","128563.111371","129330.123703","130096.987324","130863.947715","134730.436525","135496.779807","136263.397016","137029.936004","137796.84631","138563.424872","124747.387873","125513.993952","137806.196635","Mapping"
"Mixed","Both","cave","13","F_cave.wav","None","727.891101735","128","133980.397183","126263.505845","127030.189526","127796.998114","128563.111371","129330.123703","130096.987324","130863.947715","134730.436525","135496.779807","136263.397016","137029.936004","137796.84631","138563.424872","139329.714358","125513.993952","138573.039231","Mapping"
"Mixed","Both","cave","13","F_depth.wav","space","595.243741293","128","133980.397183","126263.505845","127030.189526","127796.998114","128563.111371","129330.123703","130096.987324","130863.947715","134730.436525","135496.779807","136263.397016","137029.936004","137796.84631","138563.424872","139329.714358","140096.590654","139338.599377","Mapping"
"Mixed","Both","cave","13","F_tile.wav","None","723.581845756","128","133980.397183","140863.89361","127030.189526","127796.998114","128563.111371","129330.123703","130096.987324","130863.947715","134730.436525","135496.779807","136263.397016","137029.936004","137796.84631","138563.424872","139329.714358","140096.590654","140105.85101","Mapping"
"Mixed","Both","cave","13","M_cave.wav","None","720.121270162","128","133980.397183","140863.89361","141630.433217","127796.998114","128563.111371","129330.123703","130096.987324","130863.947715","134730.436525","135496.779807","136263.397016","137029.936004","137796.84631","138563.424872","139329.714358","140096.590654","140873.706458","Mapping"
"Mixed","Both","cave","13","F_cad.wav","space","613.300074474","128","133980.397183","140863.89361","141630.433217","142379.624188","128563.111371","129330.123703","130096.987324","130863.947715","134730.436525","135496.779807","136263.397016","137029.936004","137796.84631","138563.424872","139329.714358","140096.590654","141640.471143","Mapping"
"Mixed","Both","cave","13","M_depth.wav","None","734.291914618","128","133980.397183","140863.89361","141630.433217","142379.624188","143146.775648","129330.123703","130096.987324","130863.947715","134730.436525","135496.779807","136263.397016","137029.936004","137796.84631","138563.424872","139329.714358","140096.590654","142388.699349","Mapping"
"Mixed","Both","cave","13","M_cave.wav","None","731.251814403","128","133980.397183","140863.89361","141630.433217","142379.624188","143146.775648","143913.297632","130096.987324","130863.947715","134730.436525","135496.779807","136263.397016","137029.936004","137796.84631","138563.424872","139329.714358","140096.590654","143156.666408","Mapping"
"Mixed","Both","cave","13","F_tile.wav","space","538.969890564","128","133980.397183","140863.89361","141630.433217","142379.624188","143146.775648","143913.297632","144679.831983","130863.947715","134730.436525","135496.779807","136263.397016","137029.936004","137796.84631","138563.424872","139329.714358","140096.590654","143922.804399","Mapping"
"Mixed","Both","cave","13","M_dime.wav","None","727.920782403","128","133980.397183","140863.89361","141630.433217","142379.624188","143146.775648","143913.297632","144679.831983","145446.367571","134730.436525","135496.779807","136263.397016","137029.936004","137796.84631","138563.424872","139329.714358","140096.590654","144688.760287","Mapping"
"Mixed","Both","tile","31","M_gnash.wav","None","725.584051339","128","148563.56431","140863.89361","141630.433217","142379.624188","143146.775648","143913.297632","144679.831983","145446.367571","134730.436525","135496.779807","136263.397016","137029.936004","137796.84631","138563.424872","139329.714358","140096.590654","145455.687287","Mapping"
"Mixed","Both","tile","31","F_tile.wav","None","720.171665307","128","148563.56431","140863.89361","141630.433217","142379.624188","143146.775648","143913.297632","144679.831983","145446.367571","149313.368062","135496.779807","136263.397016","137029.936004","137796.84631","138563.424872","139329.714358","140096.590654","148573.61924","Mapping"
"Mixed","Both","tile","31","M_cave.wav","space","394.602083368","128","148563.56431","140863.89361","141630.433217","142379.624188","143146.775648","143913.297632","144679.831983","145446.367571","149313.368062","150079.927765","136263.397016","137029.936004","137796.84631","138563.424872","139329.714358","140096.590654","149323.026014","Mapping"
"Mixed","Both","tile","31","F_jolt.wav","None","733.423447004","128","148563.56431","140863.89361","141630.433217","142379.624188","143146.775648","143913.297632","144679.831983","145446.367571","149313.368062","150079.927765","150862.689071","137029.936004","137796.84631","138563.424872","139329.714358","140096.590654","150089.261085","Mapping"
"Mixed","Both","tile","31","F_depth.wav","None","721.898397664","128","148563.56431","140863.89361","141630.433217","142379.624188","143146.775648","143913.297632","144679.831983","145446.367571","149313.368062","150079.927765","150862.689071","151612.964003","137796.84631","138563.424872","139329.714358","140096.590654","150871.45846","Mapping"
"Mixed","Both","tile","31","M_tile.wav","None","736.556917313","128","148563.56431","140863.89361","141630.433217","142379.624188","143146.775648","143913.297632","144679.831983","145446.367571","149313.368062","150079.927765","150862.689071","151612.964003","152379.323671","138563.424872","139329.714358","140096.590654","151622.057406","Mapping"
"Mixed","Both","tile","31","M_cad.wav","space","409.088084358","128","148563.56431","140863.89361","141630.433217","142379.624188","143146.775648","143913.297632","144679.831983","145446.367571","149313.368062","150079.927765","150862.689071","151612.964003","152379.323671","153146.14679","139329.714358","140096.590654","152388.518173","Mapping"
"Mixed","Both","tile","31","F_tile.wav","None","732.218599063","128","148563.56431","140863.89361","141630.433217","142379.624188","143146.775648","143913.297632","144679.831983","145446.367571","149313.368062","150079.927765","150862.689071","151612.964003","152379.323671","153146.14679","153912.68887","140096.590654","153155.259979","Mapping"
"Mixed","Both","tile","31","M_park.wav","space","475.806424278","128","148563.56431","140863.89361","141630.433217","142379.624188","143146.775648","143913.297632","144679.831983","145446.367571","149313.368062","150079.927765","150862.689071","151612.964003","152379.323671","153146.14679","153912.68887","154679.35462","153921.763103","Mapping"
"Mixed","Both","tile","31","F_jaw.wav","None","728.060219553","128","148563.56431","155446.485056","141630.433217","142379.624188","143146.775648","143913.297632","144679.831983","145446.367571","149313.368062","150079.927765","150862.689071","151612.964003","152379.323671","153146.14679","153912.68887","154679.35462","154688.387424","Mapping"
"Mixed","Both","tile","31","F_cling.wav","None","725.398856681","128","148563.56431","155446.485056","156213.149878","142379.624188","143146.775648","143913.297632","144679.831983","145446.367571","149313.368062","150079.927765","150862.689071","151612.964003","152379.323671","153146.14679","153912.68887","154679.35462","155455.844966","Mapping"
"Mixed","Both","tile","31","F_cad.wav","None","723.386448342","128","148563.56431","155446.485056","156213.149878","156979.956611","143146.775648","143913.297632","144679.831983","145446.367571","149313.368062","150079.927765","150862.689071","151612.964003","152379.323671","153146.14679","153912.68887","154679.35462","156222.699002","Mapping"
"Mixed","Both","tile","31","M_reek.wav","None","720.872560982","128","148563.56431","155446.485056","156213.149878","156979.956611","157746.762725","143913.297632","144679.831983","145446.367571","149313.368062","150079.927765","150862.689071","151612.964003","152379.323671","153146.14679","153912.68887","154679.35462","156990.028855","Mapping"
"Mixed","Both","tile","31","M_tile.wav","None","719.087085803","128","148563.56431","155446.485056","156213.149878","156979.956611","157746.762725","158496.159914","144679.831983","145446.367571","149313.368062","150079.927765","150862.689071","151612.964003","152379.323671","153146.14679","153912.68887","154679.35462","157757.079525","Mapping"
"Mixed","Both","tile","31","M_gnash.wav","space","443.839461193","128","148563.56431","155446.485056","156213.149878","156979.956611","157746.762725","158496.159914","159262.979941","145446.367571","149313.368062","150079.927765","150862.689071","151612.964003","152379.323671","153146.14679","153912.68887","154679.35462","158505.615049","Mapping"
"Mixed","Both","tile","31","F_priest.wav","None","732.464391855","128","148563.56431","155446.485056","156213.149878","156979.956611","157746.762725","158496.159914","159262.979941","160029.527896","149313.368062","150079.927765","150862.689071","151612.964003","152379.323671","153146.14679","153912.68887","154679.35462","159272.500311","Mapping"
"Mixed","Both","cave","15","F_done.wav","None","730.99550989","128","163163.304666","155446.485056","156213.149878","156979.956611","157746.762725","158496.159914","159262.979941","160029.527896","149313.368062","150079.927765","150862.689071","151612.964003","152379.323671","153146.14679","153912.68887","154679.35462","160038.806183","Mapping"
"Mixed","Both","cave","15","M_jaw.wav","None","720.197017537","128","163163.304666","155446.485056","156213.149878","156979.956611","157746.762725","158496.159914","159262.979941","160029.527896","163929.717821","150079.927765","150862.689071","151612.964003","152379.323671","153146.14679","153912.68887","154679.35462","163173.375674","Mapping"
"Mixed","Both","cave","15","M_cave.wav","None","721.684758901","128","163163.304666","155446.485056","156213.149878","156979.956611","157746.762725","158496.159914","159262.979941","160029.527896","163929.717821","164696.792297","150862.689071","151612.964003","152379.323671","153146.14679","153912.68887","154679.35462","163939.759766","Mapping"
"Mixed","Both","cave","15","M_romp.wav","None","719.272898859","128","163163.304666","155446.485056","156213.149878","156979.956611","157746.762725","158496.159914","159262.979941","160029.527896","163929.717821","164696.792297","165446.032736","151612.964003","152379.323671","153146.14679","153912.68887","154679.35462","164706.953584","Mapping"
"Mixed","Both","cave","15","M_done.wav","space","0.0355549855158","128","163163.304666","155446.485056","156213.149878","156979.956611","157746.762725","158496.159914","159262.979941","160029.527896","163929.717821","164696.792297","165446.032736","166212.447128","152379.323671","153146.14679","153912.68887","154679.35462","165455.556816","Mapping"
"Mixed","Both","cave","15","F_cave.wav","None","733.657491161","128","163163.304666","155446.485056","156213.149878","156979.956611","157746.762725","158496.159914","159262.979941","160029.527896","163929.717821","164696.792297","165446.032736","166212.447128","166979.551594","153146.14679","153912.68887","154679.35462","166221.412532","Mapping"
"Mixed","Both","cave","15","F_jolt.wav","space","472.345848568","128","163163.304666","155446.485056","156213.149878","156979.956611","157746.762725","158496.159914","159262.979941","160029.527896","163929.717821","164696.792297","165446.032736","166212.447128","166979.551594","167746.306694","153912.68887","154679.35462","166989.010439","Mapping"
"Mixed","Both","cave","15","M_greet.wav","None","728.074132232","128","163163.304666","155446.485056","156213.149878","156979.956611","157746.762725","158496.159914","159262.979941","160029.527896","163929.717821","164696.792297","165446.032736","166212.447128","166979.551594","167746.306694","168512.807654","154679.35462","167755.662275","Mapping"
"Mixed","Both","cave","15","M_jolt.wav","None","726.290202932","128","163163.304666","155446.485056","156213.149878","156979.956611","157746.762725","158496.159914","159262.979941","160029.527896","163929.717821","164696.792297","165446.032736","166212.447128","166979.551594","167746.306694","168512.807654","169279.892952","168522.324933","Mapping"
"Mixed","Both","cave","15","F_tile.wav","None","723.089332809","128","163163.304666","170045.935717","156213.149878","156979.956611","157746.762725","158496.159914","159262.979941","160029.527896","163929.717821","164696.792297","165446.032736","166212.447128","166979.551594","167746.306694","168512.807654","169279.892952","169290.241597","Mapping"
"Mixed","Both","cave","15","F_dime.wav","None","723.240209394","128","163163.304666","170045.935717","170813.145302","156979.956611","157746.762725","158496.159914","159262.979941","160029.527896","163929.717821","164696.792297","165446.032736","166212.447128","166979.551594","167746.306694","168512.807654","169279.892952","170054.970995","Mapping"
"Mixed","Both","cave","15","M_cave.wav","None","720.13549204","128","163163.304666","170045.935717","170813.145302","171562.52085","157746.762725","158496.159914","159262.979941","160029.527896","163929.717821","164696.792297","165446.032736","166212.447128","166979.551594","167746.306694","168512.807654","169279.892952","170822.89848","Mapping"
"Mixed","Both","cave","15","F_jolt.wav","space","433.909745538","128","163163.304666","170045.935717","170813.145302","171562.52085","172329.308104","158496.159914","159262.979941","160029.527896","163929.717821","164696.792297","165446.032736","166212.447128","166979.551594","167746.306694","168512.807654","169279.892952","171571.403705","Mapping"
"Mixed","Both","cave","15","F_cad.wav","None","733.22928627","128","163163.304666","170045.935717","170813.145302","171562.52085","172329.308104","173095.842146","159262.979941","160029.527896","163929.717821","164696.792297","165446.032736","166212.447128","166979.551594","167746.306694","168512.807654","169279.892952","172338.64699","Mapping"
"Mixed","Both","cave","15","F_cave.wav","None","731.748037389","128","163163.304666","170045.935717","170813.145302","171562.52085","172329.308104","173095.842146","173862.301677","160029.527896","163929.717821","164696.792297","165446.032736","166212.447128","166979.551594","167746.306694","168512.807654","169279.892952","173104.925036","Mapping"
"Mixed","Both","cave","15","M_reek.wav","space","542.240015464","128","163163.304666","170045.935717","170813.145302","171562.52085","172329.308104","173095.842146","173862.301677","174629.326995","163929.717821","164696.792297","165446.032736","166212.447128","166979.551594","167746.306694","168512.807654","169279.892952","173871.000265","Mapping"
"Mixed","Both","cave","21","M_knife.wav","None","726.924626273","128","177763.024308","170045.935717","170813.145302","171562.52085","172329.308104","173095.842146","173862.301677","174629.326995","163929.717821","164696.792297","165446.032736","166212.447128","166979.551594","167746.306694","168512.807654","169279.892952","174638.318061","Mapping"
"Mixed","Both","cave","21","F_cling.wav","None","720.21927801","128","177763.024308","170045.935717","170813.145302","171562.52085","172329.308104","173095.842146","173862.301677","174629.326995","178512.452105","164696.792297","165446.032736","166212.447128","166979.551594","167746.306694","168512.807654","169279.892952","177773.085113","Mapping"
"Mixed","Both","cave","21","M_cave.wav","None","737.093642005","128","177763.024308","170045.935717","170813.145302","171562.52085","172329.308104","173095.842146","173862.301677","174629.326995","178512.452105","179279.235031","165446.032736","166212.447128","166979.551594","167746.306694","168512.807654","169279.892952","178521.162751","Mapping"
"Mixed","Both","cave","21","F_greet.wav","space","524.430711637","128","177763.024308","170045.935717","170813.145302","171562.52085","172329.308104","173095.842146","173862.301677","174629.326995","178512.452105","179279.235031","180046.026923","166212.447128","166979.551594","167746.306694","168512.807654","169279.892952","179288.701915","Mapping"
"Mixed","Both","cave","21","F_cave.wav","None","732.086891308","128","177763.024308","170045.935717","170813.145302","171562.52085","172329.308104","173095.842146","173862.301677","174629.326995","178512.452105","179279.235031","180046.026923","180812.576733","166979.551594","167746.306694","168512.807654","169279.892952","180055.053544","Mapping"
"Mixed","Both","cave","21","M_done.wav","None","729.939683457","128","177763.024308","170045.935717","170813.145302","171562.52085","172329.308104","173095.842146","173862.301677","174629.326995","178512.452105","179279.235031","180046.026923","180812.576733","181579.200435","167746.306694","168512.807654","169279.892952","180822.156155","Mapping"
"Mixed","Both","cave","21","F_cave.wav","space","144.915353041","128","177763.024308","170045.935717","170813.145302","171562.52085","172329.308104","173095.842146","173862.301677","174629.326995","178512.452105","179279.235031","180046.026923","180812.576733","181579.200435","182346.033447","168512.807654","169279.892952","181588.204486","Mapping"
"Mixed","Both","cave","21","F_ball.wav","space","545.650814194","128","177763.024308","170045.935717","170813.145302","171562.52085","172329.308104","173095.842146","173862.301677","174629.326995","178512.452105","179279.235031","180046.026923","180812.576733","181579.200435","182346.033447","183112.92242","169279.892952","182355.413453","Mapping"
"Mixed","Both","cave","21","M_jaw.wav","None","722.755425842","128","177763.024308","170045.935717","170813.145302","171562.52085","172329.308104","173095.842146","173862.301677","174629.326995","178512.452105","179279.235031","180046.026923","180812.576733","181579.200435","182346.033447","183112.92242","183879.365873","183122.764948","Mapping"
"Mixed","Both","cave","21","M_reek.wav","None","721.294273273","128","177763.024308","184646.45148","170813.145302","171562.52085","172329.308104","173095.842146","173862.301677","174629.326995","178512.452105","179279.235031","180046.026923","180812.576733","181579.200435","182346.033447","183112.92242","183879.365873","183889.056598","Mapping"
"Mixed","Both","cave","21","M_cave.wav","None","718.825525255","128","177763.024308","184646.45148","185413.047666","171562.52085","172329.308104","173095.842146","173862.301677","174629.326995","178512.452105","179279.235031","180046.026923","180812.576733","181579.200435","182346.033447","183112.92242","183879.365873","184656.520015","Mapping"
"Mixed","Both","cave","21","F_greet.wav","space","510.199469281","128","177763.024308","184646.45148","185413.047666","186162.507926","172329.308104","173095.842146","173862.301677","174629.326995","178512.452105","179279.235031","180046.026923","180812.576733","181579.200435","182346.033447","183112.92242","183879.365873","185422.81321","Mapping"
"Mixed","Both","cave","21","M_greet.wav","None","732.070195838","128","177763.024308","184646.45148","185413.047666","186162.507926","186929.126372","173095.842146","173862.301677","174629.326995","178512.452105","179279.235031","180046.026923","180812.576733","181579.200435","182346.033447","183112.92242","183879.365873","186172.071581","Mapping"
"Mixed","Both","cave","21","F_lash.wav","None","730.751881376","128","177763.024308","184646.45148","185413.047666","186162.507926","186929.126372","187695.48604","173862.301677","174629.326995","178512.452105","179279.235031","180046.026923","180812.576733","181579.200435","182346.033447","183112.92242","183879.365873","186938.307271","Mapping"
"Mixed","Both","cave","21","M_park.wav","None","729.413161403","128","177763.024308","184646.45148","185413.047666","186162.507926","186929.126372","187695.48604","188462.062439","174629.326995","178512.452105","179279.235031","180046.026923","180812.576733","181579.200435","182346.033447","183112.92242","183879.365873","187704.580061","Mapping"
"Mixed","Both","cave","21","F_dime.wav","None","727.57852776","128","177763.024308","184646.45148","185413.047666","186162.507926","186929.126372","187695.48604","188462.062439","189229.008608","178512.452105","179279.235031","180046.026923","180812.576733","181579.200435","182346.033447","183112.92242","183879.365873","188471.439662","Mapping"
"Mixed","Both","cave","24","M_gnash.wav","None","725.871273316","128","192362.679332","184646.45148","185413.047666","186162.507926","186929.126372","187695.48604","188462.062439","189229.008608","178512.452105","179279.235031","180046.026923","180812.576733","181579.200435","182346.033447","183112.92242","183879.365873","189238.153642","Mapping"
"Mixed","Both","cave","24","M_cave.wav","None","719.907940598","128","192362.679332","184646.45148","185413.047666","186162.507926","186929.126372","187695.48604","188462.062439","189229.008608","193129.321584","179279.235031","180046.026923","180812.576733","181579.200435","182346.033447","183112.92242","183879.365873","192373.040344","Mapping"
"Mixed","Both","cave","24","F_cad.wav","space","409.600384417","128","192362.679332","184646.45148","185413.047666","186162.507926","186929.126372","187695.48604","188462.062439","189229.008608","193129.321584","193878.853573","180046.026923","180812.576733","181579.200435","182346.033447","183112.92242","183879.365873","193139.293038","Mapping"
"Mixed","Both","cave","24","F_depth.wav","None","734.293460497","128","192362.679332","184646.45148","185413.047666","186162.507926","186929.126372","187695.48604","188462.062439","189229.008608","193129.321584","193878.853573","194645.448831","180812.576733","181579.200435","182346.033447","183112.92242","183879.365873","193887.567929","Mapping"
"Mixed","Both","cave","24","F_cave.wav","None","732.613413245","128","192362.679332","184646.45148","185413.047666","186162.507926","186929.126372","187695.48604","188462.062439","189229.008608","193129.321584","193878.853573","194645.448831","195412.056147","181579.200435","182346.033447","183112.92242","183879.365873","194654.383009","Mapping"
"Mixed","Both","cave","24","M_lash.wav","space","415.610711323","128","192362.679332","184646.45148","185413.047666","186162.507926","186929.126372","187695.48604","188462.062439","189229.008608","193129.321584","193878.853573","194645.448831","195412.056147","196178.932134","182346.033447","183112.92242","183879.365873","195421.224988","Mapping"
"Mixed","Both","cave","24","F_reek.wav","None","728.012297652","128","192362.679332","184646.45148","185413.047666","186162.507926","186929.126372","187695.48604","188462.062439","189229.008608","193129.321584","193878.853573","194645.448831","195412.056147","196178.932134","196945.252537","183112.92242","183879.365873","196188.405201","Mapping"
"Mixed","Both","cave","24","M_park.wav","None","727.050769026","128","192362.679332","184646.45148","185413.047666","186162.507926","186929.126372","187695.48604","188462.062439","189229.008608","193129.321584","193878.853573","194645.448831","195412.056147","196178.932134","196945.252537","197712.376482","183879.365873","196954.385514","Mapping"
"Mixed","Both","cave","24","M_cling.wav","None","724.757631309","128","192362.679332","184646.45148","185413.047666","186162.507926","186929.126372","187695.48604","188462.062439","189229.008608","193129.321584","193878.853573","194645.448831","195412.056147","196178.932134","196945.252537","197712.376482","198479.425297","197721.718768","Mapping"
"Mixed","Both","cave","24","M_cling.wav","None","722.018047702","128","192362.679332","199245.36418","185413.047666","186162.507926","186929.126372","187695.48604","188462.062439","189229.008608","193129.321584","193878.853573","194645.448831","195412.056147","196178.932134","196945.252537","197712.376482","198479.425297","198489.412209","Mapping"
"Mixed","Both","cave","24","F_greet.wav","None","722.020211979","128","192362.679332","199245.36418","200012.0222","186162.507926","186929.126372","187695.48604","188462.062439","189229.008608","193129.321584","193878.853573","194645.448831","195412.056147","196178.932134","196945.252537","197712.376482","198479.425297","199254.492518","Mapping"
"Mixed","Both","cave","24","F_cave.wav","None","720.175066264","128","192362.679332","199245.36418","200012.0222","200762.12987","186929.126372","187695.48604","188462.062439","189229.008608","193129.321584","193878.853573","194645.448831","195412.056147","196178.932134","196945.252537","197712.376482","198479.425297","200021.339134","Mapping"
"Mixed","Both","cave","24","F_cling.wav","space","481.013519224","128","192362.679332","199245.36418","200012.0222","200762.12987","201528.795619","187695.48604","188462.062439","189229.008608","193129.321584","193878.853573","194645.448831","195412.056147","196178.932134","196945.252537","197712.376482","198479.425297","200771.709292","Mapping"
"Mixed","Both","cave","24","F_done.wav","None","732.361746253","128","192362.679332","199245.36418","200012.0222","200762.12987","201528.795619","202295.683973","188462.062439","189229.008608","193129.321584","193878.853573","194645.448831","195412.056147","196178.932134","196945.252537","197712.376482","198479.425297","201538.153055","Mapping"
"Mixed","Both","cave","24","M_cave.wav","None","730.592038948","128","192362.679332","199245.36418","200012.0222","200762.12987","201528.795619","202295.683973","203062.204411","189229.008608","193129.321584","193878.853573","194645.448831","195412.056147","196178.932134","196945.252537","197712.376482","198479.425297","202305.002762","Mapping"
"Mixed","Both","cave","24","M_done.wav","space","452.823106898","128","192362.679332","199245.36418","200012.0222","200762.12987","201528.795619","202295.683973","203062.204411","203828.721139","193129.321584","193878.853573","194645.448831","195412.056147","196178.932134","196945.252537","197712.376482","198479.425297","203071.910595","Mapping"
"Mixed","Both","done","45","F_ball.wav","None","726.537850685","128","206962.625598","199245.36418","200012.0222","200762.12987","201528.795619","202295.683973","203062.204411","203828.721139","193129.321584","193878.853573","194645.448831","195412.056147","196178.932134","196945.252537","197712.376482","198479.425297","203838.053841","Mapping"
"Mixed","Both","done","45","F_jaw.wav","None","720.324706053","128","206962.625598","199245.36418","200012.0222","200762.12987","201528.795619","202295.683973","203062.204411","203828.721139","207729.029478","193878.853573","194645.448831","195412.056147","196178.932134","196945.252537","197712.376482","198479.425297","206972.343221","Mapping"
"Mixed","Both","done","45","F_park.wav","None","719.041328179","128","206962.625598","199245.36418","200012.0222","200762.12987","201528.795619","202295.683973","203062.204411","203828.721139","207729.029478","208478.591456","194645.448831","195412.056147","196178.932134","196945.252537","197712.376482","198479.425297","207738.741535","Mapping"
"Mixed","Both","done","45","M_reek.wav","None","734.805142041","128","206962.625598","199245.36418","200012.0222","200762.12987","201528.795619","202295.683973","203062.204411","203828.721139","207729.029478","208478.591456","209245.084378","195412.056147","196178.932134","196945.252537","197712.376482","198479.425297","208488.05463","Mapping"
"Mixed","Both","done","45","F_done.wav","None","733.559792396","128","206962.625598","199245.36418","200012.0222","200762.12987","201528.795619","202295.683973","203062.204411","203828.721139","207729.029478","208478.591456","209245.084378","210011.654284","196178.932134","196945.252537","197712.376482","198479.425297","209254.318763","Mapping"
"Mixed","Both","done","45","F_dime.wav","space","615.990190534","128","206962.625598","199245.36418","200012.0222","200762.12987","201528.795619","202295.683973","203062.204411","203828.721139","207729.029478","208478.591456","209245.084378","210011.654284","210778.581903","196945.252537","197712.376482","198479.425297","210020.575786","Mapping"
"Mixed","Both","done","45","M_done.wav","None","729.073998518","128","206962.625598","199245.36418","200012.0222","200762.12987","201528.795619","202295.683973","203062.204411","203828.721139","207729.029478","208478.591456","209245.084378","210011.654284","210778.581903","211545.427591","197712.376482","198479.425297","210787.889871","Mapping"
"Mixed","Both","done","45","M_ball.wav","space","577.712693368","128","206962.625598","199245.36418","200012.0222","200762.12987","201528.795619","202295.683973","203062.204411","203828.721139","207729.029478","208478.591456","209245.084378","210011.654284","210778.581903","211545.427591","212312.525874","198479.425297","211554.844698","Mapping"
"Mixed","Both","done","45","M_done.wav","None","723.238354316","128","206962.625598","199245.36418","200012.0222","200762.12987","201528.795619","202295.683973","203062.204411","203828.721139","207729.029478","208478.591456","209245.084378","210011.654284","210778.581903","211545.427591","212312.525874","213078.924807","212322.68747","Mapping"
"Mixed","Both","done","45","F_depth.wav","space","507.563458523","128","206962.625598","213845.937449","200012.0222","200762.12987","201528.795619","202295.683973","203062.204411","203828.721139","207729.029478","208478.591456","209245.084378","210011.654284","210778.581903","211545.427591","212312.525874","213078.924807","213088.983448","Mapping"
"Mixed","Both","done","45","M_dime.wav","None","719.949678984","128","206962.625598","213845.937449","214595.428009","200762.12987","201528.795619","202295.683973","203062.204411","203828.721139","207729.029478","208478.591456","209245.084378","210011.654284","210778.581903","211545.427591","212312.525874","213078.924807","213855.537277","Mapping"
"Mixed","Both","done","45","M_depth.wav","None","736.263512052","128","206962.625598","213845.937449","214595.428009","215361.897433","201528.795619","202295.683973","203062.204411","203828.721139","207729.029478","208478.591456","209245.084378","210011.654284","210778.581903","211545.427591","212312.525874","213078.924807","214604.396196","Mapping"
"Mixed","Both","done","45","M_park.wav","None","733.968828572","128","206962.625598","213845.937449","214595.428009","215361.897433","216128.564419","202295.683973","203062.204411","203828.721139","207729.029478","208478.591456","209245.084378","210011.654284","210778.581903","211545.427591","212312.525874","213078.924807","215371.813236","Mapping"
"Mixed","Both","done","45","F_reek.wav","None","732.923204778","128","206962.625598","213845.937449","214595.428009","215361.897433","216128.564419","216895.006327","203062.204411","203828.721139","207729.029478","208478.591456","209245.084378","210011.654284","210778.581903","211545.427591","212312.525874","213078.924807","216137.92371","Mapping"
"Mixed","Both","done","45","F_done.wav","None","731.833678437","128","206962.625598","213845.937449","214595.428009","215361.897433","216128.564419","216895.006327","217661.537896","203828.721139","207729.029478","208478.591456","209245.084378","210011.654284","210778.581903","211545.427591","212312.525874","213078.924807","216904.187535","Mapping"
"Mixed","Both","done","45","M_romp.wav","space","486.223705928","128","206962.625598","213845.937449","214595.428009","215361.897433","216128.564419","216895.006327","217661.537896","218428.521475","207729.029478","208478.591456","209245.084378","210011.654284","210778.581903","211545.427591","212312.525874","213078.924807","217670.236484","Mapping"
"Mixed","Both","ball","8","F_jolt.wav","None","726.838676143","128","221562.461798","213845.937449","214595.428009","215361.897433","216128.564419","216895.006327","217661.537896","218428.521475","207729.029478","208478.591456","209245.084378","210011.654284","210778.581903","211545.427591","212312.525874","213078.924807","218438.310208","Mapping"
"Mixed","Both","ball","8","F_ball.wav","None","719.720272347","128","221562.461798","213845.937449","214595.428009","215361.897433","216128.564419","216895.006327","217661.537896","218428.521475","222328.873407","208478.591456","209245.084378","210011.654284","210778.581903","211545.427591","212312.525874","213078.924807","221572.697904","Mapping"
"Mixed","Both","ball","8","F_park.wav","space","409.630683367","128","221562.461798","213845.937449","214595.428009","215361.897433","216128.564419","216895.006327","217661.537896","218428.521475","222328.873407","223078.450535","209245.084378","210011.654284","210778.581903","211545.427591","212312.525874","213078.924807","222338.730467","Mapping"
"Mixed","Both","ball","8","M_ball.wav","None","734.752582619","128","221562.461798","213845.937449","214595.428009","215361.897433","216128.564419","216895.006327","217661.537896","218428.521475","222328.873407","223078.450535","223845.245828","210011.654284","210778.581903","211545.427591","212312.525874","213078.924807","223087.370182","Mapping"
"Mixed","Both","ball","8","F_reek.wav","space","477.729481529","128","221562.461798","213845.937449","214595.428009","215361.897433","216128.564419","216895.006327","217661.537896","218428.521475","222328.873407","223078.450535","223845.245828","224611.837995","210778.581903","211545.427591","212312.525874","213078.924807","223854.587496","Mapping"
"Mixed","Both","ball","8","M_jaw.wav","None","729.19241176","128","221562.461798","213845.937449","214595.428009","215361.897433","216128.564419","216895.006327","217661.537896","218428.521475","222328.873407","223078.450535","223845.245828","224611.837995","225378.428306","211545.427591","212312.525874","213078.924807","224622.337516","Mapping"
"Mixed","Both","ball","8","M_knife.wav","None","728.834389243","128","221562.461798","213845.937449","214595.428009","215361.897433","216128.564419","216895.006327","217661.537896","218428.521475","222328.873407","223078.450535","223845.245828","224611.837995","225378.428306","226145.110132","212312.525874","213078.924807","225387.856233","Mapping"
"Mixed","Both","ball","8","F_ball.wav","None","727.713945438","128","221562.461798","213845.937449","214595.428009","215361.897433","216128.564419","216895.006327","217661.537896","218428.521475","222328.873407","223078.450535","223845.245828","224611.837995","225378.428306","226145.110132","226911.78392","213078.924807","226154.476225","Mapping"
"Mixed","Both","ball","8","F_reek.wav","space","386.967051076","128","221562.461798","213845.937449","214595.428009","215361.897433","216128.564419","216895.006327","217661.537896","218428.521475","222328.873407","223078.450535","223845.245828","224611.837995","225378.428306","226145.110132","226911.78392","227678.756988","226921.280175","Mapping"
"Mixed","Both","ball","8","F_gnash.wav","None","722.427083878","128","221562.461798","228445.651525","214595.428009","215361.897433","216128.564419","216895.006327","217661.537896","218428.521475","222328.873407","223078.450535","223845.245828","224611.837995","225378.428306","226145.110132","226911.78392","227678.756988","227688.968051","Mapping"
"Mixed","Both","ball","8","M_greet.wav","None","721.27355868","128","221562.461798","228445.651525","229212.235035","215361.897433","216128.564419","216895.006327","217661.537896","218428.521475","222328.873407","223078.450535","223845.245828","224611.837995","225378.428306","226145.110132","226911.78392","227678.756988","228455.379042","Mapping"
"Mixed","Both","ball","8","M_cling.wav","None","719.841468381","128","221562.461798","228445.651525","229212.235035","229962.135867","216128.564419","216895.006327","217661.537896","218428.521475","222328.873407","223078.450535","223845.245828","224611.837995","225378.428306","226145.110132","226911.78392","227678.756988","229222.113737","Mapping"
"Mixed","Both","ball","8","F_romp.wav","None","735.958048957","128","221562.461798","228445.651525","229212.235035","229962.135867","230745.48955","216895.006327","217661.537896","218428.521475","222328.873407","223078.450535","223845.245828","224611.837995","225378.428306","226145.110132","226911.78392","227678.756988","229971.245037","Mapping"
"Mixed","Both","ball","8","M_ball.wav","None","719.700485351","128","221562.461798","228445.651525","229212.235035","229962.135867","230745.48955","231512.181579","217661.537896","218428.521475","222328.873407","223078.450535","223845.245828","224611.837995","225378.428306","226145.110132","226911.78392","227678.756988","230755.716071","Mapping"
"Mixed","Both","ball","8","M_done.wav","space","346.190506942","128","221562.461798","228445.651525","229212.235035","229962.135867","230745.48955","231512.181579","232261.67925","218428.521475","222328.873407","223078.450535","223845.245828","224611.837995","225378.428306","226145.110132","226911.78392","227678.756988","231522.016997","Mapping"
"Mixed","Both","ball","8","M_gnash.wav","None","733.537531924","128","221562.461798","228445.651525","229212.235035","229962.135867","230745.48955","231512.181579","232261.67925","233028.293676","222328.873407","223078.450535","223845.245828","224611.837995","225378.428306","226145.110132","226911.78392","227678.756988","232271.22219","Mapping"
"Mixed","Both","tile","28","M_bluff.wav","None","732.422653353","128","236162.003047","228445.651525","229212.235035","229962.135867","230745.48955","231512.181579","232261.67925","233028.293676","222328.873407","223078.450535","223845.245828","224611.837995","225378.428306","226145.110132","226911.78392","227678.756988","233037.652349","Mapping"
"Mixed","Both","tile","28","M_jaw.wav","None","720.369226998","128","236162.003047","228445.651525","229212.235035","229962.135867","230745.48955","231512.181579","232261.67925","233028.293676","236928.149076","223078.450535","223845.245828","224611.837995","225378.428306","226145.110132","226911.78392","227678.756988","236172.054886","Mapping"
"Mixed","Both","tile","28","M_cling.wav","None","720.51422915","128","236162.003047","228445.651525","229212.235035","229962.135867","230745.48955","231512.181579","232261.67925","233028.293676","236928.149076","237678.05671","223845.245828","224611.837995","225378.428306","226145.110132","226911.78392","227678.756988","236937.252372","Mapping"
"Mixed","Both","tile","28","M_tile.wav","None","735.887557385","128","236162.003047","228445.651525","229212.235035","229962.135867","230745.48955","231512.181579","232261.67925","233028.293676","236928.149076","237678.05671","238444.944137","224611.837995","225378.428306","226145.110132","226911.78392","227678.756988","237687.164953","Mapping"
"Mixed","Both","tile","28","M_lash.wav","space","430.101659149","128","236162.003047","228445.651525","229212.235035","229962.135867","230745.48955","231512.181579","232261.67925","233028.293676","236928.149076","237678.05671","238444.944137","239211.563201","225378.428306","226145.110132","226911.78392","227678.756988","238453.980342","Mapping"
"Mixed","Both","tile","28","M_bluff.wav","None","731.079605059","128","236162.003047","228445.651525","229212.235035","229962.135867","230745.48955","231512.181579","232261.67925","233028.293676","236928.149076","237678.05671","238444.944137","239211.563201","239978.183812","226145.110132","226911.78392","227678.756988","239221.493845","Mapping"
"Mixed","Both","tile","28","M_tile.wav","None","730.639342335","128","236162.003047","228445.651525","229212.235035","229962.135867","230745.48955","231512.181579","232261.67925","233028.293676","236928.149076","237678.05671","238444.944137","239211.563201","239978.183812","240744.997964","226911.78392","227678.756988","239987.111806","Mapping"
"Mixed","Both","tile","28","M_cling.wav","space","505.836726283","128","236162.003047","228445.651525","229212.235035","229962.135867","230745.48955","231512.181579","232261.67925","233028.293676","236928.149076","237678.05671","238444.944137","239211.563201","239978.183812","240744.997964","241511.251895","227678.756988","240754.194012","Mapping"
"Mixed","Both","tile","28","F_lash.wav","None","726.867120131","128","236162.003047","228445.651525","229212.235035","229962.135867","230745.48955","231512.181579","232261.67925","233028.293676","236928.149076","237678.05671","238444.944137","239211.563201","239978.183812","240744.997964","241511.251895","242278.04657","241520.110325","Mapping"
"Mixed","Both","tile","28","F_tile.wav","None","724.758868106","128","236162.003047","243045.279652","229212.235035","229962.135867","230745.48955","231512.181579","232261.67925","233028.293676","236928.149076","237678.05671","238444.944137","239211.563201","239978.183812","240744.997964","241511.251895","242278.04657","242287.492429","Mapping"
"Mixed","Both","tile","28","F_priest.wav","space","460.906440159","128","236162.003047","243045.279652","243811.854504","229962.135867","230745.48955","231512.181579","232261.67925","233028.293676","236928.149076","237678.05671","238444.944137","239211.563201","239978.183812","240744.997964","241511.251895","242278.04657","243055.065602","Mapping"
"Mixed","Both","tile","28","F_bluff.wav","None","720.318522537","128","236162.003047","243045.279652","243811.854504","244578.406169","230745.48955","231512.181579","232261.67925","233028.293676","236928.149076","237678.05671","238444.944137","239211.563201","239978.183812","240744.997964","241511.251895","242278.04657","243821.602117","Mapping"
"Mixed","Both","tile","28","F_tile.wav","None","719.307526248","128","236162.003047","243045.279652","243811.854504","244578.406169","245327.906932","231512.181579","232261.67925","233028.293676","236928.149076","237678.05671","238444.944137","239211.563201","239978.183812","240744.997964","241511.251895","242278.04657","244587.962403","Mapping"
"Mixed","Both","tile","28","F_jaw.wav","space","482.442826964","128","236162.003047","243045.279652","243811.854504","244578.406169","245327.906932","246094.306174","232261.67925","233028.293676","236928.149076","237678.05671","238444.944137","239211.563201","239978.183812","240744.997964","241511.251895","242278.04657","245337.43905","Mapping"
"Mixed","Both","tile","28","F_park.wav","None","735.153580201","128","236162.003047","243045.279652","243811.854504","244578.406169","245327.906932","246094.306174","246860.976561","233028.293676","236928.149076","237678.05671","238444.944137","239211.563201","239978.183812","240744.997964","241511.251895","242278.04657","246103.466357","Mapping"
"Mixed","Both","tile","28","F_cad.wav","None","734.311392531","128","236162.003047","243045.279652","243811.854504","244578.406169","245327.906932","246094.306174","246860.976561","247628.029704","236928.149076","237678.05671","238444.944137","239211.563201","239978.183812","240744.997964","241511.251895","242278.04657","246869.757389","Mapping"
"Mixed","Both","ball","3","M_reek.wav","None","735.852929996","128","250761.822551","243045.279652","243811.854504","244578.406169","245327.906932","246094.306174","246860.976561","247628.029704","236928.149076","237678.05671","238444.944137","239211.563201","239978.183812","240744.997964","241511.251895","242278.04657","247633.703032","Mapping"
"Mixed","Both","ball","3","F_cling.wav","None","716.06213518","128","250761.822551","243045.279652","243811.854504","244578.406169","245327.906932","246094.306174","246860.976561","247628.029704","251528.265387","237678.05671","238444.944137","239211.563201","239978.183812","240744.997964","241511.251895","242278.04657","250776.008036","Mapping"
"Mixed","Both","ball","3","F_ball.wav","None","719.673278159","128","250761.822551","243045.279652","243811.854504","244578.406169","245327.906932","246094.306174","246860.976561","247628.029704","251528.265387","252277.772642","238444.944137","239211.563201","239978.183812","240744.997964","241511.251895","242278.04657","251537.755149","Mapping"
"Mixed","Both","ball","3","M_depth.wav","space","426.893059746","128","250761.822551","243045.279652","243811.854504","244578.406169","245327.906932","246094.306174","246860.976561","247628.029704","251528.265387","252277.772642","253044.339765","239211.563201","239978.183812","240744.997964","241511.251895","242278.04657","252288.933486","Mapping"
"Mixed","Both","ball","3","F_greet.wav","None","733.940693783","128","250761.822551","243045.279652","243811.854504","244578.406169","245327.906932","246094.306174","246860.976561","247628.029704","251528.265387","252277.772642","253044.339765","253811.302012","239978.183812","240744.997964","241511.251895","242278.04657","253052.862434","Mapping"
"Mixed","Both","ball","3","F_reek.wav","None","724.782056059","128","250761.822551","243045.279652","243811.854504","244578.406169","245327.906932","246094.306174","246860.976561","247628.029704","251528.265387","252277.772642","253044.339765","253811.302012","254577.866971","240744.997964","241511.251895","242278.04657","253827.375927","Mapping"
"Mixed","Both","ball","3","M_ball.wav","None","730.764557491","128","250761.822551","243045.279652","243811.854504","244578.406169","245327.906932","246094.306174","246860.976561","247628.029704","251528.265387","252277.772642","253044.339765","253811.302012","254577.866971","255344.605994","241511.251895","242278.04657","254586.782598","Mapping"
"Mixed","Both","ball","3","F_cave.wav","space","449.803103111","128","250761.822551","243045.279652","243811.854504","244578.406169","245327.906932","246094.306174","246860.976561","247628.029704","251528.265387","252277.772642","253044.339765","253811.302012","254577.866971","255344.605994","256111.226295","242278.04657","255353.980126","Mapping"
"Mixed","Both","ball","3","M_dime.wav","None","726.070999168","128","250761.822551","243045.279652","243811.854504","244578.406169","245327.906932","246094.306174","246860.976561","247628.029704","251528.265387","252277.772642","253044.339765","253811.302012","254577.866971","255344.605994","256111.226295","256877.803003","256120.898779","Mapping"
"Mixed","Both","ball","3","M_ball.wav","None","725.474913139","128","250761.822551","257645.037631","243811.854504","244578.406169","245327.906932","246094.306174","246860.976561","247628.029704","251528.265387","252277.772642","253044.339765","253811.302012","254577.866971","255344.605994","256111.226295","256877.803003","256886.871053","Mapping"
"Mixed","Both","ball","3","M_reek.wav","space","524.976711487","128","250761.822551","257645.037631","258411.601663","244578.406169","245327.906932","246094.306174","246860.976561","247628.029704","251528.265387","252277.772642","253044.339765","253811.302012","254577.866971","255344.605994","256111.226295","256877.803003","257654.751235","Mapping"
"Mixed","Both","ball","3","F_bluff.wav","None","721.220380743","128","250761.822551","257645.037631","258411.601663","259178.106951","245327.906932","246094.306174","246860.976561","247628.029704","251528.265387","252277.772642","253044.339765","253811.302012","254577.866971","255344.605994","256111.226295","256877.803003","258421.344638","Mapping"
"Mixed","Both","ball","3","F_ball.wav","None","719.78334384","128","250761.822551","257645.037631","258411.601663","259178.106951","259945.016638","246094.306174","246860.976561","247628.029704","251528.265387","252277.772642","253044.339765","253811.302012","254577.866971","255344.605994","256111.226295","256877.803003","259188.253397","Mapping"
"Mixed","Both","ball","3","F_jolt.wav","space","440.905407537","128","250761.822551","257645.037631","258411.601663","259178.106951","259945.016638","260694.168035","246860.976561","247628.029704","251528.265387","252277.772642","253044.339765","253811.302012","254577.866971","255344.605994","256111.226295","256877.803003","259954.78682","Mapping"
"Mixed","Both","ball","3","M_depth.wav","None","734.282020945","128","250761.822551","257645.037631","258411.601663","259178.106951","259945.016638","260694.168035","261460.882943","247628.029704","251528.265387","252277.772642","253044.339765","253811.302012","254577.866971","255344.605994","256111.226295","256877.803003","260703.081808","Mapping"
"Mixed","Both","ball","3","M_lash.wav","None","732.886413229","128","250761.822551","257645.037631","258411.601663","259178.106951","259945.016638","260694.168035","261460.882943","262227.776553","251528.265387","252277.772642","253044.339765","253811.302012","254577.866971","255344.605994","256111.226295","256877.803003","261469.869371","Mapping"
"Mixed","Both","done","39","F_romp.wav","None","730.663148686","128","265361.648239","257645.037631","258411.601663","259178.106951","259945.016638","260694.168035","261460.882943","262227.776553","251528.265387","252277.772642","253044.339765","253811.302012","254577.866971","255344.605994","256111.226295","256877.803003","262237.524166","Mapping"
"Mixed","Both","done","39","F_done.wav","None","720.115705044","128","265361.648239","257645.037631","258411.601663","259178.106951","259945.016638","260694.168035","261460.882943","262227.776553","266128.341196","252277.772642","253044.339765","253811.302012","254577.866971","255344.605994","256111.226295","256877.803003","265371.507154","Mapping"
"Mixed","Both","done","39","F_gnash.wav","space","489.394277218","128","265361.648239","257645.037631","258411.601663","259178.106951","259945.016638","260694.168035","261460.882943","262227.776553","266128.341196","266877.800839","253044.339765","253811.302012","254577.866971","255344.605994","256111.226295","256877.803003","266138.183725","Mapping"
"Mixed","Both","done","39","M_ball.wav","None","733.507232973","128","265361.648239","257645.037631","258411.601663","259178.106951","259945.016638","260694.168035","261460.882943","262227.776553","266128.341196","266877.800839","267644.563669","253811.302012","254577.866971","255344.605994","256111.226295","256877.803003","266887.465284","Mapping"
"Mixed","Both","done","39","F_done.wav","None","732.422035071","128","265361.648239","257645.037631","258411.601663","259178.106951","259945.016638","260694.168035","261460.882943","262227.776553","266128.341196","266877.800839","267644.563669","268411.035566","254577.866971","255344.605994","256111.226295","256877.803003","267654.314064","Mapping"
"Mixed","Both","done","39","M_cad.wav","space","444.442039705","128","265361.648239","257645.037631","258411.601663","259178.106951","259945.016638","260694.168035","261460.882943","262227.776553","266128.341196","266877.800839","267644.563669","268411.035566","269177.175721","255344.605994","256111.226295","256877.803003","268415.107687","Mapping"
"Mixed","Both","done","39","F_depth.wav","None","730.386438663","128","265361.648239","257645.037631","258411.601663","259178.106951","259945.016638","260694.168035","261460.882943","262227.776553","266128.341196","266877.800839","267644.563669","268411.035566","269177.175721","269944.011825","256111.226295","256877.803003","269186.355692","Mapping"
"Mixed","Both","done","39","M_dime.wav","None","728.979082312","128","265361.648239","257645.037631","258411.601663","259178.106951","259945.016638","260694.168035","261460.882943","262227.776553","266128.341196","266877.800839","267644.563669","268411.035566","269177.175721","269944.011825","270710.991386","256877.803003","269953.204163","Mapping"
"Mixed","Both","done","39","F_greet.wav","None","726.891853963","128","265361.648239","257645.037631","258411.601663","259178.106951","259945.016638","260694.168035","261460.882943","262227.776553","266128.341196","266877.800839","267644.563669","268411.035566","269177.175721","269944.011825","270710.991386","271477.522645","270720.828658","Mapping"
"Mixed","Both","done","39","F_lash.wav","None","726.686872193","128","265361.648239","272244.41069","258411.601663","259178.106951","259945.016638","260694.168035","261460.882943","262227.776553","266128.341196","266877.800839","267644.563669","268411.035566","269177.175721","269944.011825","270710.991386","271477.522645","271486.484648","Mapping"
"Mixed","Both","done","39","M_done.wav","None","724.737844313","128","265361.648239","272244.41069","273011.386231","259178.106951","259945.016638","260694.168035","261460.882943","262227.776553","266128.341196","266877.800839","267644.563669","268411.035566","269177.175721","269944.011825","270710.991386","271477.522645","272253.79286","Mapping"
"Mixed","Both","done","39","M_jaw.wav","space","550.091159646","128","265361.648239","272244.41069","273011.386231","273777.796294","259945.016638","260694.168035","261460.882943","262227.776553","266128.341196","266877.800839","267644.563669","268411.035566","269177.175721","269944.011825","270710.991386","271477.522645","273021.336661","Mapping"
"Mixed","Both","done","39","M_done.wav","None","719.859400415","128","265361.648239","272244.41069","273011.386231","273777.796294","274544.731952","260694.168035","261460.882943","262227.776553","266128.341196","266877.800839","267644.563669","268411.035566","269177.175721","269944.011825","270710.991386","271477.522645","273788.262734","Mapping"
"Mixed","Both","done","39","M_cave.wav","space","512.931632809","128","265361.648239","272244.41069","273011.386231","273777.796294","274544.731952","275293.857687","261460.882943","262227.776553","266128.341196","266877.800839","267644.563669","268411.035566","269177.175721","269944.011825","270710.991386","271477.522645","274554.52223","Mapping"
"Mixed","Both","done","39","M_ball.wav","None","734.849662986","128","265361.648239","272244.41069","273011.386231","273777.796294","274544.731952","275293.857687","276060.852397","262227.776553","266128.341196","266877.800839","267644.563669","268411.035566","269177.175721","269944.011825","270710.991386","271477.522645","275302.998393","Mapping"
"Mixed","Both","done","39","F_gnash.wav","None","732.969889999","128","265361.648239","272244.41069","273011.386231","273777.796294","274544.731952","275293.857687","276060.852397","276827.219485","266128.341196","266877.800839","267644.563669","268411.035566","269177.175721","269944.011825","270710.991386","271477.522645","276070.418525","Mapping"
"Mixed","Both","tile","27","M_greet.wav","None","732.533955714","128","279977.761481","272244.41069","273011.386231","273777.796294","274544.731952","275293.857687","276060.852397","276827.219485","266128.341196","266877.800839","267644.563669","268411.035566","269177.175721","269944.011825","270710.991386","271477.522645","276836.355553","Mapping"
"Mixed","Both","tile","27","M_tile.wav","None","721.106605022","128","279977.761481","272244.41069","273011.386231","273777.796294","274544.731952","275293.857687","276060.852397","276827.219485","280744.204626","266877.800839","267644.563669","268411.035566","269177.175721","269944.011825","270710.991386","271477.522645","279987.316479","Mapping"
"Mixed","Both","tile","27","F_cling.wav","space","546.024295385","128","279977.761481","272244.41069","273011.386231","273777.796294","274544.731952","275293.857687","276060.852397","276827.219485","280744.204626","281493.755165","267644.563669","268411.035566","269177.175721","269944.011825","270710.991386","271477.522645","280753.297719","Mapping"
"Mixed","Both","tile","27","M_cad.wav","None","735.24231289","128","279977.761481","272244.41069","273011.386231","273777.796294","274544.731952","275293.857687","276060.852397","276827.219485","280744.204626","281493.755165","282260.256744","268411.035566","269177.175721","269944.011825","270710.991386","271477.522645","281502.793225","Mapping"
"Mixed","Both","tile","27","M_cave.wav","None","734.547291533","128","279977.761481","272244.41069","273011.386231","273777.796294","274544.731952","275293.857687","276060.852397","276827.219485","280744.204626","281493.755165","282260.256744","283027.357809","269177.175721","269944.011825","270710.991386","271477.522645","282269.313045","Mapping"
"Mixed","Both","tile","27","F_park.wav","None","732.636291999","128","279977.761481","272244.41069","273011.386231","273777.796294","274544.731952","275293.857687","276060.852397","276827.219485","280744.204626","281493.755165","282260.256744","283027.357809","283794.214937","269944.011825","270710.991386","271477.522645","283036.796558","Mapping"
"Mixed","Both","tile","27","F_knife.wav","None","731.39836255","128","279977.761481","272244.41069","273011.386231","273777.796294","274544.731952","275293.857687","276060.852397","276827.219485","280744.204626","281493.755165","282260.256744","283027.357809","283794.214937","284560.765674","270710.991386","271477.522645","283803.619058","Mapping"
"Mixed","Both","tile","27","F_tile.wav","None","729.95916137","128","279977.761481","272244.41069","273011.386231","273777.796294","274544.731952","275293.857687","276060.852397","276827.219485","280744.204626","281493.755165","282260.256744","283027.357809","283794.214937","284560.765674","285326.964572","271477.522645","284570.716413","Mapping"
"Mixed","Both","tile","27","F_reek.wav","space","403.001391562","128","279977.761481","272244.41069","273011.386231","273777.796294","274544.731952","275293.857687","276060.852397","276827.219485","280744.204626","281493.755165","282260.256744","283027.357809","283794.214937","284560.765674","285326.964572","286094.181886","285336.23513","Mapping"
"Mixed","Both","tile","27","M_dime.wav","None","726.926172152","128","279977.761481","286860.673262","273011.386231","273777.796294","274544.731952","275293.857687","276060.852397","276827.219485","280744.204626","281493.755165","282260.256744","283027.357809","283794.214937","284560.765674","285326.964572","286094.181886","286103.533448","Mapping"
"Mixed","Both","tile","27","F_park.wav","None","726.007927908","128","279977.761481","286860.673262","287627.240694","273777.796294","274544.731952","275293.857687","276060.852397","276827.219485","280744.204626","281493.755165","282260.256744","283027.357809","283794.214937","284560.765674","285326.964572","286094.181886","286870.238153","Mapping"
"Mixed","Both","tile","27","F_tile.wav","None","725.212116027","128","279977.761481","286860.673262","287627.240694","288393.48133","274544.731952","275293.857687","276060.852397","276827.219485","280744.204626","281493.755165","282260.256744","283027.357809","283794.214937","284560.765674","285326.964572","286094.181886","287636.761992","Mapping"
"Mixed","Both","tile","27","M_knife.wav","space","544.29199791","128","279977.761481","286860.673262","287627.240694","288393.48133","289160.994524","275293.857687","276060.852397","276827.219485","280744.204626","281493.755165","282260.256744","283027.357809","283794.214937","284560.765674","285326.964572","286094.181886","288402.870921","Mapping"
"Mixed","Both","tile","27","M_jaw.wav","None","720.843189512","128","279977.761481","286860.673262","287627.240694","288393.48133","289160.994524","289927.588854","276060.852397","276827.219485","280744.204626","281493.755165","282260.256744","283027.357809","283794.214937","284560.765674","285326.964572","286094.181886","289171.147462","Mapping"
"Mixed","Both","tile","27","M_tile.wav","None","720.312339137","128","279977.761481","286860.673262","287627.240694","288393.48133","289160.994524","289927.588854","290694.368998","276827.219485","280744.204626","281493.755165","282260.256744","283027.357809","283794.214937","284560.765674","285326.964572","286094.181886","289937.363674","Mapping"
"Mixed","Both","tile","27","F_jaw.wav","space","635.071123834","128","279977.761481","286860.673262","287627.240694","288393.48133","289160.994524","289927.588854","290694.368998","291443.527196","280744.204626","281493.755165","282260.256744","283027.357809","283794.214937","284560.765674","285326.964572","286094.181886","290704.051375","Mapping"
"Mixed","Both","done","40","F_cad.wav","None","735.208922182","128","294577.032822","286860.673262","287627.240694","288393.48133","289160.994524","289927.588854","290694.368998","291443.527196","280744.204626","281493.755165","282260.256744","283027.357809","283794.214937","284560.765674","285326.964572","286094.181886","291452.623381","Mapping"
"Mixed","Both","done","40","F_jaw.wav","None","722.065969603","128","294577.032822","286860.673262","287627.240694","288393.48133","289160.994524","289927.588854","290694.368998","291443.527196","295344.094931","281493.755165","282260.256744","283027.357809","283794.214937","284560.765674","285326.964572","286094.181886","294585.949686","Mapping"
"Mixed","Both","done","40","M_dime.wav","None","720.003784285","128","294577.032822","286860.673262","287627.240694","288393.48133","289160.994524","289927.588854","290694.368998","291443.527196","295344.094931","296111.058105","282260.256744","283027.357809","283794.214937","284560.765674","285326.964572","286094.181886","295353.794622","Mapping"
"Mixed","Both","done","40","M_tile.wav","None","718.097113189","128","294577.032822","286860.673262","287627.240694","288393.48133","289160.994524","289927.588854","290694.368998","291443.527196","295344.094931","296111.058105","296860.494869","283027.357809","283794.214937","284560.765674","285326.964572","286094.181886","296121.270096","Mapping"
"Mixed","Both","done","40","F_done.wav","None","735.006104689","128","294577.032822","286860.673262","287627.240694","288393.48133","289160.994524","289927.588854","290694.368998","291443.527196","295344.094931","296111.058105","296860.494869","297627.091982","283794.214937","284560.765674","285326.964572","286094.181886","296869.991124","Mapping"
"Mixed","Both","done","40","M_dime.wav","space","527.055282961","128","294577.032822","286860.673262","287627.240694","288393.48133","289160.994524","289927.588854","290694.368998","291443.527196","295344.094931","296111.058105","296860.494869","297627.091982","298393.372501","284560.765674","285326.964572","286094.181886","297635.975765","Mapping"
"Mixed","Both","done","40","M_park.wav","None","731.79626849","128","294577.032822","286860.673262","287627.240694","288393.48133","289160.994524","289927.588854","290694.368998","291443.527196","295344.094931","296111.058105","296860.494869","297627.091982","298393.372501","299160.410805","285326.964572","286094.181886","298402.60936","Mapping"
"Mixed","Both","done","40","M_done.wav","None","730.02223263","128","294577.032822","286860.673262","287627.240694","288393.48133","289160.994524","289927.588854","290694.368998","291443.527196","295344.094931","296111.058105","296860.494869","297627.091982","298393.372501","299160.410805","299926.880847","286094.181886","299170.021454","Mapping"
"Mixed","Both","done","40","M_cad.wav","None","729.843530455","128","294577.032822","286860.673262","287627.240694","288393.48133","289160.994524","289927.588854","290694.368998","291443.527196","295344.094931","296111.058105","296860.494869","297627.091982","298393.372501","299160.410805","299926.880847","300693.899364","299935.888918","Mapping"
"Mixed","Both","done","40","M_done.wav","space","11.8317492306","128","294577.032822","301460.443299","287627.240694","288393.48133","289160.994524","289927.588854","290694.368998","291443.527196","295344.094931","296111.058105","296860.494869","297627.091982","298393.372501","299160.410805","299926.880847","300693.899364","300703.120145","Mapping"
"Mixed","Both","done","40","F_tile.wav","space","621.000342187","128","294577.032822","301460.443299","302227.412038","288393.48133","289160.994524","289927.588854","290694.368998","291443.527196","295344.094931","296111.058105","296860.494869","297627.091982","298393.372501","299160.410805","299926.880847","300693.899364","301469.927187","Mapping"
"Mixed","Both","done","40","F_ball.wav","None","721.929005696","128","294577.032822","301460.443299","302227.412038","302993.753465","289160.994524","289927.588854","290694.368998","291443.527196","295344.094931","296111.058105","296860.494869","297627.091982","298393.372501","299160.410805","299926.880847","300693.899364","302237.205408","Mapping"
"Mixed","Both","done","40","M_reek.wav","None","722.125949105","128","294577.032822","301460.443299","302227.412038","302993.753465","303760.760851","289927.588854","290694.368998","291443.527196","295344.094931","296111.058105","296860.494869","297627.091982","298393.372501","299160.410805","299926.880847","300693.899364","303002.741439","Mapping"
"Mixed","Both","done","40","F_done.wav","None","719.687190955","128","294577.032822","301460.443299","302227.412038","302993.753465","303760.760851","304527.388881","290694.368998","291443.527196","295344.094931","296111.058105","296860.494869","297627.091982","298393.372501","299160.410805","299926.880847","300693.899364","303770.830313","Mapping"
"Mixed","Both","done","40","F_gnash.wav","space","641.514602466","128","294577.032822","301460.443299","302227.412038","302993.753465","303760.760851","304527.388881","305276.579852","291443.527196","295344.094931","296111.058105","296860.494869","297627.091982","298393.372501","299160.410805","299926.880847","300693.899364","304537.349205","Mapping"
