"Condition","Talker","Target","Trial","current_stimulus","response_response","response_time_response","subject_nr","time_Audio1","time_Audio10","time_Audio11","time_Audio12","time_Audio13","time_Audio14","time_Audio15","time_Audio16","time_Audio2","time_Audio3","time_Audio4","time_Audio5","time_Audio6","time_Audio7","time_Audio8","time_Audio9","time_response"
"Mixed","Both","ball","12","F_park.wav","NA","NA","131","96051.1687843","NA","NA","NA","NA","NA","NA","NA","NA","NA","NA","NA","NA","NA","NA","NA","NA"
"Mixed","Both","ball","12","F_ball.wav","None","715.633030632","131","96051.1687843","NA","NA","NA","NA","NA","NA","NA","96801.0769609","NA","NA","NA","NA","NA","NA","NA","96065.5578407"
"Mixed","Both","ball","12","F_tile.wav","space","560.072865104","131","96051.1687843","NA","NA","NA","NA","NA","NA","NA","96801.0769609","97567.8673366","NA","NA","NA","NA","NA","NA","96810.9070043"
"Mixed","Both","ball","12","M_gnash.wav","None","732.258309843","131","96051.1687843","NA","NA","NA","NA","NA","NA","NA","96801.0769609","97567.8673366","98334.1512927","NA","NA","NA","NA","NA","97577.2181673"
"Mixed","Both","ball","12","M_ball.wav","None","730.145754875","131","96051.1687843","NA","NA","NA","NA","NA","NA","NA","96801.0769609","97567.8673366","98334.1512927","99101.2703155","NA","NA","NA","NA","98343.5067609"
"Mixed","Both","ball","12","M_gnash.wav","space","444.021466246","131","96051.1687843","NA","NA","NA","NA","NA","NA","NA","96801.0769609","97567.8673366","98334.1512927","99101.2703155","99867.408962","NA","NA","NA","99110.9012538"
"Mixed","Both","ball","12","M_cad.wav","None","725.534801313","131","96051.1687843","NA","NA","NA","NA","NA","NA","NA","96801.0769609","97567.8673366","98334.1512927","99101.2703155","99867.408962","100634.664329","NA","NA","99876.5099837"
"Mixed","Both","ball","12","F_park.wav","None","721.912571811","131","96051.1687843","NA","NA","NA","NA","NA","NA","NA","96801.0769609","97567.8673366","98334.1512927","99101.2703155","99867.408962","100634.664329","101401.228083","NA","100644.526835"
"Mixed","Both","ball","12","F_priest.wav","None","719.138703309","131","96051.1687843","NA","NA","NA","NA","NA","NA","NA","96801.0769609","97567.8673366","98334.1512927","99101.2703155","99867.408962","100634.664329","101401.228083","102150.898199","101411.571966"
"Mixed","Both","ball","12","F_reek.wav","None","734.79102616","131","96051.1687843","102917.368584","NA","NA","NA","NA","NA","NA","96801.0769609","97567.8673366","98334.1512927","99101.2703155","99867.408962","100634.664329","101401.228083","102150.898199","102160.284893"
"Mixed","Both","ball","12","F_lash.wav","None","732.984548958","131","96051.1687843","102917.368584","103684.459473","NA","NA","NA","NA","NA","96801.0769609","97567.8673366","98334.1512927","99101.2703155","99867.408962","100634.664329","101401.228083","102150.898199","102926.344393"
"Mixed","Both","ball","12","M_ball.wav","None","729.514430801","131","96051.1687843","102917.368584","103684.459473","104451.274582","NA","NA","NA","NA","96801.0769609","97567.8673366","98334.1512927","99101.2703155","99867.408962","100634.664329","101401.228083","102150.898199","103693.92686"
"Mixed","Both","ball","12","M_cling.wav","space","470.435978437","131","96051.1687843","102917.368584","103684.459473","104451.274582","105217.685916","NA","NA","NA","96801.0769609","97567.8673366","98334.1512927","99101.2703155","99867.408962","100634.664329","101401.228083","102150.898199","104460.296147"
"Mixed","Both","ball","12","F_ball.wav","None","724.628934811","131","96051.1687843","102917.368584","103684.459473","104451.274582","105217.685916","105984.211333","NA","NA","96801.0769609","97567.8673366","98334.1512927","99101.2703155","99867.408962","100634.664329","101401.228083","102150.898199","105227.072919"
"Mixed","Both","ball","12","M_cad.wav","space","537.400231056","131","96051.1687843","102917.368584","103684.459473","104451.274582","105217.685916","105984.211333","106750.832284","NA","96801.0769609","97567.8673366","98334.1512927","99101.2703155","99867.408962","100634.664329","101401.228083","102150.898199","105993.316065"
"Mixed","Both","ball","12","M_reek.wav","None","719.890603446","131","96051.1687843","102917.368584","103684.459473","104451.274582","105217.685916","105984.211333","106750.832284","107500.571345","96801.0769609","97567.8673366","98334.1512927","99101.2703155","99867.408962","100634.664329","101401.228083","102150.898199","106760.206921"
"Mixed","Both","cave","20","F_lash.wav","None","734.869555221","131","110667.214","102917.368584","103684.459473","104451.274582","105217.685916","105984.211333","106750.832284","107500.571345","96801.0769609","97567.8673366","98334.1512927","99101.2703155","99867.408962","100634.664329","101401.228083","102150.898199","107509.606514"
"Mixed","Both","cave","20","M_cave.wav","None","723.390092724","131","110667.214","102917.368584","103684.459473","104451.274582","105217.685916","105984.211333","106750.832284","107500.571345","111434.489153","97567.8673366","98334.1512927","99101.2703155","99867.408962","100634.664329","101401.228083","102150.898199","110675.993485"
"Mixed","Both","cave","20","F_priest.wav","space","503.042845929","131","110667.214","102917.368584","103684.459473","104451.274582","105217.685916","105984.211333","106750.832284","107500.571345","111434.489153","112184.33766","98334.1512927","99101.2703155","99867.408962","100634.664329","101401.228083","102150.898199","111443.517211"
"Mixed","Both","cave","20","M_greet.wav","None","733.815596497","131","110667.214","102917.368584","103684.459473","104451.274582","105217.685916","105984.211333","106750.832284","107500.571345","111434.489153","112184.33766","112951.179358","99101.2703155","99867.408962","100634.664329","101401.228083","102150.898199","112193.633768"
"Mixed","Both","cave","20","F_jolt.wav","None","731.20156856","131","110667.214","102917.368584","103684.459473","104451.274582","105217.685916","105984.211333","106750.832284","107500.571345","111434.489153","112184.33766","112951.179358","113717.522056","99867.408962","100634.664329","101401.228083","102150.898199","112960.510093"
"Mixed","Both","cave","20","M_cave.wav","None","729.577501363","131","110667.214","102917.368584","103684.459473","104451.274582","105217.685916","105984.211333","106750.832284","107500.571345","111434.489153","112184.33766","112951.179358","113717.522056","114484.133423","100634.664329","101401.228083","102150.898199","113726.444378"
"Mixed","Both","cave","20","F_bluff.wav","space","484.79102616","131","110667.214","102917.368584","103684.459473","104451.274582","105217.685916","105984.211333","106750.832284","107500.571345","111434.489153","112184.33766","112951.179358","113717.522056","114484.133423","115251.254919","101401.228083","102150.898199","114493.652751"
"Mixed","Both","cave","20","M_lash.wav","None","723.450689926","131","110667.214","102917.368584","103684.459473","104451.274582","105217.685916","105984.211333","106750.832284","107500.571345","111434.489153","112184.33766","112951.179358","113717.522056","114484.133423","115251.254919","116017.173437","102150.898199","115261.077233"
"Mixed","Both","cave","20","M_dime.wav","None","722.988172376","131","110667.214","102917.368584","103684.459473","104451.274582","105217.685916","105984.211333","106750.832284","107500.571345","111434.489153","112184.33766","112951.179358","113717.522056","114484.133423","115251.254919","116017.173437","116784.416436","116026.082155"
"Mixed","Both","cave","20","F_cave.wav","None","719.848247245","131","110667.214","117533.997512","103684.459473","104451.274582","105217.685916","105984.211333","106750.832284","107500.571345","111434.489153","112184.33766","112951.179358","113717.522056","114484.133423","115251.254919","116017.173437","116784.416436","116794.118793"
"Mixed","Both","cave","20","M_park.wav","space","450.950881641","131","110667.214","117533.997512","118300.814167","104451.274582","105217.685916","105984.211333","106750.832284","107500.571345","111434.489153","112184.33766","112951.179358","113717.522056","114484.133423","115251.254919","116017.173437","116784.416436","117543.421925"
"Mixed","Both","cave","20","F_cave.wav","None","732.539963268","131","110667.214","117533.997512","118300.814167","119067.964416","105217.685916","105984.211333","106750.832284","107500.571345","111434.489153","112184.33766","112951.179358","113717.522056","114484.133423","115251.254919","116017.173437","116784.416436","118309.81409"
"Mixed","Both","cave","20","M_jolt.wav","space","453.08507845","131","110667.214","117533.997512","118300.814167","119067.964416","119834.012476","105984.211333","106750.832284","107500.571345","111434.489153","112184.33766","112951.179358","113717.522056","114484.133423","115251.254919","116017.173437","116784.416436","119077.201163"
"Mixed","Both","cave","20","F_jaw.wav","None","727.164124488","131","110667.214","117533.997512","118300.814167","119067.964416","119834.012476","120600.806252","106750.832284","107500.571345","111434.489153","112184.33766","112951.179358","113717.522056","114484.133423","115251.254919","116017.173437","116784.416436","119843.895078"
"Mixed","Both","cave","20","F_reek.wav","None","725.554588193","131","110667.214","117533.997512","118300.814167","119067.964416","119834.012476","120600.806252","121367.855403","107500.571345","111434.489153","112184.33766","112951.179358","113717.522056","114484.133423","115251.254919","116017.173437","116784.416436","120610.039908"
"Mixed","Both","cave","20","M_depth.wav","None","722.411880502","131","110667.214","117533.997512","118300.814167","119067.964416","119834.012476","120600.806252","121367.855403","122134.212941","111434.489153","112184.33766","112951.179358","113717.522056","114484.133423","115251.254919","116017.173437","116784.416436","121377.324954"
"Mixed","Both","done","48","M_cling.wav","None","720.416809898","131","125250.935238","117533.997512","118300.814167","119067.964416","119834.012476","120600.806252","121367.855403","122134.212941","111434.489153","112184.33766","112951.179358","113717.522056","114484.133423","115251.254919","116017.173437","116784.416436","122143.903858"
"Mixed","Both","done","48","F_done.wav","None","720.922302047","131","125250.935238","117533.997512","118300.814167","119067.964416","119834.012476","120600.806252","121367.855403","122134.212941","126017.662234","112184.33766","112951.179358","113717.522056","114484.133423","115251.254919","116017.173437","116784.416436","125260.738074"
"Mixed","Both","done","48","M_priest.wav","space","446.710931486","131","125250.935238","117533.997512","118300.814167","119067.964416","119834.012476","120600.806252","121367.855403","122134.212941","126017.662234","126766.786975","112951.179358","113717.522056","114484.133423","115251.254919","116017.173437","116784.416436","126027.41684"
"Mixed","Both","done","48","F_jaw.wav","None","734.36993733","131","125250.935238","117533.997512","118300.814167","119067.964416","119834.012476","120600.806252","121367.855403","122134.212941","126017.662234","126766.786975","127533.823449","113717.522056","114484.133423","115251.254919","116017.173437","116784.416436","126775.930353"
"Mixed","Both","done","48","F_greet.wav","None","731.499917107","131","125250.935238","117533.997512","118300.814167","119067.964416","119834.012476","120600.806252","121367.855403","122134.212941","126017.662234","126766.786975","127533.823449","128300.596512","114484.133423","115251.254919","116017.173437","116784.416436","127543.232713"
"Mixed","Both","done","48","F_priest.wav","None","729.401583958","131","125250.935238","117533.997512","118300.814167","119067.964416","119834.012476","120600.806252","121367.855403","122134.212941","126017.662234","126766.786975","127533.823449","128300.596512","129067.300629","115251.254919","116017.173437","116784.416436","128309.661051"
"Mixed","Both","done","48","M_greet.wav","None","727.118985727","131","125250.935238","117533.997512","118300.814167","119067.964416","119834.012476","120600.806252","121367.855403","122134.212941","126017.662234","126766.786975","127533.823449","128300.596512","129067.300629","129833.667752","116017.173437","116784.416436","129076.408143"
"Mixed","Both","done","48","M_ball.wav","None","724.733743235","131","125250.935238","117533.997512","118300.814167","119067.964416","119834.012476","120600.806252","121367.855403","122134.212941","126017.662234","126766.786975","127533.823449","128300.596512","129067.300629","129833.667752","130600.854792","116784.416436","129843.09402"
"Mixed","Both","done","48","F_done.wav","None","721.241674095","131","125250.935238","117533.997512","118300.814167","119067.964416","119834.012476","120600.806252","121367.855403","122134.212941","126017.662234","126766.786975","127533.823449","128300.596512","129067.300629","129833.667752","130600.854792","131367.592609","130610.987821"
"Mixed","Both","done","48","F_jaw.wav","space","433.073775261","131","125250.935238","132116.59801","118300.814167","119067.964416","119834.012476","120600.806252","121367.855403","122134.212941","126017.662234","126766.786975","127533.823449","128300.596512","129067.300629","129833.667752","130600.854792","131367.592609","131376.901083"
"Mixed","Both","done","48","M_tile.wav","None","735.70153024","131","125250.935238","132116.59801","132883.663856","119067.964416","119834.012476","120600.806252","121367.855403","122134.212941","126017.662234","126766.786975","127533.823449","128300.596512","129067.300629","129833.667752","130600.854792","131367.592609","132125.428509"
"Mixed","Both","done","48","M_done.wav","None","732.713098172","131","125250.935238","132116.59801","132883.663856","133649.862481","119834.012476","120600.806252","121367.855403","122134.212941","126017.662234","126766.786975","127533.823449","128300.596512","129067.300629","129833.667752","130600.854792","131367.592609","132893.134645"
"Mixed","Both","done","48","F_ball.wav","space","654.888649529","131","125250.935238","132116.59801","132883.663856","133649.862481","134417.2882","120600.806252","121367.855403","122134.212941","126017.662234","126766.786975","127533.823449","128300.596512","129067.300629","129833.667752","130600.854792","131367.592609","133658.932277"
"Mixed","Both","done","48","M_done.wav","None","727.900566184","131","125250.935238","132116.59801","132883.663856","133649.862481","134417.2882","135183.706027","121367.855403","122134.212941","126017.662234","126766.786975","127533.823449","128300.596512","129067.300629","129833.667752","130600.854792","131367.592609","134426.428177"
"Mixed","Both","done","48","M_jolt.wav","space","544.353452453","131","125250.935238","132116.59801","132883.663856","133649.862481","134417.2882","135183.706027","135950.384483","122134.212941","126017.662234","126766.786975","127533.823449","128300.596512","129067.300629","129833.667752","130600.854792","131367.592609","135193.483821"
"Mixed","Both","done","48","F_bluff.wav","None","722.617478226","131","125250.935238","132116.59801","132883.663856","133649.862481","134417.2882","135183.706027","135950.384483","136716.620518","126017.662234","126766.786975","127533.823449","128300.596512","129067.300629","129833.667752","130600.854792","131367.592609","135960.191648"
"Mixed","Both","ball","9","M_priest.wav","None","721.851665468","131","139834.207252","132116.59801","132883.663856","133649.862481","134417.2882","135183.706027","135950.384483","136716.620518","126017.662234","126766.786975","127533.823449","128300.596512","129067.300629","129833.667752","130600.854792","131367.592609","136725.572829"
"Mixed","Both","ball","9","F_jaw.wav","None","720.248930913","131","139834.207252","132116.59801","132883.663856","133649.862481","134417.2882","135183.706027","135950.384483","136716.620518","140583.715673","126766.786975","127533.823449","128300.596512","129067.300629","129833.667752","130600.854792","131367.592609","139843.85334"
"Mixed","Both","ball","9","M_ball.wav","None","735.259108769","131","139834.207252","132116.59801","132883.663856","133649.862481","134417.2882","135183.706027","135950.384483","136716.620518","140583.715673","141349.796196","127533.823449","128300.596512","129067.300629","129833.667752","130600.854792","131367.592609","140593.141323"
"Mixed","Both","ball","9","M_gnash.wav","space","427.075269166","131","139834.207252","132116.59801","132883.663856","133649.862481","134417.2882","135183.706027","135950.384483","136716.620518","140583.715673","141349.796196","142116.269982","128300.596512","129067.300629","129833.667752","130600.854792","131367.592609","141358.599178"
"Mixed","Both","ball","9","F_cad.wav","None","731.660994468","131","139834.207252","132116.59801","132883.663856","133649.862481","134417.2882","135183.706027","135950.384483","136716.620518","140583.715673","141349.796196","142116.269982","142882.890623","129067.300629","129833.667752","130600.854792","131367.592609","142125.238679"
"Mixed","Both","ball","9","M_ball.wav","None","729.629441863","131","139834.207252","132116.59801","132883.663856","133649.862481","134417.2882","135183.706027","135950.384483","136716.620518","140583.715673","141349.796196","142116.269982","142882.890623","143650.095286","129833.667752","130600.854792","131367.592609","142891.715866"
"Mixed","Both","ball","9","M_reek.wav","space","390.592653188","131","139834.207252","132116.59801","132883.663856","133649.862481","134417.2882","135183.706027","135950.384483","136716.620518","140583.715673","141349.796196","142116.269982","142882.890623","143650.095286","144417.11692","130600.854792","131367.592609","143659.00184"
"Mixed","Both","ball","9","F_ball.wav","None","723.600637168","131","139834.207252","132116.59801","132883.663856","133649.862481","134417.2882","135183.706027","135950.384483","136716.620518","140583.715673","141349.796196","142116.269982","142882.890623","143650.095286","144417.11692","145183.838661","131367.592609","144426.742912"
"Mixed","Both","ball","9","F_dime.wav","space","479.589558963","131","139834.207252","132116.59801","132883.663856","133649.862481","134417.2882","135183.706027","135950.384483","136716.620518","140583.715673","141349.796196","142116.269982","142882.890623","143650.095286","144417.11692","145183.838661","145949.69689","145193.945101"
"Mixed","Both","ball","9","M_park.wav","None","719.832170464","131","139834.207252","146699.712967","132883.663856","133649.862481","134417.2882","135183.706027","135950.384483","136716.620518","140583.715673","141349.796196","142116.269982","142882.890623","143650.095286","144417.11692","145183.838661","145949.69689","145958.72062"
"Mixed","Both","ball","9","F_greet.wav","None","734.229574387","131","139834.207252","146699.712967","147466.652053","133649.862481","134417.2882","135183.706027","135950.384483","136716.620518","140583.715673","141349.796196","142116.269982","142882.890623","143650.095286","144417.11692","145183.838661","145949.69689","146709.356272"
"Mixed","Both","ball","9","F_lash.wav","None","732.106507639","131","139834.207252","146699.712967","147466.652053","148233.176543","134417.2882","135183.706027","135950.384483","136716.620518","140583.715673","141349.796196","142116.269982","142882.890623","143650.095286","144417.11692","145183.838661","145949.69689","147476.035965"
"Mixed","Both","ball","9","F_ball.wav","None","730.084230134","131","139834.207252","146699.712967","147466.652053","148233.176543","148999.930128","135183.706027","135950.384483","136716.620518","140583.715673","141349.796196","142116.269982","142882.890623","143650.095286","144417.11692","145183.838661","145949.69689","148242.497075"
"Mixed","Both","ball","9","M_jaw.wav","space","423.913702136","131","139834.207252","146699.712967","147466.652053","148233.176543","148999.930128","149766.503776","135950.384483","136716.620518","140583.715673","141349.796196","142116.269982","142882.890623","143650.095286","144417.11692","145183.838661","145949.69689","149009.550245"
"Mixed","Both","ball","9","F_reek.wav","None","725.383308309","131","139834.207252","146699.712967","147466.652053","148233.176543","148999.930128","149766.503776","150533.468523","136716.620518","140583.715673","141349.796196","142116.269982","142882.890623","143650.095286","144417.11692","145183.838661","145949.69689","149775.608507"
"Mixed","Both","ball","9","M_jaw.wav","None","722.182785976","131","139834.207252","146699.712967","147466.652053","148233.176543","148999.930128","149766.503776","150533.468523","151300.155018","140583.715673","141349.796196","142116.269982","142882.890623","143650.095286","144417.11692","145183.838661","145949.69689","150543.013512"
"Mixed","Both","cave","21","F_depth.wav","None","719.594728318","131","154416.777143","146699.712967","147466.652053","148233.176543","148999.930128","149766.503776","150533.468523","151300.155018","140583.715673","141349.796196","142116.269982","142882.890623","143650.095286","144417.11692","145183.838661","145949.69689","151310.064517"
"Mixed","Both","cave","21","F_cave.wav","None","720.419283258","131","154416.777143","146699.712967","147466.652053","148233.176543","148999.930128","149766.503776","150533.468523","151300.155018","155166.211054","141349.796196","142116.269982","142882.890623","143650.095286","144417.11692","145183.838661","145949.69689","154426.321823"
"Mixed","Both","cave","21","M_reek.wav","space","441.812450415","131","154416.777143","146699.712967","147466.652053","148233.176543","148999.930128","149766.503776","150533.468523","151300.155018","155166.211054","155932.947325","142116.269982","142882.890623","143650.095286","144417.11692","145183.838661","145949.69689","155175.429251"
"Mixed","Both","cave","21","F_knife.wav","None","732.797192293","131","154416.777143","146699.712967","147466.652053","148233.176543","148999.930128","149766.503776","150533.468523","151300.155018","155166.211054","155932.947325","156699.223861","142882.890623","143650.095286","144417.11692","145183.838661","145949.69689","155942.648445"
"Mixed","Both","cave","21","F_romp.wav","None","731.795483152","131","154416.777143","146699.712967","147466.652053","148233.176543","148999.930128","149766.503776","150533.468523","151300.155018","155166.211054","155932.947325","156699.223861","157465.923959","143650.095286","144417.11692","145183.838661","145949.69689","156708.024061"
"Mixed","Both","cave","21","F_cave.wav","None","729.665923805","131","154416.777143","146699.712967","147466.652053","148233.176543","148999.930128","149766.503776","150533.468523","151300.155018","155166.211054","155932.947325","156699.223861","157465.923959","158232.869847","144417.11692","145183.838661","145949.69689","157474.635118"
"Mixed","Both","cave","21","M_cling.wav","space","382.869599736","131","154416.777143","146699.712967","147466.652053","148233.176543","148999.930128","149766.503776","150533.468523","151300.155018","155166.211054","155932.947325","156699.223861","157465.923959","158232.869847","159000.056887","145183.838661","145949.69689","158242.283748"
"Mixed","Both","cave","21","M_cave.wav","None","722.569247824","131","154416.777143","146699.712967","147466.652053","148233.176543","148999.930128","149766.503776","150533.468523","151300.155018","155166.211054","155932.947325","156699.223861","157465.923959","158232.869847","159000.056887","159766.671345","145949.69689","159010.165183"
"Mixed","Both","cave","21","M_done.wav","space","560.472621175","131","154416.777143","146699.712967","147466.652053","148233.176543","148999.930128","149766.503776","150533.468523","151300.155018","155166.211054","155932.947325","156699.223861","157465.923959","158232.869847","159000.056887","159766.671345","160516.169563","159776.653809"
"Mixed","Both","cave","21","M_knife.wav","None","735.828598903","131","154416.777143","161282.834107","147466.652053","148233.176543","148999.930128","149766.503776","150533.468523","151300.155018","155166.211054","155932.947325","156699.223861","157465.923959","158232.869847","159000.056887","159766.671345","160516.169563","160525.300265"
"Mixed","Both","cave","21","F_knife.wav","None","733.344422246","131","154416.777143","161282.834107","162049.46186","148233.176543","148999.930128","149766.503776","150533.468523","151300.155018","155166.211054","155932.947325","156699.223861","157465.923959","158232.869847","159000.056887","159766.671345","160516.169563","161292.2511"
"Mixed","Both","cave","21","M_cave.wav","None","730.991333374","131","154416.777143","161282.834107","162049.46186","162816.114655","148999.930128","149766.503776","150533.468523","151300.155018","155166.211054","155932.947325","156699.223861","157465.923959","158232.869847","159000.056887","159766.671345","160516.169563","162059.100218"
"Mixed","Both","cave","21","F_tile.wav","space","335.558322957","131","154416.777143","161282.834107","162049.46186","162816.114655","163582.61472","149766.503776","150533.468523","151300.155018","155166.211054","155932.947325","156699.223861","157465.923959","158232.869847","159000.056887","159766.671345","160516.169563","162825.468268"
"Mixed","Both","cave","21","F_depth.wav","None","726.546713035","131","154416.777143","161282.834107","162049.46186","162816.114655","163582.61472","164349.438486","150533.468523","151300.155018","155166.211054","155932.947325","156699.223861","157465.923959","158232.869847","159000.056887","159766.671345","160516.169563","163592.373036"
"Mixed","Both","cave","21","M_greet.wav","None","724.51732459","131","154416.777143","161282.834107","162049.46186","162816.114655","163582.61472","164349.438486","165116.492274","151300.155018","155166.211054","155932.947325","156699.223861","157465.923959","158232.869847","159000.056887","159766.671345","160516.169563","164358.860117"
"Mixed","Both","cave","21","M_knife.wav","None","721.42470238","131","154416.777143","161282.834107","162049.46186","162816.114655","163582.61472","164349.438486","165116.492274","165882.486848","155166.211054","155932.947325","156699.223861","157465.923959","158232.869847","159000.056887","159766.671345","160516.169563","165126.646946"
"Mixed","Both","done","39","M_priest.wav","None","721.828477748","131","168999.037865","161282.834107","162049.46186","162816.114655","163582.61472","164349.438486","165116.492274","165882.486848","155166.211054","155932.947325","156699.223861","157465.923959","158232.869847","159000.056887","159766.671345","160516.169563","165891.348882"
"Mixed","Both","done","39","M_jolt.wav","None","722.39178454","131","168999.037865","161282.834107","162049.46186","162816.114655","163582.61472","164349.438486","165116.492274","165882.486848","169765.714775","155932.947325","156699.223861","157465.923959","158232.869847","159000.056887","159766.671345","160516.169563","169007.998833"
"Mixed","Both","done","39","F_done.wav","None","720.203792152","131","168999.037865","161282.834107","162049.46186","162816.114655","163582.61472","164349.438486","165116.492274","165882.486848","169765.714775","170515.630681","156699.223861","157465.923959","158232.869847","159000.056887","159766.671345","160516.169563","169774.907002"
"Mixed","Both","done","39","F_cave.wav","space","403.96794281","131","168999.037865","161282.834107","162049.46186","162816.114655","163582.61472","164349.438486","165116.492274","165882.486848","169765.714775","170515.630681","171282.529884","157465.923959","158232.869847","159000.056887","159766.671345","160516.169563","170524.839912"
"Mixed","Both","done","39","F_done.wav","None","731.405002123","131","168999.037865","161282.834107","162049.46186","162816.114655","163582.61472","164349.438486","165116.492274","165882.486848","169765.714775","170515.630681","171282.529884","172048.755717","158232.869847","159000.056887","159766.671345","160516.169563","171292.059106"
"Mixed","Both","done","39","M_priest.wav","space","511.123299249","131","168999.037865","161282.834107","162049.46186","162816.114655","163582.61472","164349.438486","165116.492274","165882.486848","169765.714775","170515.630681","171282.529884","172048.755717","172815.886179","159000.056887","159766.671345","160516.169563","172057.582814"
"Mixed","Both","done","39","M_ball.wav","None","726.495390933","131","168999.037865","161282.834107","162049.46186","162816.114655","163582.61472","164349.438486","165116.492274","165882.486848","169765.714775","170515.630681","171282.529884","172048.755717","172815.886179","173582.038429","159766.671345","160516.169563","172825.465795"
"Mixed","Both","done","39","F_romp.wav","None","725.90271302","131","168999.037865","161282.834107","162049.46186","162816.114655","163582.61472","164349.438486","165116.492274","165882.486848","169765.714775","170515.630681","171282.529884","172048.755717","172815.886179","173582.038429","174348.736672","160516.169563","173590.780195"
"Mixed","Both","done","39","F_lash.wav","None","725.589833513","131","168999.037865","161282.834107","162049.46186","162816.114655","163582.61472","164349.438486","165116.492274","165882.486848","169765.714775","170515.630681","171282.529884","172048.755717","172815.886179","173582.038429","174348.736672","175116.064075","174357.750199"
"Mixed","Both","done","39","F_knife.wav","None","722.008414334","131","168999.037865","175882.531368","162049.46186","162816.114655","163582.61472","164349.438486","165116.492274","165882.486848","169765.714775","170515.630681","171282.529884","172048.755717","172815.886179","173582.038429","174348.736672","175116.064075","175125.745717"
"Mixed","Both","done","39","M_done.wav","None","720.658889622","131","168999.037865","175882.531368","176632.749024","162816.114655","163582.61472","164349.438486","165116.492274","165882.486848","169765.714775","170515.630681","171282.529884","172048.755717","172815.886179","173582.038429","174348.736672","175116.064075","175892.367904"
"Mixed","Both","done","39","M_priest.wav","space","446.36435248","131","168999.037865","175882.531368","176632.749024","177398.876849","163582.61472","164349.438486","165116.492274","165882.486848","169765.714775","170515.630681","171282.529884","172048.755717","172815.886179","173582.038429","174348.736672","175116.064075","176642.241145"
"Mixed","Both","done","39","M_done.wav","None","733.362972387","131","168999.037865","175882.531368","176632.749024","177398.876849","178165.658877","164349.438486","165116.492274","165882.486848","169765.714775","170515.630681","171282.529884","172048.755717","172815.886179","173582.038429","174348.736672","175116.064075","177408.499131"
"Mixed","Both","done","39","M_cad.wav","space","577.771580603","131","168999.037865","175882.531368","176632.749024","177398.876849","178165.658877","178932.391438","165116.492274","165882.486848","169765.714775","170515.630681","171282.529884","172048.755717","172815.886179","173582.038429","174348.736672","175116.064075","178174.784633"
"Mixed","Both","done","39","F_cad.wav","None","728.409768257","131","168999.037865","175882.531368","176632.749024","177398.876849","178165.658877","178932.391438","179698.482782","165882.486848","169765.714775","170515.630681","171282.529884","172048.755717","172815.886179","173582.038429","174348.736672","175116.064075","178942.070916"
"Mixed","Both","done","39","F_romp.wav","None","727.938284806","131","168999.037865","175882.531368","176632.749024","177398.876849","178165.658877","178932.391438","179698.482782","180465.630866","169765.714775","170515.630681","171282.529884","172048.755717","172815.886179","173582.038429","174348.736672","175116.064075","179707.258557"
"Mixed","Both","tile","33","M_jolt.wav","None","724.925428338","131","183599.294104","175882.531368","176632.749024","177398.876849","178165.658877","178932.391438","179698.482782","180465.630866","169765.714775","170515.630681","171282.529884","172048.755717","172815.886179","173582.038429","174348.736672","175116.064075","180475.135045"
"Mixed","Both","tile","33","M_romp.wav","None","721.085852652","131","183599.294104","175882.531368","176632.749024","177398.876849","178165.658877","178932.391438","179698.482782","180465.630866","184365.797262","170515.630681","171282.529884","172048.755717","172815.886179","173582.038429","174348.736672","175116.064075","183608.953177"
"Mixed","Both","tile","33","F_tile.wav","None","718.972370145","131","183599.294104","175882.531368","176632.749024","177398.876849","178165.658877","178932.391438","179698.482782","180465.630866","184365.797262","185114.991566","171282.529884","172048.755717","172815.886179","173582.038429","174348.736672","175116.064075","184375.652038"
"Mixed","Both","tile","33","F_done.wav","space","428.396041156","131","183599.294104","175882.531368","176632.749024","177398.876849","178165.658877","178932.391438","179698.482782","180465.630866","184365.797262","185114.991566","185881.619628","172048.755717","172815.886179","173582.038429","174348.736672","175116.064075","185123.970156"
"Mixed","Both","tile","33","M_tile.wav","None","733.729338215","131","183599.294104","175882.531368","176632.749024","177398.876849","178165.658877","178932.391438","179698.482782","180465.630866","184365.797262","185114.991566","185881.619628","186648.775442","172815.886179","173582.038429","174348.736672","175116.064075","185890.536075"
"Mixed","Both","tile","33","F_cad.wav","space","502.019185864","131","183599.294104","175882.531368","176632.749024","177398.876849","178165.658877","178932.391438","179698.482782","180465.630866","184365.797262","185114.991566","185881.619628","186648.775442","187415.46441","173582.038429","174348.736672","175116.064075","186658.23881"
"Mixed","Both","tile","33","F_done.wav","None","728.406676557","131","183599.294104","175882.531368","176632.749024","177398.876849","178165.658877","178932.391438","179698.482782","180465.630866","184365.797262","185114.991566","185881.619628","186648.775442","187415.46441","188182.042695","174348.736672","175116.064075","187424.754025"
"Mixed","Both","tile","33","M_cad.wav","None","726.642246416","131","183599.294104","175882.531368","176632.749024","177398.876849","178165.658877","178932.391438","179698.482782","180465.630866","184365.797262","185114.991566","185881.619628","186648.775442","187415.46441","188182.042695","188948.670138","175116.064075","188191.449795"
"Mixed","Both","tile","33","M_priest.wav","None","725.392274268","131","183599.294104","175882.531368","176632.749024","177398.876849","178165.658877","178932.391438","179698.482782","180465.630866","184365.797262","185114.991566","185881.619628","186648.775442","187415.46441","188182.042695","188948.670138","189715.040662","188958.140309"
"Mixed","Both","tile","33","F_tile.wav","None","724.305852724","131","183599.294104","190482.643226","176632.749024","177398.876849","178165.658877","178932.391438","179698.482782","180465.630866","184365.797262","185114.991566","185881.619628","186648.775442","187415.46441","188182.042695","188948.670138","189715.040662","189724.056971"
"Mixed","Both","tile","33","M_ball.wav","space","427.7273076","131","183599.294104","190482.643226","191248.980359","177398.876849","178165.658877","178932.391438","179698.482782","180465.630866","184365.797262","185114.991566","185881.619628","186648.775442","187415.46441","188182.042695","188948.670138","189715.040662","190492.465849"
"Mixed","Both","tile","33","M_tile.wav","None","718.579415756","131","183599.294104","190482.643226","191248.980359","191998.437457","178165.658877","178932.391438","179698.482782","180465.630866","184365.797262","185114.991566","185881.619628","186648.775442","187415.46441","188182.042695","188948.670138","189715.040662","191258.819678"
"Mixed","Both","tile","33","F_bluff.wav","space","535.756995261","131","183599.294104","190482.643226","191248.980359","191998.437457","192764.858067","178932.391438","179698.482782","180465.630866","184365.797262","185114.991566","185881.619628","186648.775442","187415.46441","188182.042695","188948.670138","189715.040662","192008.365508"
"Mixed","Both","tile","33","M_jolt.wav","None","732.912203297","131","183599.294104","190482.643226","191248.980359","191998.437457","192764.858067","193531.838891","179698.482782","180465.630866","184365.797262","185114.991566","185881.619628","186648.775442","187415.46441","188182.042695","188948.670138","189715.040662","192773.977948"
"Mixed","Both","tile","33","F_bluff.wav","None","730.054549873","131","183599.294104","190482.643226","191248.980359","191998.437457","192764.858067","193531.838891","194298.613499","180465.630866","184365.797262","185114.991566","185881.619628","186648.775442","187415.46441","188182.042695","188948.670138","189715.040662","193541.554232"
"Mixed","Both","tile","33","F_gnash.wav","None","728.721101885","131","183599.294104","190482.643226","191248.980359","191998.437457","192764.858067","193531.838891","194298.613499","195065.147882","184365.797262","185114.991566","185881.619628","186648.775442","187415.46441","188182.042695","188948.670138","189715.040662","194307.601364"
"Mixed","Both","cave","16","F_depth.wav","None","726.525689533","131","198198.783913","190482.643226","191248.980359","191998.437457","192764.858067","193531.838891","194298.613499","195065.147882","184365.797262","185114.991566","185881.619628","186648.775442","187415.46441","188182.042695","188948.670138","189715.040662","195074.53705"
"Mixed","Both","cave","16","F_cave.wav","None","720.958474849","131","198198.783913","190482.643226","191248.980359","191998.437457","192764.858067","193531.838891","194298.613499","195065.147882","198964.729637","185114.991566","185881.619628","186648.775442","187415.46441","188182.042695","188948.670138","189715.040662","198208.629415"
"Mixed","Both","cave","16","F_cad.wav","space","393.755766039","131","198198.783913","190482.643226","191248.980359","191998.437457","192764.858067","193531.838891","194298.613499","195065.147882","198964.729637","199714.989649","185881.619628","186648.775442","187415.46441","188182.042695","188948.670138","189715.040662","198974.150031"
"Mixed","Both","cave","16","M_cad.wav","None","734.124456823","131","198198.783913","190482.643226","191248.980359","191998.437457","192764.858067","193531.838891","194298.613499","195065.147882","198964.729637","199714.989649","200481.556495","186648.775442","187415.46441","188182.042695","188948.670138","189715.040662","199724.208773"
"Mixed","Both","cave","16","M_depth.wav","None","732.036635338","131","198198.783913","190482.643226","191248.980359","191998.437457","192764.858067","193531.838891","194298.613499","195065.147882","198964.729637","199714.989649","200481.556495","201248.266487","187415.46441","188182.042695","188948.670138","189715.040662","200490.990183"
"Mixed","Both","cave","16","M_cad.wav","None","730.374540261","131","198198.783913","190482.643226","191248.980359","191998.437457","192764.858067","193531.838891","194298.613499","195065.147882","198964.729637","199714.989649","200481.556495","201248.266487","202014.955455","188182.042695","188948.670138","189715.040662","201257.349577"
"Mixed","Both","cave","16","F_knife.wav","None","727.924681385","131","198198.783913","190482.643226","191248.980359","191998.437457","192764.858067","193531.838891","194298.613499","195065.147882","198964.729637","199714.989649","200481.556495","201248.266487","202014.955455","202781.117289","188948.670138","189715.040662","202024.130677"
"Mixed","Both","cave","16","F_greet.wav","None","726.780135999","131","198198.783913","190482.643226","191248.980359","191998.437457","192764.858067","193531.838891","194298.613499","195065.147882","198964.729637","199714.989649","200481.556495","201248.266487","202014.955455","202781.117289","203548.607624","189715.040662","202790.082894"
"Mixed","Both","cave","16","M_ball.wav","None","723.041658755","131","198198.783913","190482.643226","191248.980359","191998.437457","192764.858067","193531.838891","194298.613499","195065.147882","198964.729637","199714.989649","200481.556495","201248.266487","202014.955455","202781.117289","203548.607624","204315.224247","203558.474459"
"Mixed","Both","cave","16","F_gnash.wav","None","721.363177639","131","198198.783913","205081.917234","191248.980359","191998.437457","192764.858067","193531.838891","194298.613499","195065.147882","198964.729637","199714.989649","200481.556495","201248.266487","202014.955455","202781.117289","203548.607624","204315.224247","204324.991838"
"Mixed","Both","cave","16","M_cave.wav","None","719.788577524","131","198198.783913","205081.917234","205847.69508","191998.437457","192764.858067","193531.838891","194298.613499","195065.147882","198964.729637","199714.989649","200481.556495","201248.266487","202014.955455","202781.117289","203548.607624","204315.224247","205091.759335"
"Mixed","Both","cave","16","F_dime.wav","space","399.194366182","131","198198.783913","205081.917234","205847.69508","206615.22066","192764.858067","193531.838891","194298.613499","195065.147882","198964.729637","199714.989649","200481.556495","201248.266487","202014.955455","202781.117289","203548.607624","204315.224247","205856.529597"
"Mixed","Both","cave","16","M_cave.wav","None","720.501213218","131","198198.783913","205081.917234","205847.69508","206615.22066","207381.67466","193531.838891","194298.613499","195065.147882","198964.729637","199714.989649","200481.556495","201248.266487","202014.955455","202781.117289","203548.607624","204315.224247","206624.855309"
"Mixed","Both","cave","16","M_depth.wav","space","503.953659208","131","198198.783913","205081.917234","205847.69508","206615.22066","207381.67466","208131.405991","194298.613499","195065.147882","198964.729637","199714.989649","200481.556495","201248.266487","202014.955455","202781.117289","203548.607624","204315.224247","207391.678456"
"Mixed","Both","cave","16","F_cave.wav","None","733.435936389","131","198198.783913","205081.917234","205847.69508","206615.22066","207381.67466","208131.405991","208898.014266","195065.147882","198964.729637","199714.989649","200481.556495","201248.266487","202014.955455","202781.117289","203548.607624","204315.224247","208140.733325"
"Mixed","Both","cave","16","M_priest.wav","space","468.369180511","131","198198.783913","205081.917234","205847.69508","206615.22066","207381.67466","208131.405991","208898.014266","209664.71622","198964.729637","199714.989649","200481.556495","201248.266487","202014.955455","202781.117289","203548.607624","204315.224247","208907.277911"
"Mixed","Both","cave","17","M_done.wav","None","729.282244516","131","212798.331845","205081.917234","205847.69508","206615.22066","207381.67466","208131.405991","208898.014266","209664.71622","198964.729637","199714.989649","200481.556495","201248.266487","202014.955455","202781.117289","203548.607624","204315.224247","209673.831772"
"Mixed","Both","cave","17","M_lash.wav","None","720.728761924","131","212798.331845","205081.917234","205847.69508","206615.22066","207381.67466","208131.405991","208898.014266","209664.71622","213565.044619","199714.989649","200481.556495","201248.266487","202014.955455","202781.117289","203548.607624","204315.224247","212808.252475"
"Mixed","Both","cave","17","F_cave.wav","None","718.928468064","131","212798.331845","205081.917234","205847.69508","206615.22066","207381.67466","208131.405991","208898.014266","209664.71622","213565.044619","214314.458434","200481.556495","201248.266487","202014.955455","202781.117289","203548.607624","204315.224247","213575.053981"
"Mixed","Both","cave","17","M_cling.wav","space","467.790724419","131","212798.331845","205081.917234","205847.69508","206615.22066","207381.67466","208131.405991","208898.014266","209664.71622","213565.044619","214314.458434","215080.72755","201248.266487","202014.955455","202781.117289","203548.607624","204315.224247","214323.699819"
"Mixed","Both","cave","17","M_depth.wav","None","733.284443326","131","212798.331845","205081.917234","205847.69508","206615.22066","207381.67466","208131.405991","208898.014266","209664.71622","213565.044619","214314.458434","215080.72755","215848.82293","202014.955455","202781.117289","203548.607624","204315.224247","215089.66904"
"Mixed","Both","cave","17","F_cave.wav","None","729.189493693","131","212798.331845","205081.917234","205847.69508","206615.22066","207381.67466","208131.405991","208898.014266","209664.71622","213565.044619","214314.458434","215080.72755","215848.82293","216614.513899","202781.117289","203548.607624","204315.224247","215858.358644"
"Mixed","Both","cave","17","M_jaw.wav","space","407.759597292","131","212798.331845","205081.917234","205847.69508","206615.22066","207381.67466","208131.405991","208898.014266","209664.71622","213565.044619","214314.458434","215080.72755","215848.82293","216614.513899","217381.090948","203548.607624","204315.224247","216623.618322"
"Mixed","Both","cave","17","F_cling.wav","None","725.934248359","131","212798.331845","205081.917234","205847.69508","206615.22066","207381.67466","208131.405991","208898.014266","209664.71622","213565.044619","214314.458434","215080.72755","215848.82293","216614.513899","217381.090948","218148.073936","204315.224247","217390.67582"
"Mixed","Both","cave","17","F_dime.wav","None","723.503557907","131","212798.331845","205081.917234","205847.69508","206615.22066","207381.67466","208131.405991","208898.014266","209664.71622","213565.044619","214314.458434","215080.72755","215848.82293","216614.513899","217381.090948","218148.073936","218914.646966","218158.002295"
"Mixed","Both","cave","17","M_cave.wav","None","721.682240546","131","212798.331845","219681.507832","205847.69508","206615.22066","207381.67466","208131.405991","208898.014266","209664.71622","213565.044619","214314.458434","215080.72755","215848.82293","216614.513899","217381.090948","218148.073936","218914.646966","218924.804419"
"Mixed","Both","cave","17","F_ball.wav","space","372.341451701","131","212798.331845","219681.507832","220430.733053","206615.22066","207381.67466","208131.405991","208898.014266","209664.71622","213565.044619","214314.458434","215080.72755","215848.82293","216614.513899","217381.090948","218148.073936","218914.646966","219690.976147"
"Mixed","Both","cave","17","F_cad.wav","None","734.755780839","131","212798.331845","219681.507832","220430.733053","221197.475198","207381.67466","208131.405991","208898.014266","209664.71622","213565.044619","214314.458434","215080.72755","215848.82293","216614.513899","217381.090948","218148.073936","218914.646966","220440.719845"
"Mixed","Both","cave","17","M_depth.wav","None","733.296191785","131","212798.331845","219681.507832","220430.733053","221197.475198","221964.1518","208131.405991","208898.014266","209664.71622","213565.044619","214314.458434","215080.72755","215848.82293","216614.513899","217381.090948","218148.073936","218914.646966","221207.104282"
"Mixed","Both","cave","17","M_cave.wav","None","731.920696795","131","212798.331845","219681.507832","220430.733053","221197.475198","221964.1518","222730.504701","208898.014266","209664.71622","213565.044619","214314.458434","215080.72755","215848.82293","216614.513899","217381.090948","218148.073936","218914.646966","221973.323003"
"Mixed","Both","cave","17","F_cling.wav","space","499.704743153","131","212798.331845","219681.507832","220430.733053","221197.475198","221964.1518","222730.504701","223497.211601","209664.71622","213565.044619","214314.458434","215080.72755","215848.82293","216614.513899","217381.090948","218148.073936","218914.646966","222739.510498"
"Mixed","Both","cave","17","F_cad.wav","None","728.10245381","131","212798.331845","219681.507832","220430.733053","221197.475198","221964.1518","222730.504701","223497.211601","224263.845536","213565.044619","214314.458434","215080.72755","215848.82293","216614.513899","217381.090948","218148.073936","218914.646966","223506.314477"
"Mixed","Both","tile","25","M_cave.wav","None","726.674709236","131","227397.879778","219681.507832","220430.733053","221197.475198","221964.1518","222730.504701","223497.211601","224263.845536","213565.044619","214314.458434","215080.72755","215848.82293","216614.513899","217381.090948","218148.073936","218914.646966","224272.753327"
"Mixed","Both","tile","25","M_knife.wav","None","720.733708644","131","227397.879778","219681.507832","220430.733053","221197.475198","221964.1518","222730.504701","223497.211601","224263.845536","228164.585132","214314.458434","215080.72755","215848.82293","216614.513899","217381.090948","218148.073936","218914.646966","227407.83658"
"Mixed","Both","tile","25","F_cave.wav","None","719.592564099","131","227397.879778","219681.507832","220430.733053","221197.475198","221964.1518","222730.504701","223497.211601","224263.845536","228164.585132","228914.089224","215080.72755","215848.82293","216614.513899","217381.090948","218148.073936","218914.646966","228174.188863"
"Mixed","Both","tile","25","F_tile.wav","None","735.273330531","131","227397.879778","219681.507832","220430.733053","221197.475198","221964.1518","222730.504701","223497.211601","224263.845536","228164.585132","228914.089224","229680.704919","215848.82293","216614.513899","217381.090948","218148.073936","218914.646966","228923.484884"
"Mixed","Both","tile","25","M_priest.wav","space","380.809294351","131","227397.879778","219681.507832","220430.733053","221197.475198","221964.1518","222730.504701","223497.211601","224263.845536","228164.585132","228914.089224","229680.704919","230447.495913","216614.513899","217381.090948","218148.073936","218914.646966","229690.22672"
"Mixed","Both","tile","25","M_romp.wav","None","731.579373649","131","227397.879778","219681.507832","220430.733053","221197.475198","221964.1518","222730.504701","223497.211601","224263.845536","228164.585132","228914.089224","229680.704919","230447.495913","231214.150254","217381.090948","218148.073936","218914.646966","230456.834686"
"Mixed","Both","tile","25","M_tile.wav","None","729.450741899","131","227397.879778","219681.507832","220430.733053","221197.475198","221964.1518","222730.504701","223497.211601","224263.845536","228164.585132","228914.089224","229680.704919","230447.495913","231214.150254","231980.667015","218148.073936","218914.646966","231223.797269"
"Mixed","Both","tile","25","F_priest.wav","space","472.897276573","131","227397.879778","219681.507832","220430.733053","221197.475198","221964.1518","222730.504701","223497.211601","224263.845536","228164.585132","228914.089224","229680.704919","230447.495913","231214.150254","231980.667015","232747.383499","218914.646966","231990.004242"
"Mixed","Both","tile","25","F_cave.wav","None","725.275408186","131","227397.879778","219681.507832","220430.733053","221197.475198","221964.1518","222730.504701","223497.211601","224263.845536","228164.585132","228914.089224","229680.704919","230447.495913","231214.150254","231980.667015","232747.383499","233513.767935","232756.798018"
"Mixed","Both","tile","25","F_cling.wav","None","724.562772491","131","227397.879778","234281.037832","220430.733053","221197.475198","221964.1518","222730.504701","223497.211601","224263.845536","228164.585132","228914.089224","229680.704919","230447.495913","231214.150254","231980.667015","232747.383499","233513.767935","233522.739724"
"Mixed","Both","tile","25","M_tile.wav","None","721.385437879","131","227397.879778","234281.037832","235047.352087","221197.475198","221964.1518","222730.504701","223497.211601","224263.845536","228164.585132","228914.089224","229680.704919","230447.495913","231214.150254","231980.667015","232747.383499","233513.767935","234290.993708"
"Mixed","Both","tile","25","F_greet.wav","space","390.312545584","131","227397.879778","234281.037832","235047.352087","235797.360435","221964.1518","222730.504701","223497.211601","224263.845536","228164.585132","228914.089224","229680.704919","230447.495913","231214.150254","231980.667015","232747.383499","233513.767935","235056.516798"
"Mixed","Both","tile","25","M_gnash.wav","None","735.617436178","131","227397.879778","234281.037832","235047.352087","235797.360435","236563.930373","222730.504701","223497.211601","224263.845536","228164.585132","228914.089224","229680.704919","230447.495913","231214.150254","231980.667015","232747.383499","233513.767935","235806.757332"
"Mixed","Both","tile","25","F_cave.wav","None","734.177015605","131","227397.879778","234281.037832","235047.352087","235797.360435","236563.930373","237330.541121","223497.211601","224263.845536","228164.585132","228914.089224","229680.704919","230447.495913","231214.150254","231980.667015","232747.383499","233513.767935","236573.303154"
"Mixed","Both","tile","25","F_tile.wav","None","732.569643529","131","227397.879778","234281.037832","235047.352087","235797.360435","236563.930373","237330.541121","238096.773136","224263.845536","228164.585132","228914.089224","229680.704919","230447.495913","231214.150254","231980.667015","232747.383499","233513.767935","237339.991195"
"Mixed","Both","tile","25","M_greet.wav","space","429.273154936","131","227397.879778","234281.037832","235047.352087","235797.360435","236563.930373","237330.541121","238096.773136","238863.890923","228164.585132","228914.089224","229680.704919","230447.495913","231214.150254","231980.667015","232747.383499","233513.767935","238105.50501"
"Mixed","Both","tile","27","M_done.wav","None","727.997336187","131","241997.558179","234281.037832","235047.352087","235797.360435","236563.930373","237330.541121","238096.773136","238863.890923","228164.585132","228914.089224","229680.704919","230447.495913","231214.150254","231980.667015","232747.383499","233513.767935","238873.443641"
"Mixed","Both","tile","27","M_tile.wav","None","719.966659148","131","241997.558179","234281.037832","235047.352087","235797.360435","236563.930373","237330.541121","238096.773136","238863.890923","242746.752484","228914.089224","229680.704919","230447.495913","231214.150254","231980.667015","232747.383499","233513.767935","242007.298564"
"Mixed","Both","tile","27","M_romp.wav","space","474.918008258","131","241997.558179","234281.037832","235047.352087","235797.360435","236563.930373","237330.541121","238096.773136","238863.890923","242746.752484","243513.761133","229680.704919","230447.495913","231214.150254","231980.667015","232747.383499","233513.767935","242755.71407"
"Mixed","Both","tile","27","F_knife.wav","None","733.321543667","131","241997.558179","234281.037832","235047.352087","235797.360435","236563.930373","237330.541121","238096.773136","238863.890923","242746.752484","243513.761133","244280.300154","230447.495913","231214.150254","231980.667015","232747.383499","233513.767935","243523.153393"
"Mixed","Both","tile","27","F_lash.wav","None","731.960888836","131","241997.558179","234281.037832","235047.352087","235797.360435","236563.930373","237330.541121","238096.773136","238863.890923","242746.752484","243513.761133","244280.300154","245047.128558","231214.150254","231980.667015","232747.383499","233513.767935","244289.734461"
"Mixed","Both","tile","27","F_tile.wav","None","730.732867727","131","241997.558179","234281.037832","235047.352087","235797.360435","236563.930373","237330.541121","238096.773136","238863.890923","242746.752484","243513.761133","244280.300154","245047.128558","245813.781971","231980.667015","232747.383499","233513.767935","245056.081487"
"Mixed","Both","tile","27","M_greet.wav","space","415.424835926","131","241997.558179","234281.037832","235047.352087","235797.360435","236563.930373","237330.541121","238096.773136","238863.890923","242746.752484","243513.761133","244280.300154","245047.128558","245813.781971","246579.978432","232747.383499","233513.767935","245823.088281"
"Mixed","Both","tile","27","M_priest.wav","None","727.442377014","131","241997.558179","234281.037832","235047.352087","235797.360435","236563.930373","237330.541121","238096.773136","238863.890923","242746.752484","243513.761133","244280.300154","245047.128558","245813.781971","246579.978432","247346.949672","233513.767935","246589.157983"
"Mixed","Both","tile","27","F_tile.wav","None","725.717520516","131","241997.558179","234281.037832","235047.352087","235797.360435","236563.930373","237330.541121","238096.773136","238863.890923","242746.752484","243513.761133","244280.300154","245047.128558","245813.781971","246579.978432","247346.949672","248114.135166","247356.026888"
"Mixed","Both","tile","27","F_jaw.wav","space","450.9106896","131","241997.558179","248880.671405","235047.352087","235797.360435","236563.930373","237330.541121","238096.773136","238863.890923","242746.752484","243513.761133","244280.300154","245047.128558","245813.781971","246579.978432","247346.949672","248114.135166","248123.552469"
"Mixed","Both","tile","27","M_priest.wav","None","720.155252551","131","241997.558179","248880.671405","249646.623313","235797.360435","236563.930373","237330.541121","238096.773136","238863.890923","242746.752484","243513.761133","244280.300154","245047.128558","245813.781971","246579.978432","247346.949672","248114.135166","248891.031365"
"Mixed","Both","tile","27","M_tile.wav","None","721.030511311","131","241997.558179","248880.671405","249646.623313","250396.460071","236563.930373","237330.541121","238096.773136","238863.890923","242746.752484","243513.761133","244280.300154","245047.128558","245813.781971","246579.978432","247346.949672","248114.135166","249655.653844"
"Mixed","Both","tile","27","F_romp.wav","space","441.00118964","131","241997.558179","248880.671405","249646.623313","250396.460071","251163.446151","237330.541121","238096.773136","238863.890923","242746.752484","243513.761133","244280.300154","245047.128558","245813.781971","246579.978432","247346.949672","248114.135166","250405.407127"
"Mixed","Both","tile","27","F_jolt.wav","None","733.608452952","131","241997.558179","248880.671405","249646.623313","250396.460071","251163.446151","251929.738455","238096.773136","238863.890923","242746.752484","243513.761133","244280.300154","245047.128558","245813.781971","246579.978432","247346.949672","248114.135166","251172.642397"
"Mixed","Both","tile","27","M_greet.wav","None","732.837075077","131","241997.558179","248880.671405","249646.623313","250396.460071","251163.446151","251929.738455","252696.82316","238863.890923","242746.752484","243513.761133","244280.300154","245047.128558","245813.781971","246579.978432","247346.949672","248114.135166","251938.781353"
"Mixed","Both","tile","27","F_gnash.wav","None","731.013593555","131","241997.558179","248880.671405","249646.623313","250396.460071","251163.446151","251929.738455","252696.82316","253463.410102","242746.752484","243513.761133","244280.300154","245047.128558","245813.781971","246579.978432","247346.949672","248114.135166","252705.996837"
"Mixed","Both","tile","28","M_greet.wav","None","729.957779869","131","256597.222978","248880.671405","249646.623313","250396.460071","251163.446151","251929.738455","252696.82316","253463.410102","242746.752484","243513.761133","244280.300154","245047.128558","245813.781971","246579.978432","247346.949672","248114.135166","253472.857703"
"Mixed","Both","tile","28","M_tile.wav","None","720.257587673","131","256597.222978","248880.671405","249646.623313","250396.460071","251163.446151","251929.738455","252696.82316","253463.410102","257363.733246","243513.761133","244280.300154","245047.128558","245813.781971","246579.978432","247346.949672","248114.135166","256607.432681"
"Mixed","Both","tile","28","F_jolt.wav","space","400.40260047","131","256597.222978","248880.671405","249646.623313","250396.460071","251163.446151","251929.738455","252696.82316","253463.410102","257363.733246","258113.085845","244280.300154","245047.128558","245813.781971","246579.978432","247346.949672","248114.135166","257373.745699"
"Mixed","Both","tile","28","M_tile.wav","None","734.518338693","131","256597.222978","248880.671405","249646.623313","250396.460071","251163.446151","251929.738455","252696.82316","253463.410102","257363.733246","258113.085845","258879.889824","245047.128558","245813.781971","246579.978432","247346.949672","248114.135166","258122.590952"
"Mixed","Both","tile","28","F_priest.wav","space","476.80672456","131","256597.222978","248880.671405","249646.623313","250396.460071","251163.446151","251929.738455","252696.82316","253463.410102","257363.733246","258113.085845","258879.889824","259646.606927","245813.781971","246579.978432","247346.949672","248114.135166","258889.314547"
"Mixed","Both","tile","28","M_park.wav","None","730.324145639","131","256597.222978","248880.671405","249646.623313","250396.460071","251163.446151","251929.738455","252696.82316","253463.410102","257363.733246","258113.085845","258879.889824","259646.606927","260413.243027","246579.978432","247346.949672","248114.135166","259655.965178"
"Mixed","Both","tile","28","F_tile.wav","None","729.009247851","131","256597.222978","248880.671405","249646.623313","250396.460071","251163.446151","251929.738455","252696.82316","253463.410102","257363.733246","258113.085845","258879.889824","259646.606927","260413.243027","261179.948381","247346.949672","248114.135166","260422.655073"
"Mixed","Both","tile","28","F_cave.wav","space","576.512333355","131","256597.222978","248880.671405","249646.623313","250396.460071","251163.446151","251929.738455","252696.82316","253463.410102","257363.733246","258113.085845","258879.889824","259646.606927","260413.243027","261179.948381","261946.483074","248114.135166","261189.561387"
"Mixed","Both","tile","28","F_tile.wav","None","725.264278066","131","256597.222978","248880.671405","249646.623313","250396.460071","251163.446151","251929.738455","252696.82316","253463.410102","257363.733246","258113.085845","258879.889824","259646.606927","260413.243027","261179.948381","261946.483074","262712.999525","261955.559053"
"Mixed","Both","tile","28","M_greet.wav","space","587.907392648","131","256597.222978","263479.860391","249646.623313","250396.460071","251163.446151","251929.738455","252696.82316","253463.410102","257363.733246","258113.085845","258879.889824","259646.606927","260413.243027","261179.948381","261946.483074","262712.999525","262722.113532"
"Mixed","Both","tile","28","F_bluff.wav","None","720.684859843","131","256597.222978","263479.860391","264246.555543","250396.460071","251163.446151","251929.738455","252696.82316","253463.410102","257363.733246","258113.085845","258879.889824","259646.606927","260413.243027","261179.948381","261946.483074","262712.999525","263489.667556"
"Mixed","Both","tile","28","M_cave.wav","None","719.21043063","131","256597.222978","263479.860391","264246.555543","264996.164444","251163.446151","251929.738455","252696.82316","253463.410102","257363.733246","258113.085845","258879.889824","259646.606927","260413.243027","261179.948381","261946.483074","262712.999525","264256.666312"
"Mixed","Both","tile","28","M_jaw.wav","None","735.608470277","131","256597.222978","263479.860391","264246.555543","264996.164444","265763.003359","251929.738455","252696.82316","253463.410102","257363.733246","258113.085845","258879.889824","259646.606927","260413.243027","261179.948381","261946.483074","262712.999525","265005.83681"
"Mixed","Both","tile","28","F_priest.wav","None","734.548946493","131","256597.222978","263479.860391","264246.555543","264996.164444","265763.003359","266529.634821","252696.82316","253463.410102","257363.733246","258113.085845","258879.889824","259646.606927","260413.243027","261179.948381","261946.483074","262712.999525","265772.173325"
"Mixed","Both","tile","28","F_lash.wav","None","733.379976708","131","256597.222978","263479.860391","264246.555543","264996.164444","265763.003359","266529.634821","267295.628467","253463.410102","257363.733246","258113.085845","258879.889824","259646.606927","260413.243027","261179.948381","261946.483074","262712.999525","266539.126324"
"Mixed","Both","tile","28","M_jaw.wav","None","733.370083268","131","256597.222978","263479.860391","264246.555543","264996.164444","265763.003359","266529.634821","267295.628467","268062.574664","257363.733246","258113.085845","258879.889824","259646.606927","260413.243027","261179.948381","261946.483074","262712.999525","267304.333443"
"Mixed","Both","cave","19","M_done.wav","None","731.524650706","131","271196.595302","263479.860391","264246.555543","264996.164444","265763.003359","266529.634821","267295.628467","268062.574664","257363.733246","258113.085845","258879.889824","259646.606927","260413.243027","261179.948381","261946.483074","262712.999525","268071.783277"
"Mixed","Both","cave","19","M_romp.wav","None","720.99897603","131","271196.595302","263479.860391","264246.555543","264996.164444","265763.003359","266529.634821","267295.628467","268062.574664","271963.311168","258113.085845","258879.889824","259646.606927","260413.243027","261179.948381","261946.483074","262712.999525","271206.41607"
"Mixed","Both","cave","19","M_cave.wav","None","719.280302932","131","271196.595302","263479.860391","264246.555543","264996.164444","265763.003359","266529.634821","267295.628467","268062.574664","271963.311168","272712.753426","258879.889824","259646.606927","260413.243027","261179.948381","261946.483074","262712.999525","271973.332587"
"Mixed","Both","cave","19","M_done.wav","space","427.856540424","131","271196.595302","263479.860391","264246.555543","264996.164444","265763.003359","266529.634821","267295.628467","268062.574664","271963.311168","272712.753426","273479.385816","259646.606927","260413.243027","261179.948381","261946.483074","262712.999525","272721.87238"
"Mixed","Both","cave","19","F_tile.wav","None","733.119965182","131","271196.595302","263479.860391","264246.555543","264996.164444","265763.003359","266529.634821","267295.628467","268062.574664","271963.311168","272712.753426","273479.385816","274245.690796","260413.243027","261179.948381","261946.483074","262712.999525","273488.833417"
"Mixed","Both","cave","19","F_cave.wav","None","732.656210952","131","271196.595302","263479.860391","264246.555543","264996.164444","265763.003359","266529.634821","267295.628467","268062.574664","271963.311168","272712.753426","273479.385816","274245.690796","275012.79436","261179.948381","261946.483074","262712.999525","274254.540154"
"Mixed","Both","cave","19","F_park.wav","space","559.479877993","131","271196.595302","263479.860391","264246.555543","264996.164444","265763.003359","266529.634821","267295.628467","268062.574664","271963.311168","272712.753426","273479.385816","274245.690796","275012.79436","275779.353786","261946.483074","262712.999525","275022.189402"
"Mixed","Both","cave","19","F_cling.wav","None","727.832239703","131","271196.595302","263479.860391","264246.555543","264996.164444","265763.003359","266529.634821","267295.628467","268062.574664","271963.311168","272712.753426","273479.385816","274245.690796","275012.79436","275779.353786","276546.031934","262712.999525","275788.857038"
"Mixed","Both","cave","19","M_greet.wav","None","727.193804749","131","271196.595302","263479.860391","264246.555543","264996.164444","265763.003359","266529.634821","267295.628467","268062.574664","271963.311168","272712.753426","273479.385816","274245.690796","275012.79436","275779.353786","276546.031934","277312.755529","276554.838626"
"Mixed","Both","cave","19","F_depth.wav","None","725.322092767","131","271196.595302","278079.740063","264246.555543","264996.164444","265763.003359","266529.634821","267295.628467","268062.574664","271963.311168","272712.753426","273479.385816","274245.690796","275012.79436","275779.353786","276546.031934","277312.755529","277322.00557"
"Mixed","Both","cave","19","M_cave.wav","None","723.374943424","131","271196.595302","278079.740063","278846.47015","264996.164444","265763.003359","266529.634821","267295.628467","268062.574664","271963.311168","272712.753426","273479.385816","274245.690796","275012.79436","275779.353786","276546.031934","277312.755529","278089.626375"
"Mixed","Both","cave","19","M_jaw.wav","space","477.091160486","131","271196.595302","278079.740063","278846.47015","279613.031431","265763.003359","266529.634821","267295.628467","268062.574664","271963.311168","272712.753426","273479.385816","274245.690796","275012.79436","275779.353786","276546.031934","277312.755529","278856.406239"
"Mixed","Both","cave","19","F_cave.wav","None","720.268408535","131","271196.595302","278079.740063","278846.47015","279613.031431","280379.576636","266529.634821","267295.628467","268062.574664","271963.311168","272712.753426","273479.385816","274245.690796","275012.79436","275779.353786","276546.031934","277312.755529","279622.499747"
"Mixed","Both","cave","19","F_done.wav","space","591.229109443","131","271196.595302","278079.740063","278846.47015","279613.031431","280379.576636","281129.196357","267295.628467","268062.574664","271963.311168","272712.753426","273479.385816","274245.690796","275012.79436","275779.353786","276546.031934","277312.755529","280389.295687"
"Mixed","Both","cave","19","M_depth.wav","None","733.573825913","131","271196.595302","278079.740063","278846.47015","279613.031431","280379.576636","281129.196357","281895.993844","268062.574664","271963.311168","272712.753426","273479.385816","274245.690796","275012.79436","275779.353786","276546.031934","277312.755529","281138.657561"
"Mixed","Both","cave","19","F_greet.wav","None","732.14113462","131","271196.595302","278079.740063","278846.47015","279613.031431","280379.576636","281129.196357","281895.993844","282662.703835","271963.311168","272712.753426","273479.385816","274245.690796","275012.79436","275779.353786","276546.031934","277312.755529","281905.364461"
"Mixed","Both","ball","7","F_bluff.wav","None","730.774914729","131","285796.171369","278079.740063","278846.47015","279613.031431","280379.576636","281129.196357","281895.993844","282662.703835","271963.311168","272712.753426","273479.385816","274245.690796","275012.79436","275779.353786","276546.031934","277312.755529","282672.096095"
"Mixed","Both","ball","7","M_knife.wav","None","721.024327911","131","285796.171369","278079.740063","278846.47015","279613.031431","280379.576636","281129.196357","281895.993844","282662.703835","286562.030835","272712.753426","273479.385816","274245.690796","275012.79436","275779.353786","276546.031934","277312.755529","285805.7751"
"Mixed","Both","ball","7","M_park.wav","None","721.145522373","131","285796.171369","278079.740063","278846.47015","279613.031431","280379.576636","281129.196357","281895.993844","282662.703835","286562.030835","287329.23488","273479.385816","274245.690796","275012.79436","275779.353786","276546.031934","277312.755529","286571.11578"
"Mixed","Both","ball","7","F_priest.wav","None","718.504287594","131","285796.171369","278079.740063","278846.47015","279613.031431","280379.576636","281129.196357","281895.993844","282662.703835","286562.030835","287329.23488","288078.600464","274245.690796","275012.79436","275779.353786","276546.031934","277312.755529","287339.172205"
"Mixed","Both","ball","7","M_ball.wav","None","735.140387667","131","285796.171369","278079.740063","278846.47015","279613.031431","280379.576636","281129.196357","281895.993844","282662.703835","286562.030835","287329.23488","288078.600464","288845.592109","275012.79436","275779.353786","276546.031934","277312.755529","288087.932745"
"Mixed","Both","ball","7","M_cave.wav","space","438.168888097","131","285796.171369","278079.740063","278846.47015","279613.031431","280379.576636","281129.196357","281895.993844","282662.703835","286562.030835","287329.23488","288078.600464","288845.592109","289612.379393","275779.353786","276546.031934","277312.755529","288855.083921"
"Mixed","Both","ball","7","M_cling.wav","None","730.615692446","131","285796.171369","278079.740063","278846.47015","279613.031431","280379.576636","281129.196357","281895.993844","282662.703835","286562.030835","287329.23488","288078.600464","288845.592109","289612.379393","290378.905738","276546.031934","277312.755529","289621.75403"
"Mixed","Both","ball","7","M_reek.wav","None","729.4992815","131","285796.171369","278079.740063","278846.47015","279613.031431","280379.576636","281129.196357","281895.993844","282662.703835","286562.030835","287329.23488","288078.600464","288845.592109","289612.379393","290378.905738","291145.62686","277312.755529","290388.318093"
"Mixed","Both","ball","7","F_ball.wav","None","727.662196499","131","285796.171369","278079.740063","278846.47015","279613.031431","280379.576636","281129.196357","281895.993844","282662.703835","286562.030835","287329.23488","288078.600464","288845.592109","289612.379393","290378.905738","291145.62686","291912.51957","291155.395378"
"Mixed","Both","ball","7","M_romp.wav","space","451.472450513","131","285796.171369","292679.352921","278846.47015","279613.031431","280379.576636","281129.196357","281895.993844","282662.703835","286562.030835","287329.23488","288078.600464","288845.592109","289612.379393","290378.905738","291145.62686","291912.51957","291921.704377"
"Mixed","Both","ball","7","F_gnash.wav","None","723.461510905","131","285796.171369","292679.352921","293445.295244","279613.031431","280379.576636","281129.196357","281895.993844","282662.703835","286562.030835","287329.23488","288078.600464","288845.592109","289612.379393","290378.905738","291145.62686","291912.51957","292689.143699"
"Mixed","Both","ball","7","F_knife.wav","None","723.723068251","131","285796.171369","292679.352921","293445.295244","294212.130759","280379.576636","281129.196357","281895.993844","282662.703835","286562.030835","287329.23488","288078.600464","288845.592109","289612.379393","290378.905738","291145.62686","291912.51957","293454.266106"
"Mixed","Both","ball","7","F_ball.wav","None","722.434140684","131","285796.171369","292679.352921","293445.295244","294212.130759","294979.335422","281129.196357","281895.993844","282662.703835","286562.030835","287329.23488","288078.600464","288845.592109","289612.379393","290378.905738","291145.62686","291912.51957","294221.684405"
"Mixed","Both","ball","7","F_park.wav","space","407.370971225","131","285796.171369","292679.352921","293445.295244","294212.130759","294979.335422","295728.611038","281895.993844","282662.703835","286562.030835","287329.23488","288078.600464","288845.592109","289612.379393","290378.905738","291145.62686","291912.51957","294989.639731"
"Mixed","Both","ball","7","M_ball.wav","None","735.323106812","131","285796.171369","292679.352921","293445.295244","294212.130759","294979.335422","295728.611038","296494.837488","282662.703835","286562.030835","287329.23488","288078.600464","288845.592109","289612.379393","290378.905738","291145.62686","291912.51957","295738.224353"
"Mixed","Both","ball","7","F_tile.wav","space","573.085498996","131","285796.171369","292679.352921","293445.295244","294212.130759","294979.335422","295728.611038","296494.837488","297262.237237","286562.030835","287329.23488","288078.600464","288845.592109","289612.379393","290378.905738","291145.62686","291912.51957","296503.921196"
"Mixed","Both","done","45","F_greet.wav","None","731.659757788","131","300395.79041","292679.352921","293445.295244","294212.130759","294979.335422","295728.611038","296494.837488","297262.237237","286562.030835","287329.23488","288078.600464","288845.592109","289612.379393","290378.905738","291145.62686","291912.51957","297271.591159"
"Mixed","Both","done","45","F_gnash.wav","None","720.833879488","131","300395.79041","292679.352921","293445.295244","294212.130759","294979.335422","295728.611038","296494.837488","297262.237237","301161.453554","287329.23488","288078.600464","288845.592109","289612.379393","290378.905738","291145.62686","291912.51957","300405.853567"
"Mixed","Both","done","45","F_done.wav","None","723.784902133","131","300395.79041","292679.352921","293445.295244","294212.130759","294979.335422","295728.611038","296494.837488","297262.237237","301161.453554","301928.963676","288078.600464","288845.592109","289612.379393","290378.905738","291145.62686","291912.51957","301170.442038"
"Mixed","Both","done","45","M_jaw.wav","space","473.566010187","131","300395.79041","292679.352921","293445.295244","294212.130759","294979.335422","295728.611038","296494.837488","297262.237237","301161.453554","301928.963676","302678.539187","288845.592109","289612.379393","290378.905738","291145.62686","291912.51957","301939.285917"
"Mixed","Both","done","45","M_done.wav","None","736.636149581","131","300395.79041","292679.352921","293445.295244","294212.130759","294979.335422","295728.611038","296494.837488","297262.237237","301161.453554","301928.963676","302678.539187","303444.930734","289612.379393","290378.905738","291145.62686","291912.51957","302687.3938"
"Mixed","Both","done","45","M_ball.wav","space","502.338867052","131","300395.79041","292679.352921","293445.295244","294212.130759","294979.335422","295728.611038","296494.837488","297262.237237","301161.453554","301928.963676","302678.539187","303444.930734","304211.961643","290378.905738","291145.62686","291912.51957","303454.456863"
"Mixed","Both","done","45","F_reek.wav","None","732.12907702","131","300395.79041","292679.352921","293445.295244","294212.130759","294979.335422","295728.611038","296494.837488","297262.237237","301161.453554","301928.963676","302678.539187","303444.930734","304211.961643","304978.381943","291145.62686","291912.51957","304221.336898"
"Mixed","Both","done","45","M_dime.wav","None","730.951141333","131","300395.79041","292679.352921","293445.295244","294212.130759","294979.335422","295728.611038","296494.837488","297262.237237","301161.453554","301928.963676","302678.539187","303444.930734","304211.961643","304978.381943","305745.089152","291912.51957","304987.977018"
"Mixed","Both","done","45","M_done.wav","None","730.057641515","131","300395.79041","292679.352921","293445.295244","294212.130759","294979.335422","295728.611038","296494.837488","297262.237237","301161.453554","301928.963676","302678.539187","303444.930734","304211.961643","304978.381943","305745.089152","306511.463695","305754.499962"
"Mixed","Both","done","45","F_priest.wav","None","729.542256042","131","300395.79041","307278.356406","293445.295244","294212.130759","294979.335422","295728.611038","296494.837488","297262.237237","301161.453554","301928.963676","302678.539187","303444.930734","304211.961643","304978.381943","305745.089152","306511.463695","306520.875741"
"Mixed","Both","done","45","F_cave.wav","None","728.147592512","131","300395.79041","307278.356406","308045.112154","294212.130759","294979.335422","295728.611038","296494.837488","297262.237237","301161.453554","301928.963676","302678.539187","303444.930734","304211.961643","304978.381943","305745.089152","306511.463695","307287.739699"
"Mixed","Both","done","45","M_ball.wav","None","726.668834977","131","300395.79041","307278.356406","308045.112154","308811.767732","294979.335422","295728.611038","296494.837488","297262.237237","301161.453554","301928.963676","302678.539187","303444.930734","304211.961643","304978.381943","305745.089152","306511.463695","308054.71805"
"Mixed","Both","done","45","F_done.wav","None","725.724940596","131","300395.79041","307278.356406","308045.112154","308811.767732","309578.413416","295728.611038","296494.837488","297262.237237","301161.453554","301928.963676","302678.539187","303444.930734","304211.961643","304978.381943","305745.089152","306511.463695","308821.070642"
"Mixed","Both","done","45","M_gnash.wav","space","504.861999128","131","300395.79041","307278.356406","308045.112154","308811.767732","309578.413416","310345.462567","296494.837488","297262.237237","301161.453554","301928.963676","302678.539187","303444.930734","304211.961643","304978.381943","305745.089152","306511.463695","309587.766102"
"Mixed","Both","done","45","F_reek.wav","None","721.719959227","131","300395.79041","307278.356406","308045.112154","308811.767732","309578.413416","310345.462567","311111.651299","297262.237237","301161.453554","301928.963676","302678.539187","303444.930734","304211.961643","304978.381943","305745.089152","306511.463695","310355.131842"
"Mixed","Both","done","45","M_gnash.wav","None","721.785812289","131","300395.79041","307278.356406","308045.112154","308811.767732","309578.413416","310345.462567","311111.651299","311879.011165","301161.453554","301928.963676","302678.539187","303444.930734","304211.961643","304978.381943","305745.089152","306511.463695","311120.6336"
"Mixed","Both","tile","35","F_cad.wav","None","719.725197821","131","314995.219003","307278.356406","308045.112154","308811.767732","309578.413416","310345.462567","311111.651299","311879.011165","301161.453554","301928.963676","302678.539187","303444.930734","304211.961643","304978.381943","305745.089152","306511.463695","311888.584288"
"Mixed","Both","tile","35","F_lash.wav","None","721.024946251","131","314995.219003","307278.356406","308045.112154","308811.767732","309578.413416","310345.462567","311111.651299","311879.011165","315761.914773","301928.963676","302678.539187","303444.930734","304211.961643","304978.381943","305745.089152","306511.463695","315005.305348"
"Mixed","Both","tile","35","M_knife.wav","None","720.482972218","131","314995.219003","307278.356406","308045.112154","308811.767732","309578.413416","310345.462567","311111.651299","311879.011165","315761.914773","316528.964233","302678.539187","303444.930734","304211.961643","304978.381943","305745.089152","306511.463695","315771.994625"
"Mixed","Both","tile","35","F_tile.wav","None","719.370271254","131","314995.219003","307278.356406","308045.112154","308811.767732","309578.413416","310345.462567","311111.651299","311879.011165","315761.914773","316528.964233","317295.298274","303444.930734","304211.961643","304978.381943","305745.089152","306511.463695","316538.471503"
"Mixed","Both","tile","35","F_cad.wav","space","547.28406982","131","314995.219003","307278.356406","308045.112154","308811.767732","309578.413416","310345.462567","311111.651299","311879.011165","315761.914773","316528.964233","317295.298274","318044.207215","304211.961643","304978.381943","305745.089152","306511.463695","317305.086889"
"Mixed","Both","tile","35","M_cling.wav","None","734.737849038","131","314995.219003","307278.356406","308045.112154","308811.767732","309578.413416","310345.462567","311111.651299","311879.011165","315761.914773","316528.964233","317295.298274","318044.207215","318811.49659","304978.381943","305745.089152","306511.463695","318052.911263"
"Mixed","Both","tile","35","M_tile.wav","None","732.432372286","131","314995.219003","307278.356406","308045.112154","308811.767732","309578.413416","310345.462567","311111.651299","311879.011165","315761.914773","316528.964233","317295.298274","318044.207215","318811.49659","319577.589171","305745.089152","306511.463695","318821.008498"
"Mixed","Both","tile","35","F_cave.wav","None","732.801829756","131","314995.219003","307278.356406","308045.112154","308811.767732","309578.413416","310345.462567","311111.651299","311879.011165","315761.914773","316528.964233","317295.298274","318044.207215","318811.49659","319577.589171","320344.566903","306511.463695","319586.332483"
"Mixed","Both","tile","35","M_tile.wav","space","2.45758815436","131","314995.219003","307278.356406","308045.112154","308811.767732","309578.413416","310345.462567","311111.651299","311879.011165","315761.914773","316528.964233","317295.298274","318044.207215","318811.49659","319577.589171","320344.566903","321111.391287","320353.852808"
"Mixed","Both","tile","35","F_dime.wav","space","587.775686465","131","314995.219003","321878.064488","308045.112154","308811.767732","309578.413416","310345.462567","311111.651299","311879.011165","315761.914773","316528.964233","317295.298274","318044.207215","318811.49659","319577.589171","320344.566903","321111.391287","321120.483652"
"Mixed","Both","tile","35","F_bluff.wav","None","725.563554151","131","314995.219003","321878.064488","322644.744799","308811.767732","309578.413416","310345.462567","311111.651299","311879.011165","315761.914773","316528.964233","317295.298274","318044.207215","318811.49659","319577.589171","320344.566903","321111.391287","321887.832697"
"Mixed","Both","tile","35","M_jolt.wav","None","725.382689969","131","314995.219003","321878.064488","322644.744799","323411.763342","309578.413416","310345.462567","311111.651299","311879.011165","315761.914773","316528.964233","317295.298274","318044.207215","318811.49659","319577.589171","320344.566903","321111.391287","322653.746268"
"Mixed","Both","tile","35","M_bluff.wav","None","722.802052391","131","314995.219003","321878.064488","322644.744799","323411.763342","324178.313493","310345.462567","311111.651299","311879.011165","315761.914773","316528.964233","317295.298274","318044.207215","318811.49659","319577.589171","320344.566903","321111.391287","323422.248206"
"Mixed","Both","tile","35","F_tile.wav","None","723.160998139","131","314995.219003","321878.064488","322644.744799","323411.763342","324178.313493","324944.95825","311111.651299","311879.011165","315761.914773","316528.964233","317295.298274","318044.207215","318811.49659","319577.589171","320344.566903","321111.391287","324187.610219"
"Mixed","Both","tile","35","M_park.wav","space","569.396179635","131","314995.219003","321878.064488","322644.744799","323411.763342","324178.313493","324944.95825","325710.887279","311879.011165","315761.914773","316528.964233","317295.298274","318044.207215","318811.49659","319577.589171","320344.566903","321111.391287","324954.771289"
"Mixed","Both","tile","35","M_park.wav","None","721.008560271","131","314995.219003","321878.064488","322644.744799","323411.763342","324178.313493","324944.95825","325710.887279","326460.830701","315761.914773","316528.964233","317295.298274","318044.207215","318811.49659","319577.589171","320344.566903","321111.391287","325719.775592"
"Mixed","Both","tile","29","M_greet.wav","None","736.474453937","131","329594.370271","321878.064488","322644.744799","323411.763342","324178.313493","324944.95825","325710.887279","326460.830701","315761.914773","316528.964233","317295.298274","318044.207215","318811.49659","319577.589171","320344.566903","321111.391287","326470.039314"
"Mixed","Both","tile","29","F_tile.wav","None","721.935141191","131","329594.370271","321878.064488","322644.744799","323411.763342","324178.313493","324944.95825","325710.887279","326460.830701","330361.626256","316528.964233","317295.298274","318044.207215","318811.49659","319577.589171","320344.566903","321111.391287","329603.915879"
"Mixed","Both","tile","29","F_priest.wav","space","489.029121294","131","329594.370271","321878.064488","322644.744799","323411.763342","324178.313493","324944.95825","325710.887279","326460.830701","330361.626256","331111.131894","317295.298274","318044.207215","318811.49659","319577.589171","320344.566903","321111.391287","330370.973377"
"Mixed","Both","tile","29","F_reek.wav","None","735.020120745","131","329594.370271","321878.064488","322644.744799","323411.763342","324178.313493","324944.95825","325710.887279","326460.830701","330361.626256","331111.131894","331877.54632","318044.207215","318811.49659","319577.589171","320344.566903","321111.391287","331120.523226"
"Mixed","Both","tile","29","M_lash.wav","None","734.201440006","131","329594.370271","321878.064488","322644.744799","323411.763342","324178.313493","324944.95825","325710.887279","326460.830701","330361.626256","331111.131894","331877.54632","332643.64261","318811.49659","319577.589171","320344.566903","321111.391287","331887.102748"
"Mixed","Both","tile","29","M_tile.wav","None","736.12385575","131","329594.370271","321878.064488","322644.744799","323411.763342","324178.313493","324944.95825","325710.887279","326460.830701","330361.626256","331111.131894","331877.54632","332643.64261","333410.588498","319577.589171","320344.566903","321111.391287","332652.555657"
"Mixed","Both","tile","29","F_dime.wav","space","448.163100518","131","329594.370271","321878.064488","322644.744799","323411.763342","324178.313493","324944.95825","325710.887279","326460.830701","330361.626256","331111.131894","331877.54632","332643.64261","333410.588498","334177.679386","320344.566903","321111.391287","333419.739605"
"Mixed","Both","tile","29","M_depth.wav","None","731.964598817","131","329594.370271","321878.064488","322644.744799","323411.763342","324178.313493","324944.95825","325710.887279","326460.830701","330361.626256","331111.131894","331877.54632","332643.64261","333410.588498","334177.679386","334944.332491","321111.391287","334187.050622"
"Mixed","Both","tile","29","F_jaw.wav","None","730.749253649","131","329594.370271","321878.064488","322644.744799","323411.763342","324178.313493","324944.95825","325710.887279","326460.830701","330361.626256","331111.131894","331877.54632","332643.64261","333410.588498","334177.679386","334944.332491","335710.89068","334953.908397"
"Mixed","Both","tile","29","M_gnash.wav","None","730.587248865","131","329594.370271","336477.07663","322644.744799","323411.763342","324178.313493","324944.95825","325710.887279","326460.830701","330361.626256","331111.131894","331877.54632","332643.64261","333410.588498","334177.679386","334944.332491","335710.89068","335720.155871"
"Mixed","Both","tile","29","M_tile.wav","None","730.523869162","131","329594.370271","336477.07663","337244.060545","323411.763342","324178.313493","324944.95825","325710.887279","326460.830701","330361.626256","331111.131894","331877.54632","332643.64261","333410.588498","334177.679386","334944.332491","335710.89068","336485.911147"
"Mixed","Both","tile","29","M_jaw.wav","space","486.845148145","131","329594.370271","336477.07663","337244.060545","338010.935943","324178.313493","324944.95825","325710.887279","326460.830701","330361.626256","331111.131894","331877.54632","332643.64261","333410.588498","334177.679386","334944.332491","335710.89068","337252.953805"
"Mixed","Both","tile","29","F_tile.wav","None","731.693766371","131","329594.370271","336477.07663","337244.060545","338010.935943","338777.481147","324944.95825","325710.887279","326460.830701","330361.626256","331111.131894","331877.54632","332643.64261","333410.588498","334177.679386","334944.332491","335710.89068","338015.090562"
"Mixed","Both","tile","29","F_cave.wav","space","592.777120997","131","329594.370271","336477.07663","337244.060545","338010.935943","338777.481147","339544.636961","325710.887279","326460.830701","330361.626256","331111.131894","331877.54632","332643.64261","333410.588498","334177.679386","334944.332491","335710.89068","338786.962756"
"Mixed","Both","tile","29","M_dime.wav","None","722.749493551","131","329594.370271","336477.07663","337244.060545","338010.935943","338777.481147","339544.636961","340311.178764","326460.830701","330361.626256","331111.131894","331877.54632","332643.64261","333410.588498","334177.679386","334944.332491","335710.89068","339554.478134"
"Mixed","Both","tile","29","F_depth.wav","None","722.427957342","131","329594.370271","336477.07663","337244.060545","338010.935943","338777.481147","339544.636961","340311.178764","341077.310609","330361.626256","331111.131894","331877.54632","332643.64261","333410.588498","334177.679386","334944.332491","335710.89068","340320.660064"
"Mixed","Both","done","44","M_dime.wav","None","722.28604852","131","344194.432352","336477.07663","337244.060545","338010.935943","338777.481147","339544.636961","340311.178764","341077.310609","330361.626256","331111.131894","331877.54632","332643.64261","333410.588498","334177.679386","334944.332491","335710.89068","341086.432654"
"Mixed","Both","done","44","M_dime.wav","None","720.514198299","131","344194.432352","336477.07663","337244.060545","338010.935943","338777.481147","339544.636961","340311.178764","341077.310609","344960.779688","331111.131894","331877.54632","332643.64261","333410.588498","334177.679386","334944.332491","335710.89068","344204.720585"
"Mixed","Both","done","44","M_bluff.wav","None","720.907152747","131","344194.432352","336477.07663","337244.060545","338010.935943","338777.481147","339544.636961","340311.178764","341077.310609","344960.779688","345727.74289","331877.54632","332643.64261","333410.588498","334177.679386","334944.332491","335710.89068","344970.084453"
"Mixed","Both","done","44","F_cad.wav","None","719.62038934","131","344194.432352","336477.07663","337244.060545","338010.935943","338777.481147","339544.636961","340311.178764","341077.310609","344960.779688","345727.74289","346494.641475","332643.64261","333410.588498","334177.679386","334944.332491","335710.89068","345737.050128"
"Mixed","Both","done","44","F_done.wav","None","718.489138293","131","344194.432352","336477.07663","337244.060545","338010.935943","338777.481147","339544.636961","340311.178764","341077.310609","344960.779688","345727.74289","346494.641475","347243.569584","333410.588498","334177.679386","334944.332491","335710.89068","346504.08351"
"Mixed","Both","done","44","F_priest.wav","space","478.556623799","131","344194.432352","336477.07663","337244.060545","338010.935943","338777.481147","339544.636961","340311.178764","341077.310609","344960.779688","345727.74289","346494.641475","347243.569584","348010.61286","334177.679386","334944.332491","335710.89068","347252.947003"
"Mixed","Both","done","44","F_cave.wav","None","732.182563341","131","344194.432352","336477.07663","337244.060545","338010.935943","338777.481147","339544.636961","340311.178764","341077.310609","344960.779688","345727.74289","346494.641475","347243.569584","348010.61286","348776.73543","334944.332491","335710.89068","348020.144246"
"Mixed","Both","done","44","F_depth.wav","None","732.342094765","131","344194.432352","336477.07663","337244.060545","338010.935943","338777.481147","339544.636961","340311.178764","341077.310609","344960.779688","345727.74289","346494.641475","347243.569584","348010.61286","348776.73543","349543.435219","335710.89068","348785.706601"
"Mixed","Both","done","44","F_done.wav","None","731.160139898","131","344194.432352","336477.07663","337244.060545","338010.935943","338777.481147","339544.636961","340311.178764","341077.310609","344960.779688","345727.74289","346494.641475","347243.569584","348010.61286","348776.73543","349543.435219","350310.557643","349552.566849"
"Mixed","Both","done","44","M_cad.wav","space","579.510040581","131","344194.432352","351077.077186","337244.060545","338010.935943","338777.481147","339544.636961","340311.178764","341077.310609","344960.779688","345727.74289","346494.641475","347243.569584","348010.61286","348776.73543","349543.435219","350310.557643","350319.906618"
"Mixed","Both","done","44","M_done.wav","None","726.710882038","131","344194.432352","351077.077186","351843.860142","338010.935943","338777.481147","339544.636961","340311.178764","341077.310609","344960.779688","345727.74289","346494.641475","347243.569584","348010.61286","348776.73543","349543.435219","350310.557643","351086.877858"
"Mixed","Both","done","44","F_reek.wav","space","654.021429131","131","344194.432352","351077.077186","351843.860142","352610.659792","338777.481147","339544.636961","340311.178764","341077.310609","344960.779688","345727.74289","346494.641475","347243.569584","348010.61286","348776.73543","349543.435219","350310.557643","351853.315781"
"Mixed","Both","done","44","F_depth.wav","None","723.23829052","131","344194.432352","351077.077186","351843.860142","352610.659792","353377.627322","339544.636961","340311.178764","341077.310609","344960.779688","345727.74289","346494.641475","347243.569584","348010.61286","348776.73543","349543.435219","350310.557643","352620.091625"
"Mixed","Both","done","44","M_done.wav","None","720.812546846","131","344194.432352","351077.077186","351843.860142","352610.659792","353377.627322","354144.220139","340311.178764","341077.310609","344960.779688","345727.74289","346494.641475","347243.569584","348010.61286","348776.73543","349543.435219","350310.557643","353387.735"
"Mixed","Both","done","44","M_jaw.wav","space","553.337298974","131","344194.432352","351077.077186","351843.860142","352610.659792","353377.627322","354144.220139","354893.021179","341077.310609","344960.779688","345727.74289","346494.641475","347243.569584","348010.61286","348776.73543","349543.435219","350310.557643","354153.958359"
"Mixed","Both","done","44","M_ball.wav","None","736.443846195","131","344194.432352","351077.077186","351843.860142","352610.659792","353377.627322","354144.220139","354893.021179","355659.634401","344960.779688","345727.74289","346494.641475","347243.569584","348010.61286","348776.73543","349543.435219","350310.557643","354901.990186"
"Mixed","Both","done","41","M_depth.wav","None","736.515573459","131","358793.956479","351077.077186","351843.860142","352610.659792","353377.627322","354144.220139","354893.021179","355659.634401","344960.779688","345727.74289","346494.641475","347243.569584","348010.61286","348776.73543","349543.435219","350310.557643","355668.283726"
"Mixed","Both","done","41","M_cave.wav","None","719.914409565","131","358793.956479","351077.077186","351843.860142","352610.659792","353377.627322","354144.220139","354893.021179","355659.634401","359560.498901","345727.74289","346494.641475","347243.569584","348010.61286","348776.73543","349543.435219","350310.557643","358803.695936"
"Mixed","Both","done","41","F_done.wav","None","719.149524288","131","358793.956479","351077.077186","351843.860142","352610.659792","353377.627322","354144.220139","354893.021179","355659.634401","359560.498901","360310.264241","346494.641475","347243.569584","348010.61286","348776.73543","349543.435219","350310.557643","359570.319051"
"Mixed","Both","done","41","M_depth.wav","space","451.467812993","131","358793.956479","351077.077186","351843.860142","352610.659792","353377.627322","354144.220139","354893.021179","355659.634401","359560.498901","360310.264241","361076.374135","347243.569584","348010.61286","348776.73543","349543.435219","350310.557643","360319.647844"
"Mixed","Both","done","41","F_cave.wav","None","734.201130806","131","358793.956479","351077.077186","351843.860142","352610.659792","353377.627322","354144.220139","354893.021179","355659.634401","359560.498901","360310.264241","361076.374135","361843.628264","348010.61286","348776.73543","349543.435219","350310.557643","361085.165369"
"Mixed","Both","done","41","F_cave.wav","None","731.648627669","131","358793.956479","351077.077186","351843.860142","352610.659792","353377.627322","354144.220139","354893.021179","355659.634401","359560.498901","360310.264241","361076.374135","361843.628264","362610.457596","348776.73543","349543.435219","350310.557643","361853.216537"
"Mixed","Both","done","41","M_done.wav","None","730.89518171","131","358793.956479","351077.077186","351843.860142","352610.659792","353377.627322","354144.220139","354893.021179","355659.634401","359560.498901","360310.264241","361076.374135","361843.628264","362610.457596","363376.420015","349543.435219","350310.557643","362619.594172"
"Mixed","Both","done","41","F_jaw.wav","None","731.151173939","131","358793.956479","351077.077186","351843.860142","352610.659792","353377.627322","354144.220139","354893.021179","355659.634401","359560.498901","360310.264241","361076.374135","361843.628264","362610.457596","363376.420015","364142.986552","350310.557643","363385.100567"
