"Condition","Talker","Target","Trial","current_stimulus","response_response","response_time_response","subject_nr","time_Audio1","time_Audio10","time_Audio11","time_Audio12","time_Audio13","time_Audio14","time_Audio15","time_Audio16","time_Audio2","time_Audio3","time_Audio4","time_Audio5","time_Audio6","time_Audio7","time_Audio8","time_Audio9","time_response","title"
"Mixed","Male","cave","14","F_park.wav","NA","NA","424","55232.6343819","NA","NA","NA","NA","NA","NA","NA","NA","NA","NA","NA","NA","NA","NA","NA","NA","Mapping"
"Mixed","Male","cave","14","M_jolt.wav","None","721.021847717","424","55232.6343819","NA","NA","NA","NA","NA","NA","NA","55999.1965453","NA","NA","NA","NA","NA","NA","NA","55244.1537705","Mapping"
"Mixed","Male","cave","14","M_gnash.wav","None","729.400131245","424","55232.6343819","NA","NA","NA","NA","NA","NA","NA","55999.1965453","56765.9389903","NA","NA","NA","NA","NA","NA","56003.9421561","Mapping"
"Mixed","Male","cave","14","M_lash.wav","None","732.656917042","424","55232.6343819","NA","NA","NA","NA","NA","NA","NA","55999.1965453","56765.9389903","57533.0612284","NA","NA","NA","NA","NA","56769.0055791","Mapping"
"Mixed","Male","cave","14","M_lash.wav","None","733.302024441","424","55232.6343819","NA","NA","NA","NA","NA","NA","NA","55999.1965453","56765.9389903","57533.0612284","58300.3808748","NA","NA","NA","NA","57536.3231222","Mapping"
"Mixed","Male","cave","14","F_priest.wav","None","734.257817007","424","55232.6343819","NA","NA","NA","NA","NA","NA","NA","55999.1965453","56765.9389903","57533.0612284","58300.3808748","59067.5590001","NA","NA","NA","58303.3122524","Mapping"
"Mixed","Male","cave","14","M_cave.wav","None","734.763506692","424","55232.6343819","NA","NA","NA","NA","NA","NA","NA","55999.1965453","56765.9389903","57533.0612284","58300.3808748","59067.5590001","59834.7383274","NA","NA","59070.3731948","Mapping"
"Mixed","Male","cave","14","F_gnash.wav","space","558.446069383","424","55232.6343819","NA","NA","NA","NA","NA","NA","NA","55999.1965453","56765.9389903","57533.0612284","58300.3808748","59067.5590001","59834.7383274","60601.9573165","NA","59837.7865875","Mapping"
"Mixed","Male","cave","14","M_cave.wav","None","736.066341198","424","55232.6343819","NA","NA","NA","NA","NA","NA","NA","55999.1965453","56765.9389903","57533.0612284","58300.3808748","59067.5590001","59834.7383274","60601.9573165","61369.1727001","60605.1245625","Mapping"
"Mixed","Male","cave","14","F_bluff.wav","space","511.114356178","424","55232.6343819","62136.4178301","NA","NA","NA","NA","NA","NA","55999.1965453","56765.9389903","57533.0612284","58300.3808748","59067.5590001","59834.7383274","60601.9573165","61369.1727001","61372.1206035","Mapping"
"Mixed","Male","cave","14","F_park.wav","None","737.467729607","424","55232.6343819","62136.4178301","62903.6972136","NA","NA","NA","NA","NA","55999.1965453","56765.9389903","57533.0612284","58300.3808748","59067.5590001","59834.7383274","60601.9573165","61369.1727001","62139.1019216","Mapping"
"Mixed","Male","cave","14","F_bluff.wav","None","738.244442521","424","55232.6343819","62136.4178301","62903.6972136","63670.9210102","NA","NA","NA","NA","55999.1965453","56765.9389903","57533.0612284","58300.3808748","59067.5590001","59834.7383274","60601.9573165","61369.1727001","62906.3924224","Mapping"
"Mixed","Male","cave","14","M_cave.wav","None","738.966770508","424","55232.6343819","62136.4178301","62903.6972136","63670.9210102","64438.1216708","NA","NA","NA","55999.1965453","56765.9389903","57533.0612284","58300.3808748","59067.5590001","59834.7383274","60601.9573165","61369.1727001","63673.8154302","Mapping"
"Mixed","Male","cave","14","F_romp.wav","space","561.321860217","424","55232.6343819","62136.4178301","62903.6972136","63670.9210102","64438.1216708","65205.3568853","NA","NA","55999.1965453","56765.9389903","57533.0612284","58300.3808748","59067.5590001","59834.7383274","60601.9573165","61369.1727001","64440.9475837","Mapping"
"Mixed","Male","cave","14","M_cave.wav","None","740.59621505","424","55232.6343819","62136.4178301","62903.6972136","63670.9210102","64438.1216708","65205.3568853","65972.6254519","NA","55999.1965453","56765.9389903","57533.0612284","58300.3808748","59067.5590001","59834.7383274","60601.9573165","61369.1727001","65208.2395869","Mapping"
"Mixed","Male","cave","14","F_knife.wav","space","603.56212261","424","55232.6343819","62136.4178301","62903.6972136","63670.9210102","64438.1216708","65205.3568853","65972.6254519","66739.8011735","55999.1965453","56765.9389903","57533.0612284","58300.3808748","59067.5590001","59834.7383274","60601.9573165","61369.1727001","65975.6613928","Mapping"
"Mixed","Male","cave","15","F_jolt.wav","None","742.135518825","424","70026.4349809","62136.4178301","62903.6972136","63670.9210102","64438.1216708","65205.3568853","65972.6254519","66739.8011735","55999.1965453","56765.9389903","57533.0612284","58300.3808748","59067.5590001","59834.7383274","60601.9573165","61369.1727001","66742.583218","Mapping"
"Mixed","Male","cave","15","M_cave.wav","None","729.47464761","424","70026.4349809","62136.4178301","62903.6972136","63670.9210102","64438.1216708","65205.3568853","65972.6254519","66739.8011735","70792.9983462","56765.9389903","57533.0612284","58300.3808748","59067.5590001","59834.7383274","60601.9573165","61369.1727001","70029.7623769","Mapping"
"Mixed","Male","cave","15","F_romp.wav","space","575.944494924","424","70026.4349809","62136.4178301","62903.6972136","63670.9210102","64438.1216708","65205.3568853","65972.6254519","66739.8011735","70792.9983462","71560.324002","57533.0612284","58300.3808748","59067.5590001","59834.7383274","60601.9573165","61369.1727001","70796.2959958","Mapping"
"Mixed","Male","cave","15","M_jaw.wav","None","731.616993096","424","70026.4349809","62136.4178301","62903.6972136","63670.9210102","64438.1216708","65205.3568853","65972.6254519","66739.8011735","70792.9983462","71560.324002","72327.1713107","58300.3808748","59067.5590001","59834.7383274","60601.9573165","61369.1727001","71563.8683368","Mapping"
"Mixed","Male","cave","15","M_lash.wav","None","733.480803623","424","70026.4349809","62136.4178301","62903.6972136","63670.9210102","64438.1216708","65205.3568853","65972.6254519","66739.8011735","70792.9983462","71560.324002","72327.1713107","73094.4353703","59067.5590001","59834.7383274","60601.9573165","61369.1727001","72329.9575617","Mapping"
"Mixed","Male","cave","15","M_cad.wav","None","734.227469617","424","70026.4349809","62136.4178301","62903.6972136","63670.9210102","64438.1216708","65205.3568853","65972.6254519","66739.8011735","70792.9983462","71560.324002","72327.1713107","73094.4353703","73861.5690262","59834.7383274","60601.9573165","61369.1727001","73097.1936776","Mapping"
"Mixed","Male","cave","15","M_cave.wav","None","735.533308815","424","70026.4349809","62136.4178301","62903.6972136","63670.9210102","64438.1216708","65205.3568853","65972.6254519","66739.8011735","70792.9983462","71560.324002","72327.1713107","73094.4353703","73861.5690262","74628.8009355","60601.9573165","61369.1727001","73864.147653","Mapping"
"Mixed","Male","cave","15","F_bluff.wav","space","569.351899927","424","70026.4349809","62136.4178301","62903.6972136","63670.9210102","64438.1216708","65205.3568853","65972.6254519","66739.8011735","70792.9983462","71560.324002","72327.1713107","73094.4353703","73861.5690262","74628.8009355","75395.9820656","61369.1727001","74631.8594117","Mapping"
"Mixed","Male","cave","15","M_cave.wav","None","736.942208953","424","70026.4349809","62136.4178301","62903.6972136","63670.9210102","64438.1216708","65205.3568853","65972.6254519","66739.8011735","70792.9983462","71560.324002","72327.1713107","73094.4353703","73861.5690262","74628.8009355","75395.9820656","76163.2247918","75398.6904951","Mapping"
"Mixed","Male","cave","15","F_gnash.wav","None","737.76789835","424","70026.4349809","76930.541734","62903.6972136","63670.9210102","64438.1216708","65205.3568853","65972.6254519","66739.8011735","70792.9983462","71560.324002","72327.1713107","73094.4353703","73861.5690262","74628.8009355","75395.9820656","76163.2247918","76165.8328646","Mapping"
"Mixed","Male","cave","15","F_reek.wav","space","0.0186290908459","424","70026.4349809","76930.541734","77697.605681","63670.9210102","64438.1216708","65205.3568853","65972.6254519","66739.8011735","70792.9983462","71560.324002","72327.1713107","73094.4353703","73861.5690262","74628.8009355","75395.9820656","76163.2247918","76933.7050738","Mapping"
"Mixed","Male","cave","15","F_bluff.wav","None","738.674113495","424","70026.4349809","76930.541734","77697.605681","78464.8865669","64438.1216708","65205.3568853","65972.6254519","66739.8011735","70792.9983462","71560.324002","72327.1713107","73094.4353703","73861.5690262","74628.8009355","75395.9820656","76163.2247918","77701.2909359","Mapping"
"Mixed","Male","cave","15","M_reek.wav","None","740.083614573","424","70026.4349809","76930.541734","77697.605681","78464.8865669","79232.115772","65205.3568853","65972.6254519","66739.8011735","70792.9983462","71560.324002","72327.1713107","73094.4353703","73861.5690262","74628.8009355","75395.9820656","76163.2247918","78467.5781701","Mapping"
"Mixed","Male","cave","15","F_priest.wav","None","740.617848834","424","70026.4349809","76930.541734","77697.605681","78464.8865669","79232.115772","79999.3834372","65972.6254519","66739.8011735","70792.9983462","71560.324002","72327.1713107","73094.4353703","73861.5690262","74628.8009355","75395.9820656","76163.2247918","79234.877685","Mapping"
"Mixed","Male","cave","15","M_cave.wav","None","741.152984501","424","70026.4349809","76930.541734","77697.605681","78464.8865669","79232.115772","79999.3834372","80766.5840977","66739.8011735","70792.9983462","71560.324002","72327.1713107","73094.4353703","73861.5690262","74628.8009355","75395.9820656","76163.2247918","80002.3015942","Mapping"
"Mixed","Male","cave","15","F_depth.wav","space","574.813829276","424","70026.4349809","76930.541734","77697.605681","78464.8865669","79232.115772","79999.3834372","80766.5840977","81533.7345799","70792.9983462","71560.324002","72327.1713107","73094.4353703","73861.5690262","74628.8009355","75395.9820656","76163.2247918","80769.3985928","Mapping"
"Mixed","Male","done","37","M_priest.wav","None","742.550166339","424","84687.0291647","76930.541734","77697.605681","78464.8865669","79232.115772","79999.3834372","80766.5840977","81533.7345799","70792.9983462","71560.324002","72327.1713107","73094.4353703","73861.5690262","74628.8009355","75395.9820656","76163.2247918","81536.8684738","Mapping"
"Mixed","Male","done","37","F_lash.wav","None","729.019737221","424","84687.0291647","76930.541734","77697.605681","78464.8865669","79232.115772","79999.3834372","80766.5840977","81533.7345799","85453.7875346","71560.324002","72327.1713107","73094.4353703","73861.5690262","74628.8009355","75395.9820656","76163.2247918","84690.8986073","Mapping"
"Mixed","Male","done","37","F_greet.wav","None","731.01244904","424","84687.0291647","76930.541734","77697.605681","78464.8865669","79232.115772","79999.3834372","80766.5840977","81533.7345799","85453.7875346","86220.5335852","72327.1713107","73094.4353703","73861.5690262","74628.8009355","75395.9820656","76163.2247918","85457.1993625","Mapping"
"Mixed","Male","done","37","M_jaw.wav","None","733.125949483","424","84687.0291647","76930.541734","77697.605681","78464.8865669","79232.115772","79999.3834372","80766.5840977","81533.7345799","85453.7875346","86220.5335852","86987.7796166","73094.4353703","73861.5690262","74628.8009355","75395.9820656","76163.2247918","86223.3724184","Mapping"
"Mixed","Male","done","37","M_done.wav","None","734.003019114","424","84687.0291647","76930.541734","77697.605681","78464.8865669","79232.115772","79999.3834372","80766.5840977","81533.7345799","85453.7875346","86220.5335852","86987.7796166","87754.9448218","73861.5690262","74628.8009355","75395.9820656","76163.2247918","86990.6707314","Mapping"
"Mixed","Male","done","37","F_romp.wav","space","605.675022114","424","84687.0291647","76930.541734","77697.605681","78464.8865669","79232.115772","79999.3834372","80766.5840977","81533.7345799","85453.7875346","86220.5335852","86987.7796166","87754.9448218","88522.1686185","74628.8009355","75395.9820656","76163.2247918","87757.5793359","Mapping"
"Mixed","Male","done","37","F_bluff.wav","None","735.443168051","424","84687.0291647","76930.541734","77697.605681","78464.8865669","79232.115772","79999.3834372","80766.5840977","81533.7345799","85453.7875346","86220.5335852","86987.7796166","87754.9448218","88522.1686185","89289.4272696","75395.9820656","76163.2247918","88525.0465126","Mapping"
"Mixed","Male","done","37","F_gnash.wav","None","736.228294104","424","84687.0291647","76930.541734","77697.605681","78464.8865669","79232.115772","79999.3834372","80766.5840977","81533.7345799","85453.7875346","86220.5335852","86987.7796166","87754.9448218","88522.1686185","89289.4272696","90056.6669912","76163.2247918","89292.1549291","Mapping"
"Mixed","Male","done","37","M_done.wav","None","737.346640514","424","84687.0291647","76930.541734","77697.605681","78464.8865669","79232.115772","79999.3834372","80766.5840977","81533.7345799","85453.7875346","86220.5335852","86987.7796166","87754.9448218","88522.1686185","89289.4272696","90056.6669912","90823.8418114","90059.2747635","Mapping"
"Mixed","Male","done","37","F_knife.wav","space","514.589583093","424","84687.0291647","91591.1476361","77697.605681","78464.8865669","79232.115772","79999.3834372","80766.5840977","81533.7345799","85453.7875346","86220.5335852","86987.7796166","87754.9448218","88522.1686185","89289.4272696","90056.6669912","90823.8418114","90826.641283","Mapping"
"Mixed","Male","done","37","M_done.wav","None","738.567446925","424","84687.0291647","91591.1476361","92358.2569541","78464.8865669","79232.115772","79999.3834372","80766.5840977","81533.7345799","85453.7875346","86220.5335852","86987.7796166","87754.9448218","88522.1686185","89289.4272696","90056.6669912","90823.8418114","91593.9921782","Mapping"
"Mixed","Male","done","37","F_priest.wav","space","485.231036787","424","84687.0291647","91591.1476361","92358.2569541","93125.5480558","79232.115772","79999.3834372","80766.5840977","81533.7345799","85453.7875346","86220.5335852","86987.7796166","87754.9448218","88522.1686185","89289.4272696","90056.6669912","90823.8418114","92360.9641817","Mapping"
"Mixed","Male","done","37","F_gnash.wav","None","740.254281085","424","84687.0291647","91591.1476361","92358.2569541","93125.5480558","93892.7874769","79999.3834372","80766.5840977","81533.7345799","85453.7875346","86220.5335852","86987.7796166","87754.9448218","88522.1686185","89289.4272696","90056.6669912","90823.8418114","93128.098739","Mapping"
"Mixed","Male","done","37","M_lash.wav","None","740.610637572","424","84687.0291647","91591.1476361","92358.2569541","93125.5480558","93892.7874769","94659.9610952","80766.5840977","81533.7345799","85453.7875346","86220.5335852","86987.7796166","87754.9448218","88522.1686185","89289.4272696","90056.6669912","90823.8418114","93895.8603756","Mapping"
"Mixed","Male","done","37","M_done.wav","None","741.732289142","424","84687.0291647","91591.1476361","92358.2569541","93125.5480558","93892.7874769","94659.9610952","95427.2900562","81533.7345799","85453.7875346","86220.5335852","86987.7796166","87754.9448218","88522.1686185","89289.4272696","90056.6669912","90823.8418114","94662.8483039","Mapping"
"Mixed","Male","done","37","M_romp.wav","space","631.051449945","424","84687.0291647","91591.1476361","92358.2569541","93125.5480558","93892.7874769","94659.9610952","95427.2900562","96211.3821944","85453.7875346","86220.5335852","86987.7796166","87754.9448218","88522.1686185","89289.4272696","90056.6669912","90823.8418114","95430.1634432","Mapping"
"Mixed","Male","cave","16","M_depth.wav","None","726.523739471","424","99330.5428758","91591.1476361","92358.2569541","93125.5480558","93892.7874769","94659.9610952","95427.2900562","96211.3821944","85453.7875346","86220.5335852","86987.7796166","87754.9448218","88522.1686185","89289.4272696","90056.6669912","90823.8418114","96214.1242765","Mapping"
"Mixed","Male","cave","16","M_dime.wav","None","730.95926599","424","99330.5428758","91591.1476361","92358.2569541","93125.5480558","93892.7874769","94659.9610952","95427.2900562","96211.3821944","100097.750748","86220.5335852","86987.7796166","87754.9448218","88522.1686185","89289.4272696","90056.6669912","90823.8418114","99333.8173892","Mapping"
"Mixed","Male","cave","16","M_cave.wav","None","732.161743779","424","99330.5428758","91591.1476361","92358.2569541","93125.5480558","93892.7874769","94659.9610952","95427.2900562","96211.3821944","100097.750748","100864.493193","86987.7796166","87754.9448218","88522.1686185","89289.4272696","90056.6669912","90823.8418114","100100.981993","Mapping"
"Mixed","Male","cave","16","F_reek.wav","space","711.053781585","424","99330.5428758","91591.1476361","92358.2569541","93125.5480558","93892.7874769","94659.9610952","95427.2900562","96211.3821944","100097.750748","100864.493193","101631.64698","87754.9448218","88522.1686185","89289.4272696","90056.6669912","90823.8418114","100867.120495","Mapping"
"Mixed","Male","cave","16","M_romp.wav","None","734.188408619","424","99330.5428758","91591.1476361","92358.2569541","93125.5480558","93892.7874769","94659.9610952","95427.2900562","96211.3821944","100097.750748","100864.493193","101631.64698","102398.843434","88522.1686185","89289.4272696","90056.6669912","90823.8418114","101634.884536","Mapping"
"Mixed","Male","cave","16","M_cave.wav","None","735.525196146","424","99330.5428758","91591.1476361","92358.2569541","93125.5480558","93892.7874769","94659.9610952","95427.2900562","96211.3821944","100097.750748","100864.493193","101631.64698","102398.843434","103166.133634","89289.4272696","90056.6669912","90823.8418114","102401.603544","Mapping"
"Mixed","Male","cave","16","F_jaw.wav","space","637.065040768","424","99330.5428758","91591.1476361","92358.2569541","93125.5480558","93892.7874769","94659.9610952","95427.2900562","96211.3821944","100097.750748","100864.493193","101631.64698","102398.843434","103166.133634","103933.361638","90056.6669912","90823.8418114","103169.126308","Mapping"
"Mixed","Male","cave","16","M_cave.wav","None","737.549457232","424","99330.5428758","91591.1476361","92358.2569541","93125.5480558","93892.7874769","94659.9610952","95427.2900562","96211.3821944","100097.750748","100864.493193","101631.64698","102398.843434","103166.133634","103933.361638","104700.590843","90823.8418114","103936.024396","Mapping"
"Mixed","Male","cave","16","F_greet.wav","space","610.877045595","424","99330.5428758","91591.1476361","92358.2569541","93125.5480558","93892.7874769","94659.9610952","95427.2900562","96211.3821944","100097.750748","100864.493193","101631.64698","102398.843434","103166.133634","103933.361638","104700.590843","105467.777682","104703.33022","Mapping"
"Mixed","Male","cave","16","M_cave.wav","None","739.382319431","424","99330.5428758","106235.06668","92358.2569541","93125.5480558","93892.7874769","94659.9610952","95427.2900562","96211.3821944","100097.750748","100864.493193","101631.64698","102398.843434","103166.133634","103933.361638","104700.590843","105467.777682","105470.407989","Mapping"
"Mixed","Male","cave","16","F_cling.wav","space","606.380223357","424","99330.5428758","106235.06668","107002.29889","93125.5480558","93892.7874769","94659.9610952","95427.2900562","96211.3821944","100097.750748","100864.493193","101631.64698","102398.843434","103166.133634","103933.361638","104700.590843","105467.777682","106237.824687","Mapping"
"Mixed","Male","cave","16","F_reek.wav","None","740.934242914","424","99330.5428758","106235.06668","107002.29889","107769.49925","93892.7874769","94659.9610952","95427.2900562","96211.3821944","100097.750748","100864.493193","101631.64698","102398.843434","103166.133634","103933.361638","104700.590843","105467.777682","107004.998305","Mapping"
"Mixed","Male","cave","16","F_knife.wav","None","741.887030787","424","99330.5428758","106235.06668","107002.29889","107769.49925","108553.654787","94659.9610952","95427.2900562","96211.3821944","100097.750748","100864.493193","101631.64698","102398.843434","103166.133634","103933.361638","104700.590843","105467.777682","107772.328168","Mapping"
"Mixed","Male","cave","16","M_priest.wav","None","725.633449194","424","99330.5428758","106235.06668","107002.29889","107769.49925","108553.654787","109321.092819","95427.2900562","96211.3821944","100097.750748","100864.493193","101631.64698","102398.843434","103166.133634","103933.361638","104700.590843","105467.777682","108556.995404","Mapping"
"Mixed","Male","cave","16","F_depth.wav","None","726.592546922","424","99330.5428758","106235.06668","107002.29889","107769.49925","108553.654787","109321.092819","110088.090061","96211.3821944","100097.750748","100864.493193","101631.64698","102398.843434","103166.133634","103933.361638","104700.590843","105467.777682","109324.017886","Mapping"
"Mixed","Male","cave","16","F_jaw.wav","None","728.299212049","424","99330.5428758","106235.06668","107002.29889","107769.49925","108553.654787","109321.092819","110088.090061","110855.485727","100097.750748","100864.493193","101631.64698","102398.843434","103166.133634","103933.361638","104700.590843","105467.777682","110090.892538","Mapping"
"Mixed","Female","done","43","M_priest.wav","None","728.745709299","424","113991.712759","106235.06668","107002.29889","107769.49925","108553.654787","109321.092819","110088.090061","110855.485727","100097.750748","100864.493193","101631.64698","102398.843434","103166.133634","103933.361638","104700.590843","105467.777682","110858.669498","Mapping"
"Mixed","Female","done","43","F_done.wav","None","728.97436637","424","113991.712759","106235.06668","107002.29889","107769.49925","108553.654787","109321.092819","110088.090061","110855.485727","114758.069101","100864.493193","101631.64698","102398.843434","103166.133634","103933.361638","104700.590843","105467.777682","113995.068699","Mapping"
"Mixed","Female","done","43","M_jaw.wav","space","541.532657398","424","113991.712759","106235.06668","107002.29889","107769.49925","108553.654787","109321.092819","110088.090061","110855.485727","114758.069101","115525.546794","101631.64698","102398.843434","103166.133634","103933.361638","104700.590843","105467.777682","114761.649492","Mapping"
"Mixed","Female","done","43","M_cad.wav","None","731.531960309","424","113991.712759","106235.06668","107002.29889","107769.49925","108553.654787","109321.092819","110088.090061","110855.485727","114758.069101","115525.546794","116292.342722","102398.843434","103166.133634","103933.361638","104700.590843","105467.777682","115528.787054","Mapping"
"Mixed","Female","done","43","F_done.wav","None","733.066156109","424","113991.712759","106235.06668","107002.29889","107769.49925","108553.654787","109321.092819","110088.090061","110855.485727","114758.069101","115525.546794","116292.342722","117059.506726","103166.133634","103933.361638","104700.590843","105467.777682","116295.065574","Mapping"
"Mixed","Female","done","43","M_romp.wav","space","563.146910215","424","113991.712759","106235.06668","107002.29889","107769.49925","108553.654787","109321.092819","110088.090061","110855.485727","114758.069101","115525.546794","116292.342722","117059.506726","117826.800231","103933.361638","104700.590843","105467.777682","117062.084451","Mapping"
"Mixed","Female","done","43","M_greet.wav","None","734.109685684","424","113991.712759","106235.06668","107002.29889","107769.49925","108553.654787","109321.092819","110088.090061","110855.485727","114758.069101","115525.546794","116292.342722","117059.506726","117826.800231","118593.897831","104700.590843","105467.777682","117829.829862","Mapping"
"Mixed","Female","done","43","M_lash.wav","None","735.384276086","424","113991.712759","106235.06668","107002.29889","107769.49925","108553.654787","109321.092819","110088.090061","110855.485727","114758.069101","115525.546794","116292.342722","117059.506726","117826.800231","118593.897831","119361.653158","105467.777682","118596.772119","Mapping"
"Mixed","Female","done","43","M_dime.wav","None","735.531806468","424","113991.712759","106235.06668","107002.29889","107769.49925","108553.654787","109321.092819","110088.090061","110855.485727","114758.069101","115525.546794","116292.342722","117059.506726","117826.800231","118593.897831","119361.653158","120128.8421","119364.85045","Mapping"
"Mixed","Female","done","43","F_done.wav","None","736.618002673","424","113991.712759","120895.657559","107002.29889","107769.49925","108553.654787","109321.092819","110088.090061","110855.485727","114758.069101","115525.546794","116292.342722","117059.506726","117826.800231","118593.897831","119361.653158","120128.8421","120131.950454","Mapping"
"Mixed","Female","done","43","M_greet.wav","space","528.371204473","424","113991.712759","120895.657559","121662.902689","107769.49925","108553.654787","109321.092819","110088.090061","110855.485727","114758.069101","115525.546794","116292.342722","117059.506726","117826.800231","118593.897831","119361.653158","120128.8421","120898.817293","Mapping"
"Mixed","Female","done","43","F_jolt.wav","None","738.541606573","424","113991.712759","120895.657559","121662.902689","122430.10365","108553.654787","109321.092819","110088.090061","110855.485727","114758.069101","115525.546794","116292.342722","117059.506726","117826.800231","118593.897831","119361.653158","120128.8421","121665.634855","Mapping"
"Mixed","Female","done","43","F_done.wav","None","739.231784354","424","113991.712759","120895.657559","121662.902689","122430.10365","123197.296799","109321.092819","110088.090061","110855.485727","114758.069101","115525.546794","116292.342722","117059.506726","117826.800231","118593.897831","119361.653158","120128.8421","122432.853845","Mapping"
"Mixed","Female","done","43","F_lash.wav","space","557.837919696","424","113991.712759","120895.657559","121662.902689","122430.10365","123197.296799","123964.558154","110088.090061","110855.485727","114758.069101","115525.546794","116292.342722","117059.506726","117826.800231","118593.897831","119361.653158","120128.8421","123200.282561","Mapping"
"Mixed","Female","done","43","F_cad.wav","None","741.04992356","424","113991.712759","120895.657559","121662.902689","122430.10365","123197.296799","123964.558154","124731.773538","110855.485727","114758.069101","115525.546794","116292.342722","117059.506726","117826.800231","118593.897831","119361.653158","120128.8421","123967.391278","Mapping"
"Mixed","Female","done","43","F_bluff.wav","None","742.278241702","424","113991.712759","120895.657559","121662.902689","122430.10365","123197.296799","123964.558154","124731.773538","125516.07961","114758.069101","115525.546794","116292.342722","117059.506726","117826.800231","118593.897831","119361.653158","120128.8421","124734.433291","Mapping"
"Mixed","Male","ball","5","F_depth.wav","None","725.932115592","424","128651.706605","120895.657559","121662.902689","122430.10365","123197.296799","123964.558154","124731.773538","125516.07961","114758.069101","115525.546794","116292.342722","117059.506726","117826.800231","118593.897831","119361.653158","120128.8421","125519.133879","Mapping"
"Mixed","Male","ball","5","F_park.wav","None","731.134139072","424","128651.706605","120895.657559","121662.902689","122430.10365","123197.296799","123964.558154","124731.773538","125516.07961","129418.402778","115525.546794","116292.342722","117059.506726","117826.800231","118593.897831","119361.653158","120128.8421","128654.712199","Mapping"
"Mixed","Male","ball","5","F_priest.wav","None","733.060146725","424","128651.706605","120895.657559","121662.902689","122430.10365","123197.296799","123964.558154","124731.773538","125516.07961","129418.402778","130186.147288","116292.342722","117059.506726","117826.800231","118593.897831","119361.653158","120128.8421","129421.123226","Mapping"
"Mixed","Male","ball","5","M_cad.wav","None","732.702287893","424","128651.706605","120895.657559","121662.902689","122430.10365","123197.296799","123964.558154","124731.773538","125516.07961","129418.402778","130186.147288","130952.96515","117059.506726","117826.800231","118593.897831","119361.653158","120128.8421","130189.477388","Mapping"
"Mixed","Male","ball","5","F_jolt.wav","None","734.838323527","424","128651.706605","120895.657559","121662.902689","122430.10365","123197.296799","123964.558154","124731.773538","125516.07961","129418.402778","130186.147288","130952.96515","131720.157398","117826.800231","118593.897831","119361.653158","120128.8421","130955.890519","Mapping"
"Mixed","Male","ball","5","M_ball.wav","None","735.988820142","424","128651.706605","120895.657559","121662.902689","122430.10365","123197.296799","123964.558154","124731.773538","125516.07961","129418.402778","130186.147288","130952.96515","131720.157398","132487.340331","118593.897831","119361.653158","120128.8421","131723.173808","Mapping"
"Mixed","Male","ball","5","F_depth.wav","space","456.281128611","424","128651.706605","120895.657559","121662.902689","122430.10365","123197.296799","123964.558154","124731.773538","125516.07961","129418.402778","130186.147288","130952.96515","131720.157398","132487.340331","133254.538888","119361.653158","120128.8421","132489.866075","Mapping"
"Mixed","Male","ball","5","M_ball.wav","None","738.287409619","424","128651.706605","120895.657559","121662.902689","122430.10365","123197.296799","123964.558154","124731.773538","125516.07961","129418.402778","130186.147288","130952.96515","131720.157398","132487.340331","133254.538888","134021.830591","120128.8421","133257.056219","Mapping"
"Mixed","Male","ball","5","F_knife.wav","space","469.851520134","424","128651.706605","120895.657559","121662.902689","122430.10365","123197.296799","123964.558154","124731.773538","125516.07961","129418.402778","130186.147288","130952.96515","131720.157398","132487.340331","133254.538888","134021.830591","134789.04357","134024.337405","Mapping"
"Mixed","Male","ball","5","F_jaw.wav","None","739.856159378","424","128651.706605","135556.223499","121662.902689","122430.10365","123197.296799","123964.558154","124731.773538","125516.07961","129418.402778","130186.147288","130952.96515","131720.157398","132487.340331","133254.538888","134021.830591","134789.04357","134791.567512","Mapping"
"Mixed","Male","ball","5","M_romp.wav","None","741.096195819","424","128651.706605","135556.223499","136323.433173","122430.10365","123197.296799","123964.558154","124731.773538","125516.07961","129418.402778","130186.147288","130952.96515","131720.157398","132487.340331","133254.538888","134021.830591","134789.04357","135558.94575","Mapping"
"Mixed","Male","ball","5","M_ball.wav","None","741.419200223","424","128651.706605","135556.223499","136323.433173","137107.882569","123197.296799","123964.558154","124731.773538","125516.07961","129418.402778","130186.147288","130952.96515","131720.157398","132487.340331","133254.538888","134021.830591","134789.04357","136326.926428","Mapping"
"Mixed","Male","ball","5","M_lash.wav","space","537.101637918","424","128651.706605","135556.223499","136323.433173","137107.882569","137875.372281","123964.558154","124731.773538","125516.07961","129418.402778","130186.147288","130952.96515","131720.157398","132487.340331","133254.538888","134021.830591","134789.04357","137111.058829","Mapping"
"Mixed","Male","ball","5","F_depth.wav","None","726.04358967","424","128651.706605","135556.223499","136323.433173","137107.882569","137875.372281","138642.126745","124731.773538","125516.07961","129418.402778","130186.147288","130952.96515","131720.157398","132487.340331","133254.538888","134021.830591","134789.04357","137878.782607","Mapping"
"Mixed","Male","ball","5","M_ball.wav","None","728.444939617","424","128651.706605","135556.223499","136323.433173","137107.882569","137875.372281","138642.126745","139410.127555","125516.07961","129418.402778","130186.147288","130952.96515","131720.157398","132487.340331","133254.538888","134021.830591","134789.04357","138645.098686","Mapping"
"Mixed","Male","ball","5","M_knife.wav","space","439.746007365","424","128651.706605","135556.223499","136323.433173","137107.882569","137875.372281","138642.126745","139410.127555","140176.69062","129418.402778","130186.147288","130952.96515","131720.157398","132487.340331","133254.538888","134021.830591","134789.04357","139413.404472","Mapping"
"Mixed","Male","tile","25","F_dime.wav","None","730.185858237","424","143312.791756","135556.223499","136323.433173","137107.882569","137875.372281","138642.126745","139410.127555","140176.69062","129418.402778","130186.147288","130952.96515","131720.157398","132487.340331","133254.538888","134021.830591","134789.04357","140179.340158","Mapping"
"Mixed","Male","tile","25","F_priest.wav","None","729.094253586","424","143312.791756","135556.223499","136323.433173","137107.882569","137875.372281","138642.126745","139410.127555","140176.69062","144079.080192","130186.147288","130952.96515","131720.157398","132487.340331","133254.538888","134021.830591","134789.04357","143316.524785","Mapping"
"Mixed","Male","tile","25","M_tile.wav","None","732.11156542","424","143312.791756","135556.223499","136323.433173","137107.882569","137875.372281","138642.126745","139410.127555","140176.69062","144079.080192","144846.326223","130952.96515","131720.157398","132487.340331","133254.538888","134021.830591","134789.04357","144082.014273","Mapping"
"Mixed","Male","tile","25","F_dime.wav","space","560.218537268","424","143312.791756","135556.223499","136323.433173","137107.882569","137875.372281","138642.126745","139410.127555","140176.69062","144079.080192","144846.326223","145613.431635","131720.157398","132487.340331","133254.538888","134021.830591","134789.04357","144848.927685","Mapping"
"Mixed","Male","tile","25","M_tile.wav","None","734.392126746","424","143312.791756","135556.223499","136323.433173","137107.882569","137875.372281","138642.126745","139410.127555","140176.69062","144079.080192","144846.326223","145613.431635","146380.740765","132487.340331","133254.538888","134021.830591","134789.04357","145616.145473","Mapping"
"Mixed","Male","tile","25","F_jaw.wav","None","735.635167878","424","143312.791756","135556.223499","136323.433173","137107.882569","137875.372281","138642.126745","139410.127555","140176.69062","144079.080192","144846.326223","145613.431635","146380.740765","147147.852787","133254.538888","134021.830591","134789.04357","146383.446791","Mapping"
"Mixed","Male","tile","25","M_park.wav","space","62.5171267448","424","143312.791756","135556.223499","136323.433173","137107.882569","137875.372281","138642.126745","139410.127555","140176.69062","144079.080192","144846.326223","145613.431635","146380.740765","147147.852787","147915.20248","134021.830591","134789.04357","147150.612597","Mapping"
"Mixed","Male","tile","25","F_cling.wav","None","737.287448079","424","143312.791756","135556.223499","136323.433173","137107.882569","137875.372281","138642.126745","139410.127555","140176.69062","144079.080192","144846.326223","145613.431635","146380.740765","147147.852787","147915.20248","148682.429582","134789.04357","147918.235116","Mapping"
"Mixed","Male","tile","25","M_greet.wav","None","738.043729088","424","143312.791756","135556.223499","136323.433173","137107.882569","137875.372281","138642.126745","139410.127555","140176.69062","144079.080192","144846.326223","145613.431635","146380.740765","147147.852787","147915.20248","148682.429582","149449.562036","148685.654218","Mapping"
"Mixed","Male","tile","25","F_jolt.wav","None","739.91234712","424","143312.791756","150217.144293","136323.433173","137107.882569","137875.372281","138642.126745","139410.127555","140176.69062","144079.080192","144846.326223","145613.431635","146380.740765","147147.852787","147915.20248","148682.429582","149449.562036","149452.43332","Mapping"
"Mixed","Male","tile","25","M_tile.wav","None","740.190882081","424","143312.791756","150217.144293","150984.475357","137107.882569","137875.372281","138642.126745","139410.127555","140176.69062","144079.080192","144846.326223","145613.431635","146380.740765","147147.852787","147915.20248","148682.429582","149449.562036","150220.130055","Mapping"
"Mixed","Male","tile","25","M_priest.wav","space","429.360589496","424","143312.791756","150217.144293","150984.475357","151751.267079","137875.372281","138642.126745","139410.127555","140176.69062","144079.080192","144846.326223","145613.431635","146380.740765","147147.852787","147915.20248","148682.429582","149449.562036","150987.82048","Mapping"
"Mixed","Male","tile","25","F_jolt.wav","None","742.628588804","424","143312.791756","150217.144293","150984.475357","151751.267079","152535.453865","138642.126745","139410.127555","140176.69062","144079.080192","144846.326223","145613.431635","146380.740765","147147.852787","147915.20248","148682.429582","149449.562036","151754.163301","Mapping"
"Mixed","Male","tile","25","F_dime.wav","None","726.585035191","424","143312.791756","150217.144293","150984.475357","151751.267079","152535.453865","153302.765699","139410.127555","140176.69062","144079.080192","144846.326223","145613.431635","146380.740765","147147.852787","147915.20248","148682.429582","149449.562036","152538.611496","Mapping"
"Mixed","Male","tile","25","M_tile.wav","None","728.262254337","424","143312.791756","150217.144293","150984.475357","151751.267079","152535.453865","153302.765699","154069.939017","140176.69062","144079.080192","144846.326223","145613.431635","146380.740765","147147.852787","147915.20248","148682.429582","149449.562036","153305.432363","Mapping"
"Mixed","Male","tile","25","M_jaw.wav","space","547.550755259","424","143312.791756","150217.144293","150984.475357","151751.267079","152535.453865","153302.765699","154069.939017","154837.187452","144079.080192","144846.326223","145613.431635","146380.740765","147147.852787","147915.20248","148682.429582","149449.562036","154072.567822","Mapping"
"Mixed","Male","tile","26","F_gnash.wav","None","729.645314123","424","157973.409977","150217.144293","150984.475357","151751.267079","152535.453865","153302.765699","154069.939017","154837.187452","144079.080192","144846.326223","145613.431635","146380.740765","147147.852787","147915.20248","148682.429582","149449.562036","154840.432219","Mapping"
"Mixed","Male","tile","26","M_lash.wav","None","729.099962501","424","157973.409977","150217.144293","150984.475357","151751.267079","152535.453865","153302.765699","154069.939017","154837.187452","158739.672873","144846.326223","145613.431635","146380.740765","147147.852787","147915.20248","148682.429582","149449.562036","157977.194687","Mapping"
"Mixed","Male","tile","26","F_romp.wav","None","732.652710472","424","157973.409977","150217.144293","150984.475357","151751.267079","152535.453865","153302.765699","154069.939017","154837.187452","158739.672873","159506.892463","145613.431635","146380.740765","147147.852787","147915.20248","148682.429582","149449.562036","158742.384007","Mapping"
"Mixed","Male","tile","26","F_bluff.wav","None","734.041178705","424","157973.409977","150217.144293","150984.475357","151751.267079","152535.453865","153302.765699","154069.939017","154837.187452","158739.672873","159506.892463","160274.129781","146380.740765","147147.852787","147915.20248","148682.429582","149449.562036","159509.703353","Mapping"
"Mixed","Male","tile","26","M_cling.wav","None","735.026116784","424","157973.409977","150217.144293","150984.475357","151751.267079","152535.453865","153302.765699","154069.939017","154837.187452","158739.672873","159506.892463","160274.129781","161041.338855","147147.852787","147915.20248","148682.429582","149449.562036","160277.023901","Mapping"
"Mixed","Male","tile","26","F_jolt.wav","None","736.746903965","424","157973.409977","150217.144293","150984.475357","151751.267079","152535.453865","153302.765699","154069.939017","154837.187452","158739.672873","159506.892463","160274.129781","161041.338855","161808.565055","147915.20248","148682.429582","149449.562036","161043.938815","Mapping"
"Mixed","Male","tile","26","M_tile.wav","None","738.054545978","424","157973.409977","150217.144293","150984.475357","151751.267079","152535.453865","153302.765699","154069.939017","154837.187452","158739.672873","159506.892463","160274.129781","161041.338855","161808.565055","162575.814091","148682.429582","149449.562036","161811.326067","Mapping"
"Mixed","Male","tile","26","M_jaw.wav","space","573.705398349","424","157973.409977","150217.144293","150984.475357","151751.267079","152535.453865","153302.765699","154069.939017","154837.187452","158739.672873","159506.892463","160274.129781","161041.338855","161808.565055","162575.814091","163342.933325","149449.562036","162578.447403","Mapping"
"Mixed","Male","tile","26","F_bluff.wav","None","739.894018499","424","157973.409977","150217.144293","150984.475357","151751.267079","152535.453865","153302.765699","154069.939017","154837.187452","158739.672873","159506.892463","160274.129781","161041.338855","161808.565055","162575.814091","163342.933325","164110.221422","163345.889341","Mapping"
"Mixed","Male","tile","26","M_tile.wav","None","741.300815353","424","157973.409977","164894.455382","150984.475357","151751.267079","152535.453865","153302.765699","154069.939017","154837.187452","158739.672873","159506.892463","160274.129781","161041.338855","161808.565055","162575.814091","163342.933325","164110.221422","164113.141682","Mapping"
"Mixed","Male","tile","26","F_knife.wav","space","508.979221953","424","157973.409977","164894.455382","165661.665657","151751.267079","152535.453865","153302.765699","154069.939017","154837.187452","158739.672873","159506.892463","160274.129781","161041.338855","161808.565055","162575.814091","163342.933325","164110.221422","164897.177633","Mapping"
"Mixed","Male","tile","26","M_tile.wav","None","726.683589092","424","157973.409977","164894.455382","165661.665657","166428.890656","152535.453865","153302.765699","154069.939017","154837.187452","158739.672873","159506.892463","160274.129781","161041.338855","161808.565055","162575.814091","163342.933325","164110.221422","165664.545654","Mapping"
"Mixed","Male","tile","26","M_cling.wav","space","646.435473635","424","157973.409977","164894.455382","165661.665657","166428.890656","167196.089513","153302.765699","154069.939017","154837.187452","158739.672873","159506.892463","160274.129781","161041.338855","161808.565055","162575.814091","163342.933325","164110.221422","166431.695836","Mapping"
"Mixed","Male","tile","26","F_bluff.wav","None","728.763436983","424","157973.409977","164894.455382","165661.665657","166428.890656","167196.089513","167963.397441","154069.939017","154837.187452","158739.672873","159506.892463","160274.129781","161041.338855","161808.565055","162575.814091","163342.933325","164110.221422","167199.255858","Mapping"
"Mixed","Male","tile","26","M_tile.wav","None","730.226421581","424","157973.409977","164894.455382","165661.665657","166428.890656","167196.089513","167963.397441","168730.255267","154837.187452","158739.672873","159506.892463","160274.129781","161041.338855","161808.565055","162575.814091","163342.933325","164110.221422","167966.415955","Mapping"
"Mixed","Male","tile","26","F_dime.wav","space","506.00728097","424","157973.409977","164894.455382","165661.665657","166428.890656","167196.089513","167963.397441","168730.255267","169497.504002","158739.672873","159506.892463","160274.129781","161041.338855","161808.565055","162575.814091","163342.933325","164110.221422","168733.135564","Mapping"
"Mixed","Male","tile","29","M_park.wav","None","733.139170128","424","172634.150189","164894.455382","165661.665657","166428.890656","167196.089513","167963.397441","168730.255267","169497.504002","158739.672873","159506.892463","160274.129781","161041.338855","161808.565055","162575.814091","163342.933325","164110.221422","169500.332018","Mapping"
"Mixed","Male","tile","29","M_tile.wav","None","729.559079458","424","172634.150189","164894.455382","165661.665657","166428.890656","167196.089513","167963.397441","168730.255267","169497.504002","173400.824127","159506.892463","160274.129781","161041.338855","161808.565055","162575.814091","163342.933325","164110.221422","172637.509435","Mapping"
"Mixed","Male","tile","29","F_bluff.wav","space","587.261066881","424","172634.150189","164894.455382","165661.665657","166428.890656","167196.089513","167963.397441","168730.255267","169497.504002","173400.824127","174168.007661","160274.129781","161041.338855","161808.565055","162575.814091","163342.933325","164110.221422","173403.807486","Mapping"
"Mixed","Male","tile","29","F_park.wav","None","732.790325373","424","172634.150189","164894.455382","165661.665657","166428.890656","167196.089513","167963.397441","168730.255267","169497.504002","173400.824127","174168.007661","174935.106462","161041.338855","161808.565055","162575.814091","163342.933325","164110.221422","174171.285479","Mapping"
"Mixed","Male","tile","29","F_dime.wav","None","734.32572305","424","172634.150189","164894.455382","165661.665657","166428.890656","167196.089513","167963.397441","168730.255267","169497.504002","173400.824127","174168.007661","174935.106462","175701.926428","161808.565055","162575.814091","163342.933325","164110.221422","174938.374666","Mapping"
"Mixed","Male","tile","29","F_depth.wav","None","736.598772643","424","172634.150189","164894.455382","165661.665657","166428.890656","167196.089513","167963.397441","168730.255267","169497.504002","173400.824127","174168.007661","174935.106462","175701.926428","176469.188986","162575.814091","163342.933325","164110.221422","175704.697355","Mapping"
"Mixed","Male","tile","29","M_tile.wav","None","738.002865274","424","172634.150189","164894.455382","165661.665657","166428.890656","167196.089513","167963.397441","168730.255267","169497.504002","173400.824127","174168.007661","174935.106462","175701.926428","176469.188986","177236.445533","163342.933325","164110.221422","176472.014598","Mapping"
"Mixed","Male","tile","29","M_gnash.wav","space","551.983577555","424","172634.150189","164894.455382","165661.665657","166428.890656","167196.089513","167963.397441","168730.255267","169497.504002","173400.824127","174168.007661","174935.106462","175701.926428","176469.188986","177236.445533","178003.668729","164110.221422","177239.148855","Mapping"
"Mixed","Male","tile","29","M_dime.wav","None","740.023520731","424","172634.150189","164894.455382","165661.665657","166428.890656","167196.089513","167963.397441","168730.255267","169497.504002","173400.824127","174168.007661","174935.106462","175701.926428","176469.188986","177236.445533","178003.668729","178770.874197","178006.419825","Mapping"
"Mixed","Male","tile","29","M_tile.wav","None","741.852476827","424","172634.150189","179538.049618","165661.665657","166428.890656","167196.089513","167963.397441","168730.255267","169497.504002","173400.824127","174168.007661","174935.106462","175701.926428","176469.188986","177236.445533","178003.668729","178770.874197","178773.52073","Mapping"
"Mixed","Male","tile","29","F_depth.wav","space","554.07664609","424","172634.150189","179538.049618","180322.090977","166428.890656","167196.089513","167963.397441","168730.255267","169497.504002","173400.824127","174168.007661","174935.106462","175701.926428","176469.188986","177236.445533","178003.668729","178770.874197","179541.059418","Mapping"
"Mixed","Male","tile","29","F_jolt.wav","None","726.650837949","424","172634.150189","179538.049618","180322.090977","181089.973402","167196.089513","167963.397441","168730.255267","169497.504002","173400.824127","174168.007661","174935.106462","175701.926428","176469.188986","177236.445533","178003.668729","178770.874197","180325.061115","Mapping"
"Mixed","Male","tile","29","M_tile.wav","None","726.119307911","424","172634.150189","179538.049618","180322.090977","181089.973402","181856.798176","167963.397441","168730.255267","169497.504002","173400.824127","174168.007661","174935.106462","175701.926428","176469.188986","177236.445533","178003.668729","178770.874197","181093.808591","Mapping"
"Mixed","Male","tile","29","F_park.wav","space","592.730507961","424","172634.150189","179538.049618","180322.090977","181089.973402","181856.798176","182624.554705","168730.255267","169497.504002","173400.824127","174168.007661","174935.106462","175701.926428","176469.188986","177236.445533","178003.668729","178770.874197","181860.387581","Mapping"
"Mixed","Male","tile","29","M_knife.wav","None","729.276938868","424","172634.150189","179538.049618","180322.090977","181089.973402","181856.798176","182624.554705","183391.202201","169497.504002","173400.824127","174168.007661","174935.106462","175701.926428","176469.188986","177236.445533","178003.668729","178770.874197","182627.876993","Mapping"
"Mixed","Male","tile","29","F_jaw.wav","None","731.411171686","424","172634.150189","179538.049618","180322.090977","181089.973402","181856.798176","182624.554705","183391.202201","184158.088271","173400.824127","174168.007661","174935.106462","175701.926428","176469.188986","177236.445533","178003.668729","178770.874197","183394.169635","Mapping"
"Mixed","Male","done","40","F_knife.wav","None","733.794493481","424","187294.434589","179538.049618","180322.090977","181089.973402","181856.798176","182624.554705","183391.202201","184158.088271","173400.824127","174168.007661","174935.106462","175701.926428","176469.188986","177236.445533","178003.668729","178770.874197","184160.496832","Mapping"
"Mixed","Male","done","40","F_greet.wav","None","729.126103323","424","187294.434589","179538.049618","180322.090977","181089.973402","181856.798176","182624.554705","183391.202201","184158.088271","188061.250048","174168.007661","174935.106462","175701.926428","176469.188986","177236.445533","178003.668729","178770.874197","187298.067562","Mapping"
"Mixed","Male","done","40","M_bluff.wav","None","730.897669801","424","187294.434589","179538.049618","180322.090977","181089.973402","181856.798176","182624.554705","183391.202201","184158.088271","188061.250048","188828.562483","174935.106462","175701.926428","176469.188986","177236.445533","178003.668729","178770.874197","188064.548299","Mapping"
"Mixed","Male","done","40","M_done.wav","None","732.37507692","424","187294.434589","179538.049618","180322.090977","181089.973402","181856.798176","182624.554705","183391.202201","184158.088271","188061.250048","188828.562483","189595.356008","175701.926428","176469.188986","177236.445533","178003.668729","178770.874197","188831.844809","Mapping"
"Mixed","Male","done","40","F_romp.wav","space","613.942432503","424","187294.434589","179538.049618","180322.090977","181089.973402","181856.798176","182624.554705","183391.202201","184158.088271","188061.250048","188828.562483","189595.356008","190362.593025","176469.188986","177236.445533","178003.668729","178770.874197","189598.165395","Mapping"
"Mixed","Male","done","40","F_park.wav","None","735.985214511","424","187294.434589","179538.049618","180322.090977","181089.973402","181856.798176","182624.554705","183391.202201","184158.088271","188061.250048","188828.562483","189595.356008","190362.593025","191129.740202","177236.445533","178003.668729","178770.874197","190365.387689","Mapping"
"Mixed","Male","done","40","M_done.wav","None","736.696425138","424","187294.434589","179538.049618","180322.090977","181089.973402","181856.798176","182624.554705","183391.202201","184158.088271","188061.250048","188828.562483","189595.356008","190362.593025","191129.740202","191896.982328","178003.668729","178770.874197","191132.927279","Mapping"
"Mixed","Male","done","40","F_greet.wav","space","574.105923811","424","187294.434589","179538.049618","180322.090977","181089.973402","181856.798176","182624.554705","183391.202201","184158.088271","188061.250048","188828.562483","189595.356008","190362.593025","191129.740202","191896.982328","192664.216941","178770.874197","191900.022776","Mapping"
"Mixed","Male","done","40","F_jolt.wav","None","738.592686339","424","187294.434589","179538.049618","180322.090977","181089.973402","181856.798176","182624.554705","183391.202201","184158.088271","188061.250048","188828.562483","189595.356008","190362.593025","191129.740202","191896.982328","192664.216941","193431.424513","192666.993577","Mapping"
"Mixed","Male","done","40","M_done.wav","None","740.695369889","424","187294.434589","194198.666337","180322.090977","181089.973402","181856.798176","182624.554705","183391.202201","184158.088271","188061.250048","188828.562483","189595.356008","190362.593025","191129.740202","191896.982328","192664.216941","193431.424513","193433.97159","Mapping"
"Mixed","Male","done","40","M_knife.wav","space","562.639117245","424","187294.434589","194198.666337","194982.992241","181089.973402","181856.798176","182624.554705","183391.202201","184158.088271","188061.250048","188828.562483","189595.356008","190362.593025","191129.740202","191896.982328","192664.216941","193431.424513","194201.456194","Mapping"
"Mixed","Male","done","40","F_jaw.wav","None","727.789015326","424","187294.434589","194198.666337","194982.992241","195749.912263","181856.798176","182624.554705","183391.202201","184158.088271","188061.250048","188828.562483","189595.356008","190362.593025","191129.740202","191896.982328","192664.216941","193431.424513","194986.582547","Mapping"
"Mixed","Male","done","40","M_knife.wav","None","731.224580305","424","187294.434589","194198.666337","194982.992241","195749.912263","196517.446144","182624.554705","183391.202201","184158.088271","188061.250048","188828.562483","189595.356008","190362.593025","191129.740202","191896.982328","192664.216941","193431.424513","195753.504372","Mapping"
"Mixed","Male","done","40","F_cad.wav","None","732.765386428","424","187294.434589","194198.666337","194982.992241","195749.912263","196517.446144","197284.206317","183391.202201","184158.088271","188061.250048","188828.562483","189595.356008","190362.593025","191129.740202","191896.982328","192664.216941","193431.424513","196520.7477","Mapping"
"Mixed","Male","done","40","M_done.wav","None","735.503562363","424","187294.434589","194198.666337","194982.992241","195749.912263","196517.446144","197284.206317","198051.528367","184158.088271","188061.250048","188828.562483","189595.356008","190362.593025","191129.740202","191896.982328","192664.216941","193431.424513","197286.978746","Mapping"
"Mixed","Male","done","40","M_knife.wav","space","566.195771316","424","187294.434589","194198.666337","194982.992241","195749.912263","196517.446144","197284.206317","198051.528367","198818.656314","188061.250048","188828.562483","189595.356008","190362.593025","191129.740202","191896.982328","192664.216941","193431.424513","198054.945002","Mapping"
"Mixed","Female","tile","34","F_dime.wav","None","737.629982981","424","201954.561243","194198.666337","194982.992241","195749.912263","196517.446144","197284.206317","198051.528367","198818.656314","188061.250048","188828.562483","189595.356008","190362.593025","191129.740202","191896.982328","192664.216941","193431.424513","198821.506865","Mapping"
"Mixed","Female","tile","34","F_romp.wav","None","719.884271278","424","201954.561243","194198.666337","194982.992241","195749.912263","196517.446144","197284.206317","198051.528367","198818.656314","202721.495087","188828.562483","189595.356008","190362.593025","191129.740202","191896.982328","192664.216941","193431.424513","201968.747296","Mapping"
"Mixed","Female","tile","34","M_cad.wav","None","733.126550421","424","201954.561243","194198.666337","194982.992241","195749.912263","196517.446144","197284.206317","198051.528367","198818.656314","202721.495087","203488.79971","189595.356008","190362.593025","191129.740202","191896.982328","192664.216941","193431.424513","202724.382295","Mapping"
"Mixed","Female","tile","34","F_tile.wav","None","734.505103169","424","201954.561243","194198.666337","194982.992241","195749.912263","196517.446144","197284.206317","198051.528367","198818.656314","202721.495087","203488.79971","204255.908126","190362.593025","191129.740202","191896.982328","192664.216941","193431.424513","203491.876815","Mapping"
"Mixed","Female","tile","34","M_knife.wav","space","582.400977367","424","201954.561243","194198.666337","194982.992241","195749.912263","196517.446144","197284.206317","198051.528367","198818.656314","202721.495087","203488.79971","204255.908126","205023.158965","191129.740202","191896.982328","192664.216941","193431.424513","204258.732236","Mapping"
"Mixed","Female","tile","34","M_priest.wav","None","736.553401793","424","201954.561243","194198.666337","194982.992241","195749.912263","196517.446144","197284.206317","198051.528367","198818.656314","202721.495087","203488.79971","204255.908126","205023.158965","205790.313353","191896.982328","192664.216941","193431.424513","205025.984878","Mapping"
"Mixed","Female","tile","34","F_tile.wav","None","739.50821603","424","201954.561243","194198.666337","194982.992241","195749.912263","196517.446144","197284.206317","198051.528367","198818.656314","202721.495087","203488.79971","204255.908126","205023.158965","205790.313353","206557.627291","192664.216941","193431.424513","205793.355304","Mapping"
"Mixed","Female","tile","34","M_depth.wav","space","650.656765605","424","201954.561243","194198.666337","194982.992241","195749.912263","196517.446144","197284.206317","198051.528367","198818.656314","202721.495087","203488.79971","204255.908126","205023.158965","205790.313353","206557.627291","207324.885341","193431.424513","206560.444791","Mapping"
"Mixed","Female","tile","34","M_cling.wav","None","741.725378351","424","201954.561243","194198.666337","194982.992241","195749.912263","196517.446144","197284.206317","198051.528367","198818.656314","202721.495087","203488.79971","204255.908126","205023.158965","205790.313353","206557.627291","207324.885341","208109.031564","207328.018934","Mapping"
"Mixed","Female","tile","34","M_knife.wav","None","726.715438829","424","201954.561243","208876.324468","194982.992241","195749.912263","196517.446144","197284.206317","198051.528367","198818.656314","202721.495087","203488.79971","204255.908126","205023.158965","205790.313353","206557.627291","207324.885341","208109.031564","208111.903448","Mapping"
"Mixed","Female","tile","34","F_tile.wav","None","728.218385831","424","201954.561243","208876.324468","209643.43619","195749.912263","196517.446144","197284.206317","198051.528367","198818.656314","202721.495087","203488.79971","204255.908126","205023.158965","205790.313353","206557.627291","207324.885341","208109.031564","208879.189142","Mapping"
"Mixed","Female","tile","34","M_gnash.wav","space","584.571566959","424","201954.561243","208876.324468","209643.43619","210410.377245","196517.446144","197284.206317","198051.528367","198818.656314","202721.495087","203488.79971","204255.908126","205023.158965","205790.313353","206557.627291","207324.885341","208109.031564","209646.559267","Mapping"
"Mixed","Female","tile","34","F_jaw.wav","None","731.139547517","424","201954.561243","208876.324468","209643.43619","210410.377245","211177.642807","197284.206317","198051.528367","198818.656314","202721.495087","203488.79971","204255.908126","205023.158965","205790.313353","206557.627291","207324.885341","208109.031564","210413.349787","Mapping"
"Mixed","Female","tile","34","F_tile.wav","None","732.888578805","424","201954.561243","208876.324468","209643.43619","210410.377245","211177.642807","211944.908669","198051.528367","198818.656314","202721.495087","203488.79971","204255.908126","205023.158965","205790.313353","206557.627291","207324.885341","208109.031564","211180.347931","Mapping"
"Mixed","Female","tile","34","F_reek.wav","None","723.991685416","424","201954.561243","208876.324468","209643.43619","210410.377245","211177.642807","211944.908669","212712.035415","198818.656314","202721.495087","203488.79971","204255.908126","205023.158965","205790.313353","206557.627291","207324.885341","208109.031564","211958.091756","Mapping"
"Mixed","Female","tile","34","M_dime.wav","space","21.454403196","424","201954.561243","208876.324468","209643.43619","210410.377245","211177.642807","211944.908669","212712.035415","213479.316901","202721.495087","203488.79971","204255.908126","205023.158965","205790.313353","206557.627291","207324.885341","208109.031564","212714.680145","Mapping"
"Mixed","Female","ball","12","M_bluff.wav","None","736.075054806","424","216615.897586","208876.324468","209643.43619","210410.377245","211177.642807","211944.908669","212712.035415","213479.316901","202721.495087","203488.79971","204255.908126","205023.158965","205790.313353","206557.627291","207324.885341","208109.031564","213482.403922","Mapping"
"Mixed","Female","ball","12","F_ball.wav","None","729.188901389","424","216615.897586","208876.324468","209643.43619","210410.377245","211177.642807","211944.908669","212712.035415","213479.316901","217382.14035","203488.79971","204255.908126","205023.158965","205790.313353","206557.627291","207324.885341","208109.031564","216619.660963","Mapping"
"Mixed","Female","ball","12","F_jolt.wav","space","557.158558806","424","216615.897586","208876.324468","209643.43619","210410.377245","211177.642807","211944.908669","212712.035415","213479.316901","217382.14035","218149.341912","204255.908126","205023.158965","205790.313353","206557.627291","207324.885341","208109.031564","217384.929005","Mapping"
"Mixed","Female","ball","12","F_priest.wav","None","734.049591842","424","216615.897586","208876.324468","209643.43619","210410.377245","211177.642807","211944.908669","212712.035415","213479.316901","217382.14035","218149.341912","218916.587343","205023.158965","205790.313353","206557.627291","207324.885341","208109.031564","218151.991149","Mapping"
"Mixed","Female","ball","12","M_gnash.wav","None","735.243956963","424","216615.897586","208876.324468","209643.43619","210410.377245","211177.642807","211944.908669","212712.035415","213479.316901","217382.14035","218149.341912","218916.587343","219683.814745","205790.313353","206557.627291","207324.885341","208109.031564","218919.295472","Mapping"
"Mixed","Female","ball","12","F_ball.wav","None","736.766734934","424","216615.897586","208876.324468","209643.43619","210410.377245","211177.642807","211944.908669","212712.035415","213479.316901","217382.14035","218149.341912","218916.587343","219683.814745","220451.293941","206557.627291","207324.885341","208109.031564","219686.680921","Mapping"
"Mixed","Female","ball","12","F_park.wav","space","491.540289316","424","216615.897586","208876.324468","209643.43619","210410.377245","211177.642807","211944.908669","212712.035415","213479.316901","217382.14035","218149.341912","218916.587343","219683.814745","220451.293941","221218.631615","207324.885341","208109.031564","220454.497844","Mapping"
"Mixed","Female","ball","12","F_ball.wav","None","738.019090612","424","216615.897586","208876.324468","209643.43619","210410.377245","211177.642807","211944.908669","212712.035415","213479.316901","217382.14035","218149.341912","218916.587343","219683.814745","220451.293941","221218.631615","221985.50176","208109.031564","221221.84934","Mapping"
"Mixed","Female","ball","12","M_reek.wav","space","599.507891523","424","216615.897586","208876.324468","209643.43619","210410.377245","211177.642807","211944.908669","212712.035415","213479.316901","217382.14035","218149.341912","218916.587343","219683.814745","220451.293941","221218.631615","221985.50176","222752.712636","221988.597193","Mapping"
"Mixed","Female","ball","12","M_romp.wav","None","740.879857986","424","216615.897586","223537.062877","209643.43619","210410.377245","211177.642807","211944.908669","212712.035415","213479.316901","217382.14035","218149.341912","218916.587343","219683.814745","220451.293941","221218.631615","221985.50176","222752.712636","222755.460427","Mapping"
"Mixed","Female","ball","12","M_jaw.wav","None","726.069430022","424","216615.897586","223537.062877","224303.945942","210410.377245","211177.642807","211944.908669","212712.035415","213479.316901","217382.14035","218149.341912","218916.587343","219683.814745","220451.293941","221218.631615","221985.50176","222752.712636","223540.510161","Mapping"
"Mixed","Female","ball","12","M_lash.wav","None","730.762458656","424","216615.897586","223537.062877","224303.945942","225071.018302","211177.642807","211944.908669","212712.035415","213479.316901","217382.14035","218149.341912","218916.587343","219683.814745","220451.293941","221218.631615","221985.50176","222752.712636","224306.708456","Mapping"
"Mixed","Female","ball","12","M_depth.wav","None","732.601630707","424","216615.897586","223537.062877","224303.945942","225071.018302","225838.2427","211944.908669","212712.035415","213479.316901","217382.14035","218149.341912","218916.587343","219683.814745","220451.293941","221218.631615","221985.50176","222752.712636","225073.778713","Mapping"
"Mixed","Female","ball","12","F_ball.wav","None","734.666154667","424","216615.897586","223537.062877","224303.945942","225071.018302","225838.2427","226605.427435","212712.035415","213479.316901","217382.14035","218149.341912","218916.587343","219683.814745","220451.293941","221218.631615","221985.50176","222752.712636","225840.859186","Mapping"
"Mixed","Female","ball","12","M_depth.wav","space","479.180187781","424","216615.897586","223537.062877","224303.945942","225071.018302","225838.2427","226605.427435","227372.683082","213479.316901","217382.14035","218149.341912","218916.587343","219683.814745","220451.293941","221218.631615","221985.50176","222752.712636","226608.892747","Mapping"
"Mixed","Female","ball","12","F_dime.wav","None","736.660368832","424","216615.897586","223537.062877","224303.945942","225071.018302","225838.2427","226605.427435","227372.683082","228139.835968","217382.14035","218149.341912","218916.587343","219683.814745","220451.293941","221218.631615","221985.50176","222752.712636","227375.578403","Mapping"
"Mixed","Female","tile","33","F_park.wav","None","738.69544681","424","231276.078925","223537.062877","224303.945942","225071.018302","225838.2427","226605.427435","227372.683082","228139.835968","217382.14035","218149.341912","218916.587343","219683.814745","220451.293941","221218.631615","221985.50176","222752.712636","228142.707252","Mapping"
"Mixed","Female","tile","33","F_jaw.wav","None","731.700223068","424","231276.078925","223537.062877","224303.945942","225071.018302","225838.2427","226605.427435","227372.683082","228139.835968","232043.093895","218149.341912","218916.587343","219683.814745","220451.293941","221218.631615","221985.50176","222752.712636","231279.177063","Mapping"
"Mixed","Female","tile","33","F_tile.wav","None","733.791488788","424","231276.078925","223537.062877","224303.945942","225071.018302","225838.2427","226605.427435","227372.683082","228139.835968","232043.093895","232810.028941","218916.587343","219683.814745","220451.293941","221218.631615","221985.50176","222752.712636","232046.209461","Mapping"
"Mixed","Female","tile","33","M_priest.wav","space","623.246762144","424","231276.078925","223537.062877","224303.945942","225071.018302","225838.2427","226605.427435","227372.683082","228139.835968","232043.093895","232810.028941","233577.189038","219683.814745","220451.293941","221218.631615","221985.50176","222752.712636","232812.83953","Mapping"
"Mixed","Female","tile","33","F_tile.wav","None","737.047673647","424","231276.078925","223537.062877","224303.945942","225071.018302","225838.2427","226605.427435","227372.683082","228139.835968","232043.093895","232810.028941","233577.189038","234344.322995","220451.293941","221218.631615","221985.50176","222752.712636","233580.157674","Mapping"
"Mixed","Female","tile","33","M_reek.wav","space","664.114481174","424","231276.078925","223537.062877","224303.945942","225071.018302","225838.2427","226605.427435","227372.683082","228139.835968","232043.093895","232810.028941","233577.189038","234344.322995","235111.6162","221218.631615","221985.50176","222752.712636","234347.008889","Mapping"
"Mixed","Female","tile","33","M_cad.wav","None","739.446920311","424","231276.078925","223537.062877","224303.945942","225071.018302","225838.2427","226605.427435","227372.683082","228139.835968","232043.093895","232810.028941","233577.189038","234344.322995","235111.6162","235878.824372","221985.50176","222752.712636","235114.390132","Mapping"
"Mixed","Female","tile","33","M_jaw.wav","None","740.940252298","424","231276.078925","223537.062877","224303.945942","225071.018302","225838.2427","226605.427435","227372.683082","228139.835968","232043.093895","232810.028941","233577.189038","234344.322995","235111.6162","235878.824372","236646.031943","222752.712636","235881.644276","Mapping"
"Mixed","Female","tile","33","F_tile.wav","None","743.05375274","424","231276.078925","223537.062877","224303.945942","225071.018302","225838.2427","226605.427435","227372.683082","228139.835968","232043.093895","232810.028941","233577.189038","234344.322995","235111.6162","235878.824372","236646.031943","237430.326898","236648.820298","Mapping"
"Mixed","Female","tile","33","F_bluff.wav","space","570.082340583","424","231276.078925","238197.522752","224303.945942","225071.018302","225838.2427","226605.427435","227372.683082","228139.835968","232043.093895","232810.028941","233577.189038","234344.322995","235111.6162","235878.824372","236646.031943","237430.326898","237433.014596","Mapping"
"Mixed","Female","tile","33","M_greet.wav","None","728.288996096","424","231276.078925","238197.522752","238964.653703","225071.018302","225838.2427","226605.427435","227372.683082","228139.835968","232043.093895","232810.028941","233577.189038","234344.322995","235111.6162","235878.824372","236646.031943","237430.326898","238200.430092","Mapping"
"Mixed","Female","tile","33","M_park.wav","None","730.466496481","424","231276.078925","238197.522752","238964.653703","239732.118476","225838.2427","226605.427435","227372.683082","228139.835968","232043.093895","232810.028941","233577.189038","234344.322995","235111.6162","235878.824372","236646.031943","237430.326898","238967.69956","Mapping"
"Mixed","Female","tile","33","F_dime.wav","None","731.686101015","424","231276.078925","238197.522752","238964.653703","239732.118476","240498.774687","226605.427435","227372.683082","228139.835968","232043.093895","232810.028941","233577.189038","234344.322995","235111.6162","235878.824372","236646.031943","237430.326898","239735.639975","Mapping"
"Mixed","Female","tile","33","F_tile.wav","None","735.215111919","424","231276.078925","238197.522752","238964.653703","239732.118476","240498.774687","241266.016511","227372.683082","228139.835968","232043.093895","232810.028941","233577.189038","234344.322995","235111.6162","235878.824372","236646.031943","237430.326898","240501.430233","Mapping"
"Mixed","Female","tile","33","M_knife.wav","space","562.571812142","424","231276.078925","238197.522752","238964.653703","239732.118476","240498.774687","241266.016511","242033.628815","228139.835968","232043.093895","232810.028941","233577.189038","234344.322995","235111.6162","235878.824372","236646.031943","237430.326898","241268.53204","Mapping"
"Mixed","Female","tile","33","M_cling.wav","None","737.009213588","424","231276.078925","238197.522752","238964.653703","239732.118476","240498.774687","241266.016511","242033.628815","242800.530809","232043.093895","232810.028941","233577.189038","234344.322995","235111.6162","235878.824372","236646.031943","237430.326898","242036.845338","Mapping"
"Mixed","Female","cave","22","F_bluff.wav","None","739.833023249","424","245936.551118","238197.522752","238964.653703","239732.118476","240498.774687","241266.016511","242033.628815","242800.530809","232043.093895","232810.028941","233577.189038","234344.322995","235111.6162","235878.824372","236646.031943","237430.326898","242803.319464","Mapping"
"Mixed","Female","cave","22","F_lash.wav","None","730.89436464","424","245936.551118","238197.522752","238964.653703","239732.118476","240498.774687","241266.016511","242033.628815","242800.530809","246703.756586","232810.028941","233577.189038","234344.322995","235111.6162","235878.824372","236646.031943","237430.326898","245940.019434","Mapping"
"Mixed","Female","cave","22","F_depth.wav","None","733.03941435","424","245936.551118","238197.522752","238964.653703","239732.118476","240498.774687","241266.016511","242033.628815","242800.530809","246703.756586","247471.022749","233577.189038","234344.322995","235111.6162","235878.824372","236646.031943","237430.326898","246707.028396","Mapping"
"Mixed","Female","cave","22","F_cave.wav","None","735.341308988","424","245936.551118","238197.522752","238964.653703","239732.118476","240498.774687","241266.016511","242033.628815","242800.530809","246703.756586","247471.022749","248238.062358","234344.322995","235111.6162","235878.824372","236646.031943","237430.326898","247474.004906","Mapping"
"Mixed","Female","cave","22","M_priest.wav","space","651.888989847","424","245936.551118","238197.522752","238964.653703","239732.118476","240498.774687","241266.016511","242033.628815","242800.530809","246703.756586","247471.022749","248238.062358","249005.240183","235111.6162","235878.824372","236646.031943","237430.326898","248241.166205","Mapping"
"Mixed","Female","cave","22","M_bluff.wav","None","737.432274239","424","245936.551118","238197.522752","238964.653703","239732.118476","240498.774687","241266.016511","242033.628815","242800.530809","246703.756586","247471.022749","248238.062358","249005.240183","249772.682721","235878.824372","236646.031943","237430.326898","249008.692274","Mapping"
"Mixed","Female","cave","22","F_cave.wav","None","738.595090093","424","245936.551118","238197.522752","238964.653703","239732.118476","240498.774687","241266.016511","242033.628815","242800.530809","246703.756586","247471.022749","248238.062358","249005.240183","249772.682721","250539.40804","236646.031943","237430.326898","249776.257704","Mapping"
"Mixed","Female","cave","22","M_jolt.wav","space","657.859914042","424","245936.551118","238197.522752","238964.653703","239732.118476","240498.774687","241266.016511","242033.628815","242800.530809","246703.756586","247471.022749","248238.062358","249005.240183","249772.682721","250539.40804","251306.62763","237430.326898","250542.234553","Mapping"
"Mixed","Female","cave","22","M_knife.wav","None","742.684175609","424","245936.551118","238197.522752","238964.653703","239732.118476","240498.774687","241266.016511","242033.628815","242800.530809","246703.756586","247471.022749","248238.062358","249005.240183","249772.682721","250539.40804","251306.62763","252090.768744","251309.478782","Mapping"
"Mixed","Female","cave","22","M_greet.wav","None","727.389090804","424","245936.551118","252858.129856","238964.653703","239732.118476","240498.774687","241266.016511","242033.628815","242800.530809","246703.756586","247471.022749","248238.062358","249005.240183","249772.682721","250539.40804","251306.62763","252090.768744","252093.96784","Mapping"
"Mixed","Female","cave","22","F_depth.wav","None","729.706008904","424","245936.551118","252858.129856","253625.060695","239732.118476","240498.774687","241266.016511","242033.628815","242800.530809","246703.756586","247471.022749","248238.062358","249005.240183","249772.682721","250539.40804","251306.62763","252090.768744","252860.963581","Mapping"
"Mixed","Female","cave","22","M_bluff.wav","None","731.794570402","424","245936.551118","252858.129856","253625.060695","254392.190445","240498.774687","241266.016511","242033.628815","242800.530809","246703.756586","247471.022749","248238.062358","249005.240183","249772.682721","250539.40804","251306.62763","252090.768744","253627.968636","Mapping"
"Mixed","Female","cave","22","F_cave.wav","None","733.565535941","424","245936.551118","252858.129856","253625.060695","254392.190445","255159.456307","241266.016511","242033.628815","242800.530809","246703.756586","247471.022749","248238.062358","249005.240183","249772.682721","250539.40804","251306.62763","252090.768744","254394.949353","Mapping"
"Mixed","Female","cave","22","M_jolt.wav","space","543.917481539","424","245936.551118","252858.129856","253625.060695","254392.190445","255159.456307","255926.654263","242033.628815","242800.530809","246703.756586","247471.022749","248238.062358","249005.240183","249772.682721","250539.40804","251306.62763","252090.768744","255162.145206","Mapping"
"Mixed","Female","cave","22","F_cave.wav","None","735.816350813","424","245936.551118","252858.129856","253625.060695","254392.190445","255159.456307","255926.654263","256693.94206","242800.530809","246703.756586","247471.022749","248238.062358","249005.240183","249772.682721","250539.40804","251306.62763","252090.768744","255929.454336","Mapping"
"Mixed","Female","cave","22","M_cad.wav","space","729.179887312","424","245936.551118","252858.129856","253625.060695","254392.190445","255159.456307","255926.654263","256693.94206","257461.143321","246703.756586","247471.022749","248238.062358","249005.240183","249772.682721","250539.40804","251306.62763","252090.768744","256696.879447","Mapping"
"Mixed","Female","done","45","F_jaw.wav","None","738.48541883","424","260597.143199","252858.129856","253625.060695","254392.190445","255159.456307","255926.654263","256693.94206","257461.143321","246703.756586","247471.022749","248238.062358","249005.240183","249772.682721","250539.40804","251306.62763","252090.768744","257463.935882","Mapping"
"Mixed","Female","done","45","M_priest.wav","None","730.746834257","424","260597.143199","252858.129856","253625.060695","254392.190445","255159.456307","255926.654263","256693.94206","257461.143321","261364.422883","247471.022749","248238.062358","249005.240183","249772.682721","250539.40804","251306.62763","252090.768744","260600.269281","Mapping"
"Mixed","Female","done","45","M_gnash.wav","None","732.278025364","424","260597.143199","252858.129856","253625.060695","254392.190445","255159.456307","255926.654263","256693.94206","257461.143321","261364.422883","262131.213102","248238.062358","249005.240183","249772.682721","250539.40804","251306.62763","252090.768744","261367.439293","Mapping"
"Mixed","Female","done","45","M_reek.wav","None","734.979243586","424","260597.143199","252858.129856","253625.060695","254392.190445","255159.456307","255926.654263","256693.94206","257461.143321","261364.422883","262131.213102","262898.371397","249005.240183","249772.682721","250539.40804","251306.62763","252090.768744","262133.970208","Mapping"
"Mixed","Female","done","45","F_park.wav","None","736.560613053","424","260597.143199","252858.129856","253625.060695","254392.190445","255159.456307","255926.654263","256693.94206","257461.143321","261364.422883","262131.213102","262898.371397","263666.064226","249772.682721","250539.40804","251306.62763","252090.768744","262901.536539","Mapping"
"Mixed","Female","done","45","F_done.wav","None","737.607447791","424","260597.143199","252858.129856","253625.060695","254392.190445","255159.456307","255926.654263","256693.94206","257461.143321","261364.422883","262131.213102","262898.371397","263666.064226","264433.203591","250539.40804","251306.62763","252090.768744","263669.517819","Mapping"
"Mixed","Female","done","45","M_lash.wav","space","568.65991933","424","260597.143199","252858.129856","253625.060695","254392.190445","255159.456307","255926.654263","256693.94206","257461.143321","261364.422883","262131.213102","262898.371397","263666.064226","264433.203591","265200.437603","251306.62763","252090.768744","264436.354611","Mapping"
"Mixed","Female","done","45","M_lash.wav","None","740.130187301","424","260597.143199","252858.129856","253625.060695","254392.190445","255159.456307","255926.654263","256693.94206","257461.143321","261364.422883","262131.213102","262898.371397","263666.064226","264433.203591","265200.437603","265967.486226","252090.768744","265203.499385","Mapping"
"Mixed","Female","done","45","F_done.wav","None","742.066711377","424","260597.143199","252858.129856","253625.060695","254392.190445","255159.456307","255926.654263","256693.94206","257461.143321","261364.422883","262131.213102","262898.371397","263666.064226","264433.203591","265200.437603","265967.486226","266751.51737","265970.787482","Mapping"
"Mixed","Female","done","45","F_gnash.wav","space","576.276513403","424","260597.143199","267518.770913","253625.060695","254392.190445","255159.456307","255926.654263","256693.94206","257461.143321","261364.422883","262131.213102","262898.371397","263666.064226","264433.203591","265200.437603","265967.486226","266751.51737","266764.784588","Mapping"
"Mixed","Female","done","45","F_priest.wav","None","728.252939791","424","260597.143199","267518.770913","268286.02716","254392.190445","255159.456307","255926.654263","256693.94206","257461.143321","261364.422883","262131.213102","262898.371397","263666.064226","264433.203591","265200.437603","265967.486226","266751.51737","267521.750365","Mapping"
"Mixed","Female","done","45","M_jolt.wav","None","730.350815834","424","260597.143199","267518.770913","268286.02716","269052.811671","255159.456307","255926.654263","256693.94206","257461.143321","261364.422883","262131.213102","262898.371397","263666.064226","264433.203591","265200.437603","265967.486226","266751.51737","268288.876209","Mapping"
"Mixed","Female","done","45","F_done.wav","None","732.925536518","424","260597.143199","267518.770913","268286.02716","269052.811671","269820.058003","255926.654263","256693.94206","257461.143321","261364.422883","262131.213102","262898.371397","263666.064226","264433.203591","265200.437603","265967.486226","266751.51737","269055.690166","Mapping"
"Mixed","Female","done","45","M_jaw.wav","space","548.133365063","424","260597.143199","267518.770913","268286.02716","269052.811671","269820.058003","270587.332879","256693.94206","257461.143321","261364.422883","262131.213102","262898.371397","263666.064226","264433.203591","265200.437603","265967.486226","266751.51737","269822.940103","Mapping"
"Mixed","Female","done","45","F_done.wav","None","734.969027633","424","260597.143199","267518.770913","268286.02716","269052.811671","269820.058003","270587.332879","271354.486967","257461.143321","261364.422883","262131.213102","262898.371397","263666.064226","264433.203591","265200.437603","265967.486226","266751.51737","270590.422604","Mapping"
"Mixed","Female","done","45","M_gnash.wav","space","483.723883216","424","260597.143199","267518.770913","268286.02716","269052.811671","269820.058003","270587.332879","271354.486967","272121.763346","261364.422883","262131.213102","262898.371397","263666.064226","264433.203591","265200.437603","265967.486226","266751.51737","271357.314382","Mapping"
"Mixed","Female","tile","31","F_priest.wav","None","737.80996404","424","275257.700125","267518.770913","268286.02716","269052.811671","269820.058003","270587.332879","271354.486967","272121.763346","261364.422883","262131.213102","262898.371397","263666.064226","264433.203591","265200.437603","265967.486226","266751.51737","272124.632526","Mapping"
"Mixed","Female","tile","31","F_tile.wav","None","730.776881178","424","275257.700125","267518.770913","268286.02716","269052.811671","269820.058003","270587.332879","271354.486967","272121.763346","276024.491246","262131.213102","262898.371397","263666.064226","264433.203591","265200.437603","265967.486226","266751.51737","275261.284121","Mapping"
"Mixed","Female","tile","31","F_park.wav","space","643.436189955","424","275257.700125","267518.770913","268286.02716","269052.811671","269820.058003","270587.332879","271354.486967","272121.763346","276024.491246","276791.77153","262898.371397","263666.064226","264433.203591","265200.437603","265967.486226","266751.51737","276027.602003","Mapping"
"Mixed","Female","tile","31","F_cling.wav","None","734.902623937","424","275257.700125","267518.770913","268286.02716","269052.811671","269820.058003","270587.332879","271354.486967","272121.763346","276024.491246","276791.77153","277559.02928","263666.064226","264433.203591","265200.437603","265967.486226","266751.51737","276794.533443","Mapping"
"Mixed","Female","tile","31","F_priest.wav","None","737.176574939","424","275257.700125","267518.770913","268286.02716","269052.811671","269820.058003","270587.332879","271354.486967","272121.763346","276024.491246","276791.77153","277559.02928","278326.267199","264433.203591","265200.437603","265967.486226","266751.51737","277561.613315","Mapping"
"Mixed","Female","tile","31","M_lash.wav","None","739.126319661","424","275257.700125","267518.770913","268286.02716","269052.811671","269820.058003","270587.332879","271354.486967","272121.763346","276024.491246","276791.77153","277559.02928","278326.267199","279093.479578","265200.437603","265967.486226","266751.51737","278328.994257","Mapping"
"Mixed","Female","tile","31","F_tile.wav","None","741.218787258","424","275257.700125","267518.770913","268286.02716","269052.811671","269820.058003","270587.332879","271354.486967","272121.763346","276024.491246","276791.77153","277559.02928","278326.267199","279093.479578","279877.701519","265967.486226","266751.51737","279096.161265","Mapping"
"Mixed","Female","tile","31","M_depth.wav","space","553.42432743","424","275257.700125","267518.770913","268286.02716","269052.811671","269820.058003","270587.332879","271354.486967","272121.763346","276024.491246","276791.77153","277559.02928","278326.267199","279093.479578","279877.701519","280644.795813","266751.51737","279880.61607","Mapping"
"Mixed","Female","tile","31","M_lash.wav","None","726.957917484","424","275257.700125","267518.770913","268286.02716","269052.811671","269820.058003","270587.332879","271354.486967","272121.763346","276024.491246","276791.77153","277559.02928","278326.267199","279093.479578","279877.701519","280644.795813","281412.178258","280647.716374","Mapping"
"Mixed","Female","tile","31","M_depth.wav","None","729.038065843","424","275257.700125","282179.050205","268286.02716","269052.811671","269820.058003","270587.332879","271354.486967","272121.763346","276024.491246","276791.77153","277559.02928","278326.267199","279093.479578","279877.701519","280644.795813","281412.178258","281414.997861","Mapping"
"Mixed","Female","tile","31","F_tile.wav","None","731.608579958","424","275257.700125","282179.050205","282946.244555","269052.811671","269820.058003","270587.332879","271354.486967","272121.763346","276024.491246","276791.77153","277559.02928","278326.267199","279093.479578","279877.701519","280644.795813","281412.178258","282181.907967","Mapping"
"Mixed","Female","tile","31","M_depth.wav","space","668.97427022","424","275257.700125","282179.050205","282946.244555","283713.817497","269820.058003","270587.332879","271354.486967","272121.763346","276024.491246","276791.77153","277559.02928","278326.267199","279093.479578","279877.701519","280644.795813","281412.178258","282949.069267","Mapping"
"Mixed","Female","tile","31","M_depth.wav","None","733.801704742","424","275257.700125","282179.050205","282946.244555","283713.817497","284481.087566","270587.332879","271354.486967","272121.763346","276024.491246","276791.77153","277559.02928","278326.267199","279093.479578","279877.701519","280644.795813","281412.178258","283717.012987","Mapping"
"Mixed","Female","tile","31","F_tile.wav","None","736.357195397","424","275257.700125","282179.050205","282946.244555","283713.817497","284481.087566","285247.919852","271354.486967","272121.763346","276024.491246","276791.77153","277559.02928","278326.267199","279093.479578","279877.701519","280644.795813","281412.178258","284484.314005","Mapping"
"Mixed","Female","tile","31","M_cling.wav","space","628.902494135","424","275257.700125","282179.050205","282946.244555","283713.817497","284481.087566","285247.919852","286015.733469","272121.763346","276024.491246","276791.77153","277559.02928","278326.267199","279093.479578","279877.701519","280644.795813","281412.178258","285251.057351","Mapping"
"Mixed","Female","tile","31","M_dime.wav","None","738.984798661","424","275257.700125","282179.050205","282946.244555","283713.817497","284481.087566","285247.919852","286015.733469","286782.675726","276024.491246","276791.77153","277559.02928","278326.267199","279093.479578","279877.701519","280644.795813","281412.178258","286018.883889","Mapping"
"Mixed","Male","ball","2","F_depth.wav","None","741.111519749","424","289918.676505","282179.050205","282946.244555","283713.817497","284481.087566","285247.919852","286015.733469","286782.675726","276024.491246","276791.77153","277559.02928","278326.267199","279093.479578","279877.701519","280644.795813","281412.178258","286785.693639","Mapping"
"Mixed","Male","ball","2","F_depth.wav","None","728.728282085","424","289918.676505","282179.050205","282946.244555","283713.817497","284481.087566","285247.919852","286015.733469","286782.675726","290685.368471","276791.77153","277559.02928","278326.267199","279093.479578","279877.701519","280644.795813","281412.178258","289922.569985","Mapping"
"Mixed","Male","ball","2","M_ball.wav","None","731.739284066","424","289918.676505","282179.050205","282946.244555","283713.817497","284481.087566","285247.919852","286015.733469","286782.675726","290685.368471","291452.906559","277559.02928","278326.267199","279093.479578","279877.701519","280644.795813","281412.178258","290688.504469","Mapping"
"Mixed","Male","ball","2","F_priest.wav","space","529.935747663","424","289918.676505","282179.050205","282946.244555","283713.817497","284481.087566","285247.919852","286015.733469","286782.675726","290685.368471","291452.906559","292219.554056","278326.267199","279093.479578","279877.701519","280644.795813","281412.178258","291456.136603","Mapping"
"Mixed","Male","ball","2","M_jaw.wav","None","734.486173609","424","289918.676505","282179.050205","282946.244555","283713.817497","284481.087566","285247.919852","286015.733469","286782.675726","290685.368471","291452.906559","292219.554056","292986.740294","279093.479578","279877.701519","280644.795813","281412.178258","292222.442466","Mapping"
"Mixed","Male","ball","2","M_romp.wav","None","736.442829122","424","289918.676505","282179.050205","282946.244555","283713.817497","284481.087566","285247.919852","286015.733469","286782.675726","290685.368471","291452.906559","292219.554056","292986.740294","293754.043414","279877.701519","280644.795813","281412.178258","292989.568911","Mapping"
"Mixed","Male","ball","2","M_ball.wav","None","738.559033787","424","289918.676505","282179.050205","282946.244555","283713.817497","284481.087566","285247.919852","286015.733469","286782.675726","290685.368471","291452.906559","292219.554056","292986.740294","293754.043414","294521.283436","280644.795813","281412.178258","293756.784294","Mapping"
"Mixed","Male","ball","2","M_knife.wav","space","616.991293604","424","289918.676505","282179.050205","282946.244555","283713.817497","284481.087566","285247.919852","286015.733469","286782.675726","290685.368471","291452.906559","292219.554056","292986.740294","293754.043414","294521.283436","295288.474181","281412.178258","294524.036035","Mapping"
"Mixed","Male","ball","2","M_ball.wav","None","741.493115649","424","289918.676505","282179.050205","282946.244555","283713.817497","284481.087566","285247.919852","286015.733469","286782.675726","290685.368471","291452.906559","292219.554056","292986.740294","293754.043414","294521.283436","295288.474181","296072.65646","295291.236695","Mapping"
"Mixed","Male","ball","2","F_jolt.wav","space","625.615961886","424","289918.676505","296839.918116","282946.244555","283713.817497","284481.087566","285247.919852","286015.733469","286782.675726","290685.368471","291452.906559","292219.554056","292986.740294","293754.043414","294521.283436","295288.474181","296072.65646","296075.459237","Mapping"
"Mixed","Male","ball","2","M_dime.wav","None","726.438406215","424","289918.676505","296839.918116","297607.099847","283713.817497","284481.087566","285247.919852","286015.733469","286782.675726","290685.368471","291452.906559","292219.554056","292986.740294","293754.043414","294521.283436","295288.474181","296072.65646","296843.497305","Mapping"
"Mixed","Male","ball","2","F_jaw.wav","None","729.305182974","424","289918.676505","296839.918116","297607.099847","298374.110912","284481.087566","285247.919852","286015.733469","286782.675726","290685.368471","291452.906559","292219.554056","292986.740294","293754.043414","294521.283436","295288.474181","296072.65646","297610.304051","Mapping"
"Mixed","Male","ball","2","F_cad.wav","None","731.941199377","424","289918.676505","296839.918116","297607.099847","298374.110912","299141.264999","285247.919852","286015.733469","286782.675726","290685.368471","291452.906559","292219.554056","292986.740294","293754.043414","294521.283436","295288.474181","296072.65646","298377.289876","Mapping"
"Mixed","Male","ball","2","M_ball.wav","None","734.268934368","424","289918.676505","296839.918116","297607.099847","298374.110912","299141.264999","299908.489097","286015.733469","286782.675726","290685.368471","291452.906559","292219.554056","292986.740294","293754.043414","294521.283436","295288.474181","296072.65646","299144.35202","Mapping"
"Mixed","Male","ball","2","F_romp.wav","space","533.110805834","424","289918.676505","296839.918116","297607.099847","298374.110912","299141.264999","299908.489097","300675.792518","286782.675726","290685.368471","291452.906559","292219.554056","292986.740294","293754.043414","294521.283436","295288.474181","296072.65646","299911.886201","Mapping"
"Mixed","Male","ball","2","F_cad.wav","None","737.031147841","424","289918.676505","296839.918116","297607.099847","298374.110912","299141.264999","299908.489097","300675.792518","301443.022624","290685.368471","291452.906559","292219.554056","292986.740294","293754.043414","294521.283436","295288.474181","296072.65646","300679.129228","Mapping"
"Mixed","Female","done","44","M_romp.wav","None","738.847183762","424","304579.504755","296839.918116","297607.099847","298374.110912","299141.264999","299908.489097","300675.792518","301443.022624","290685.368471","291452.906559","292219.554056","292986.740294","293754.043414","294521.283436","295288.474181","296072.65646","301446.406809","Mapping"
"Mixed","Female","done","44","M_bluff.wav","None","729.711417349","424","304579.504755","296839.918116","297607.099847","298374.110912","299141.264999","299908.489097","300675.792518","301443.022624","305346.101472","291452.906559","292219.554056","292986.740294","293754.043414","294521.283436","295288.474181","296072.65646","304582.653672","Mapping"
"Mixed","Female","done","44","M_jolt.wav","None","733.006062267","424","304579.504755","296839.918116","297607.099847","298374.110912","299141.264999","299908.489097","300675.792518","301443.022624","305346.101472","306113.142884","292219.554056","292986.740294","293754.043414","294521.283436","295288.474181","296072.65646","305349.073714","Mapping"
"Mixed","Female","done","44","F_done.wav","None","735.70698002","424","304579.504755","296839.918116","297607.099847","298374.110912","299141.264999","299908.489097","300675.792518","301443.022624","305346.101472","306113.142884","306880.275338","292986.740294","293754.043414","294521.283436","295288.474181","296072.65646","306116.212177","Mapping"
"Mixed","Female","done","44","M_dime.wav","space","515.799572612","424","304579.504755","296839.918116","297607.099847","298374.110912","299141.264999","299908.489097","300675.792518","301443.022624","305346.101472","306113.142884","306880.275338","307647.513557","293754.043414","294521.283436","295288.474181","296072.65646","306883.199204","Mapping"
"Mixed","Female","done","44","M_greet.wav","None","738.990207107","424","304579.504755","296839.918116","297607.099847","298374.110912","299141.264999","299908.489097","300675.792518","301443.022624","305346.101472","306113.142884","306880.275338","307647.513557","308415.024602","294521.283436","295288.474181","296072.65646","307650.221085","Mapping"
"Mixed","Female","done","44","F_priest.wav","None","740.092929119","424","304579.504755","296839.918116","297607.099847","298374.110912","299141.264999","299908.489097","300675.792518","301443.022624","305346.101472","306113.142884","306880.275338","307647.513557","308415.024602","309199.62243","295288.474181","296072.65646","308418.133257","Mapping"
"Mixed","Female","done","44","F_done.wav","None","724.377187415","424","304579.504755","296839.918116","297607.099847","298374.110912","299141.264999","299908.489097","300675.792518","301443.022624","305346.101472","306113.142884","306880.275338","307647.513557","308415.024602","309199.62243","309966.110979","296072.65646","309203.161056","Mapping"
"Mixed","Female","done","44","F_bluff.wav","space","566.765460943","424","304579.504755","296839.918116","297607.099847","298374.110912","299141.264999","299908.489097","300675.792518","301443.022624","305346.101472","306113.142884","306880.275338","307647.513557","308415.024602","309199.62243","309966.110979","310733.336278","309969.24277","Mapping"
"Mixed","Female","done","44","F_gnash.wav","None","728.231306008","424","304579.504755","311500.257803","297607.099847","298374.110912","299141.264999","299908.489097","300675.792518","301443.022624","305346.101472","306113.142884","306880.275338","307647.513557","308415.024602","309199.62243","309966.110979","310733.336278","310736.32174","Mapping"
"Mixed","Female","done","44","M_reek.wav","None","731.163885524","424","304579.504755","311500.257803","312267.487909","298374.110912","299141.264999","299908.489097","300675.792518","301443.022624","305346.101472","306113.142884","306880.275338","307647.513557","308415.024602","309199.62243","309966.110979","310733.336278","311503.119471","Mapping"
"Mixed","Female","done","44","F_done.wav","None","733.396071305","424","304579.504755","311500.257803","312267.487909","313034.654016","299141.264999","299908.489097","300675.792518","301443.022624","305346.101472","306113.142884","306880.275338","307647.513557","308415.024602","309199.62243","309966.110979","310733.336278","312270.41478","Mapping"
"Mixed","Female","done","44","M_park.wav","space","476.540565747","424","304579.504755","311500.257803","312267.487909","313034.654016","313802.359465","299908.489097","300675.792518","301443.022624","305346.101472","306113.142884","306880.275338","307647.513557","308415.024602","309199.62243","309966.110979","310733.336278","313037.484736","Mapping"
"Mixed","Female","done","44","F_done.wav","None","735.7989236","424","304579.504755","311500.257803","312267.487909","313034.654016","313802.359465","314569.152388","300675.792518","301443.022624","305346.101472","306113.142884","306880.275338","307647.513557","308415.024602","309199.62243","309966.110979","310733.336278","313805.429358","Mapping"
"Mixed","Female","done","44","M_jaw.wav","space","455.938593707","424","304579.504755","311500.257803","312267.487909","313034.654016","313802.359465","314569.152388","315336.832898","301443.022624","305346.101472","306113.142884","306880.275338","307647.513557","308415.024602","309199.62243","309966.110979","310733.336278","314572.025775","Mapping"
