"Condition","Talker","Target","Trial","current_stimulus","response_response","response_time_response","subject_nr","time_Audio1","time_Audio10","time_Audio11","time_Audio12","time_Audio13","time_Audio14","time_Audio15","time_Audio16","time_Audio2","time_Audio3","time_Audio4","time_Audio5","time_Audio6","time_Audio7","time_Audio8","time_Audio9","time_response","title"
"Mixed","Male","cave","17","M_romp.wav","NA","NA","232","2169938.1264","NA","NA","NA","NA","NA","NA","NA","NA","NA","NA","NA","NA","NA","NA","NA","NA","Mapping"
"Mixed","Male","cave","17","M_cling.wav","None","681.933123968","232","2169938.1264","NA","NA","NA","NA","NA","NA","NA","2170687.59996","NA","NA","NA","NA","NA","NA","NA","2169986.76584","Mapping"
"Mixed","Male","cave","17","F_cling.wav","None","736.090684193","232","2169938.1264","NA","NA","NA","NA","NA","NA","NA","2170687.59996","2171454.11607","NA","NA","NA","NA","NA","NA","2170697.14846","Mapping"
"Mixed","Male","cave","17","M_ball.wav","None","734.39765186","232","2169938.1264","NA","NA","NA","NA","NA","NA","NA","2170687.59996","2171454.11607","2172220.8687","NA","NA","NA","NA","NA","2171463.37241","Mapping"
"Mixed","Male","cave","17","M_cave.wav","None","731.475037523","232","2169938.1264","NA","NA","NA","NA","NA","NA","NA","2170687.59996","2171454.11607","2172220.8687","2172987.42407","NA","NA","NA","NA","2172230.89549","Mapping"
"Mixed","Male","cave","17","F_cad.wav","space","307.312904624","232","2169938.1264","NA","NA","NA","NA","NA","NA","NA","2170687.59996","2171454.11607","2172220.8687","2172987.42407","2173754.3353","NA","NA","NA","2172996.80655","Mapping"
"Mixed","Male","cave","17","F_dime.wav","None","727.809170843","232","2169938.1264","NA","NA","NA","NA","NA","NA","NA","2170687.59996","2171454.11607","2172220.8687","2172987.42407","2173754.3353","2174520.97261","NA","NA","2173763.61266","Mapping"
"Mixed","Male","cave","17","F_ball.wav","None","725.509540644","232","2169938.1264","NA","NA","NA","NA","NA","NA","NA","2170687.59996","2171454.11607","2172220.8687","2172987.42407","2173754.3353","2174520.97261","2175288.37357","NA","2174530.36467","Mapping"
"Mixed","Male","cave","17","M_cave.wav","None","722.445634194","232","2169938.1264","NA","NA","NA","NA","NA","NA","NA","2170687.59996","2171454.11607","2172220.8687","2172987.42407","2173754.3353","2174520.97261","2175288.37357","2176054.81301","2175297.95609","Mapping"
"Mixed","Male","cave","17","F_knife.wav","space","383.177206037","232","2169938.1264","2176804.08684","NA","NA","NA","NA","NA","NA","2170687.59996","2171454.11607","2172220.8687","2172987.42407","2173754.3353","2174520.97261","2175288.37357","2176054.81301","2176064.90133","Mapping"
"Mixed","Male","cave","17","M_cave.wav","None","736.658326234","232","2169938.1264","2176804.08684","2177571.40463","NA","NA","NA","NA","NA","2170687.59996","2171454.11607","2172220.8687","2172987.42407","2173754.3353","2174520.97261","2175288.37357","2176054.81301","2176812.94125","Mapping"
"Mixed","Male","cave","17","M_jolt.wav","space","451.111524017","232","2169938.1264","2176804.08684","2177571.40463","2178338.0339","NA","NA","NA","NA","2170687.59996","2171454.11607","2172220.8687","2172987.42407","2173754.3353","2174520.97261","2175288.37357","2176054.81301","2177580.93026","Mapping"
"Mixed","Male","cave","17","M_cave.wav","None","731.457414571","232","2169938.1264","2176804.08684","2177571.40463","2178338.0339","2179104.68419","NA","NA","NA","2170687.59996","2171454.11607","2172220.8687","2172987.42407","2173754.3353","2174520.97261","2175288.37357","2176054.81301","2178347.86808","Mapping"
"Mixed","Male","cave","17","F_tile.wav","space","245.997984777","232","2169938.1264","2176804.08684","2177571.40463","2178338.0339","2179104.68419","2179871.35643","NA","NA","2170687.59996","2171454.11607","2172220.8687","2172987.42407","2173754.3353","2174520.97261","2175288.37357","2176054.81301","2179114.03421","Mapping"
"Mixed","Male","cave","17","F_cling.wav","None","727.932840236","232","2169938.1264","2176804.08684","2177571.40463","2178338.0339","2179104.68419","2179871.35643","2180638.00456","NA","2170687.59996","2171454.11607","2172220.8687","2172987.42407","2173754.3353","2174520.97261","2175288.37357","2176054.81301","2179880.63101","Mapping"
"Mixed","Male","cave","17","F_priest.wav","None","725.509231444","232","2169938.1264","2176804.08684","2177571.40463","2178338.0339","2179104.68419","2179871.35643","2180638.00456","2181404.96619","2170687.59996","2171454.11607","2172220.8687","2172987.42407","2173754.3353","2174520.97261","2175288.37357","2176054.81301","2180647.67024","Mapping"
"Mixed","Male","cave","16","F_jolt.wav","None","722.600529902","232","2184554.95569","2176804.08684","2177571.40463","2178338.0339","2179104.68419","2179871.35643","2180638.00456","2181404.96619","2170687.59996","2171454.11607","2172220.8687","2172987.42407","2173754.3353","2174520.97261","2175288.37357","2176054.81301","2181415.15221","Mapping"
"Mixed","Male","cave","16","M_cave.wav","space","0.0340091064572","232","2184554.95569","2176804.08684","2177571.40463","2178338.0339","2179104.68419","2179871.35643","2180638.00456","2181404.96619","2185321.593","2171454.11607","2172220.8687","2172987.42407","2173754.3353","2174520.97261","2175288.37357","2176054.81301","2184564.82821","Mapping"
"Mixed","Male","cave","16","M_knife.wav","space","348.368013743","232","2184554.95569","2176804.08684","2177571.40463","2178338.0339","2179104.68419","2179871.35643","2180638.00456","2181404.96619","2185321.593","2186070.97658","2172220.8687","2172987.42407","2173754.3353","2174520.97261","2175288.37357","2176054.81301","2185331.54188","Mapping"
"Mixed","Male","cave","16","M_cave.wav","None","734.796794364","232","2184554.95569","2176804.08684","2177571.40463","2178338.0339","2179104.68419","2179871.35643","2180638.00456","2181404.96619","2185321.593","2186070.97658","2186838.26346","2172987.42407","2173754.3353","2174520.97261","2175288.37357","2176054.81301","2186080.63268","Mapping"
"Mixed","Male","cave","16","F_dime.wav","space","296.419186867","232","2184554.95569","2176804.08684","2177571.40463","2178338.0339","2179104.68419","2179871.35643","2180638.00456","2181404.96619","2185321.593","2186070.97658","2186838.26346","2187604.18441","2173754.3353","2174520.97261","2175288.37357","2176054.81301","2186847.47218","Mapping"
"Mixed","Male","cave","16","M_park.wav","None","732.106678304","232","2184554.95569","2176804.08684","2177571.40463","2178338.0339","2179104.68419","2179871.35643","2180638.00456","2181404.96619","2185321.593","2186070.97658","2186838.26346","2187604.18441","2188370.68599","2174520.97261","2175288.37357","2176054.81301","2187613.23669","Mapping"
"Mixed","Male","cave","16","F_romp.wav","None","730.284720659","232","2184554.95569","2176804.08684","2177571.40463","2178338.0339","2179104.68419","2179871.35643","2180638.00456","2181404.96619","2185321.593","2186070.97658","2186838.26346","2187604.18441","2188370.68599","2189137.77871","2175288.37357","2176054.81301","2188379.85019","Mapping"
"Mixed","Male","cave","16","F_priest.wav","None","727.429196937","232","2184554.95569","2176804.08684","2177571.40463","2178338.0339","2179104.68419","2179871.35643","2180638.00456","2181404.96619","2185321.593","2186070.97658","2186838.26346","2187604.18441","2188370.68599","2189137.77871","2189904.47352","2176054.81301","2189147.31361","Mapping"
"Mixed","Male","cave","16","M_jaw.wav","space","221.056982758","232","2184554.95569","2176804.08684","2177571.40463","2178338.0339","2179104.68419","2179871.35643","2180638.00456","2181404.96619","2185321.593","2186070.97658","2186838.26346","2187604.18441","2188370.68599","2189137.77871","2189904.47352","2190671.63147","2189914.73622","Mapping"
"Mixed","Male","cave","16","M_gnash.wav","None","722.778922878","232","2184554.95569","2191438.13893","2177571.40463","2178338.0339","2179104.68419","2179871.35643","2180638.00456","2181404.96619","2185321.593","2186070.97658","2186838.26346","2187604.18441","2188370.68599","2189137.77871","2189904.47352","2190671.63147","2190681.2684","Mapping"
"Mixed","Male","cave","16","F_bluff.wav","None","720.853701467","232","2184554.95569","2191438.13893","2192188.3075","2178338.0339","2179104.68419","2179871.35643","2180638.00456","2181404.96619","2185321.593","2186070.97658","2186838.26346","2187604.18441","2188370.68599","2189137.77871","2189904.47352","2190671.63147","2191447.74803","Mapping"
"Mixed","Male","cave","16","F_park.wav","None","735.449458938","232","2184554.95569","2191438.13893","2192188.3075","2192954.38737","2179104.68419","2179871.35643","2180638.00456","2181404.96619","2185321.593","2186070.97658","2186838.26346","2187604.18441","2188370.68599","2189137.77871","2189904.47352","2190671.63147","2192197.74316","Mapping"
"Mixed","Male","cave","16","M_cave.wav","None","733.428084641","232","2184554.95569","2191438.13893","2192188.3075","2192954.38737","2193720.70499","2179871.35643","2180638.00456","2181404.96619","2185321.593","2186070.97658","2186838.26346","2187604.18441","2188370.68599","2189137.77871","2189904.47352","2190671.63147","2192964.40582","Mapping"
"Mixed","Male","cave","16","F_greet.wav","space","454.102774733","232","2184554.95569","2191438.13893","2192188.3075","2192954.38737","2193720.70499","2194487.74577","2180638.00456","2181404.96619","2185321.593","2186070.97658","2186838.26346","2187604.18441","2188370.68599","2189137.77871","2189904.47352","2190671.63147","2193729.63577","Mapping"
"Mixed","Male","cave","16","M_cave.wav","None","729.709040141","232","2184554.95569","2191438.13893","2192188.3075","2192954.38737","2193720.70499","2194487.74577","2195254.36236","2181404.96619","2185321.593","2186070.97658","2186838.26346","2187604.18441","2188370.68599","2189137.77871","2189904.47352","2190671.63147","2194497.24604","Mapping"
"Mixed","Male","cave","16","F_bluff.wav","space","535.836420138","232","2184554.95569","2191438.13893","2192188.3075","2192954.38737","2193720.70499","2194487.74577","2195254.36236","2196021.0887","2185321.593","2186070.97658","2186838.26346","2187604.18441","2188370.68599","2189137.77871","2189904.47352","2190671.63147","2195263.89726","Mapping"
"Mixed","Female","done","43","M_cad.wav","None","725.438430789","232","2199154.72325","2191438.13893","2192188.3075","2192954.38737","2193720.70499","2194487.74577","2195254.36236","2196021.0887","2185321.593","2186070.97658","2186838.26346","2187604.18441","2188370.68599","2189137.77871","2189904.47352","2190671.63147","2196030.64401","Mapping"
"Mixed","Female","done","43","M_gnash.wav","None","720.645318739","232","2199154.72325","2191438.13893","2192188.3075","2192954.38737","2193720.70499","2194487.74577","2195254.36236","2196021.0887","2199904.01873","2186070.97658","2186838.26346","2187604.18441","2188370.68599","2189137.77871","2189904.47352","2190671.63147","2199164.34658","Mapping"
"Mixed","Female","done","43","F_romp.wav","None","737.069835654","232","2199154.72325","2191438.13893","2192188.3075","2192954.38737","2193720.70499","2194487.74577","2195254.36236","2196021.0887","2199904.01873","2200670.9346","2186838.26346","2187604.18441","2188370.68599","2189137.77871","2189904.47352","2190671.63147","2199912.77698","Mapping"
"Mixed","Female","done","43","M_knife.wav","None","734.029426472","232","2199154.72325","2191438.13893","2192188.3075","2192954.38737","2193720.70499","2194487.74577","2195254.36236","2196021.0887","2199904.01873","2200670.9346","2201437.30478","2187604.18441","2188370.68599","2189137.77871","2189904.47352","2190671.63147","2200680.55081","Mapping"
"Mixed","Female","done","43","M_gnash.wav","None","732.766144793","232","2199154.72325","2191438.13893","2192188.3075","2192954.38737","2193720.70499","2194487.74577","2195254.36236","2196021.0887","2199904.01873","2200670.9346","2201437.30478","2202204.22188","2188370.68599","2189137.77871","2189904.47352","2190671.63147","2201446.53607","Mapping"
"Mixed","Female","done","43","M_cave.wav","None","730.368506629","232","2199154.72325","2191438.13893","2192188.3075","2192954.38737","2193720.70499","2194487.74577","2195254.36236","2196021.0887","2199904.01873","2200670.9346","2201437.30478","2202204.22188","2202970.47952","2189137.77871","2189904.47352","2190671.63147","2202213.66032","Mapping"
"Mixed","Female","done","43","F_done.wav","None","729.774894076","232","2199154.72325","2191438.13893","2192188.3075","2192954.38737","2193720.70499","2194487.74577","2195254.36236","2196021.0887","2199904.01873","2200670.9346","2201437.30478","2202204.22188","2202970.47952","2203737.58461","2189904.47352","2190671.63147","2202979.34661","Mapping"
"Mixed","Female","done","43","F_romp.wav","space","356.410845416","232","2199154.72325","2191438.13893","2192188.3075","2192954.38737","2193720.70499","2194487.74577","2195254.36236","2196021.0887","2199904.01873","2200670.9346","2201437.30478","2202204.22188","2202970.47952","2203737.58461","2204504.22532","2190671.63147","2203747.13064","Mapping"
"Mixed","Female","done","43","F_done.wav","None","724.785766215","232","2199154.72325","2191438.13893","2192188.3075","2192954.38737","2193720.70499","2194487.74577","2195254.36236","2196021.0887","2199904.01873","2200670.9346","2201437.30478","2202204.22188","2202970.47952","2203737.58461","2204504.22532","2205271.11058","2204513.93459","Mapping"
"Mixed","Female","done","43","M_dime.wav","space","390.477403649","232","2199154.72325","2206037.73737","2192188.3075","2192954.38737","2193720.70499","2194487.74577","2195254.36236","2196021.0887","2199904.01873","2200670.9346","2201437.30478","2202204.22188","2202970.47952","2203737.58461","2204504.22532","2205271.11058","2205281.07152","Mapping"
"Mixed","Female","done","43","F_bluff.wav","None","720.171974506","232","2199154.72325","2206037.73737","2206787.29626","2192954.38737","2193720.70499","2194487.74577","2195254.36236","2196021.0887","2199904.01873","2200670.9346","2201437.30478","2202204.22188","2202970.47952","2203737.58461","2204504.22532","2205271.11058","2206047.71315","Mapping"
"Mixed","Female","done","43","M_depth.wav","None","735.589205287","232","2199154.72325","2206037.73737","2206787.29626","2207553.77156","2193720.70499","2194487.74577","2195254.36236","2196021.0887","2199904.01873","2200670.9346","2201437.30478","2202204.22188","2202970.47952","2203737.58461","2204504.22532","2205271.11058","2206797.06304","Mapping"
"Mixed","Female","done","43","F_done.wav","None","734.792156727","232","2199154.72325","2206037.73737","2206787.29626","2207553.77156","2208320.81202","2194487.74577","2195254.36236","2196021.0887","2199904.01873","2200670.9346","2201437.30478","2202204.22188","2202970.47952","2203737.58461","2204504.22532","2205271.11058","2207562.59969","Mapping"
"Mixed","Female","done","43","M_park.wav","space","365.470238612","232","2199154.72325","2206037.73737","2206787.29626","2207553.77156","2208320.81202","2209087.44717","2195254.36236","2196021.0887","2199904.01873","2200670.9346","2201437.30478","2202204.22188","2202970.47952","2203737.58461","2204504.22532","2205271.11058","2208330.02724","Mapping"
"Mixed","Female","done","43","F_done.wav","None","729.797463748","232","2199154.72325","2206037.73737","2206787.29626","2207553.77156","2208320.81202","2209087.44717","2209854.09096","2196021.0887","2199904.01873","2200670.9346","2201437.30478","2202204.22188","2202970.47952","2203737.58461","2204504.22532","2205271.11058","2209097.03525","Mapping"
"Mixed","Female","done","43","F_priest.wav","space","296.088371659","232","2199154.72325","2206037.73737","2206787.29626","2207553.77156","2208320.81202","2209087.44717","2209854.09096","2210620.76939","2199904.01873","2200670.9346","2201437.30478","2202204.22188","2202970.47952","2203737.58461","2204504.22532","2205271.11058","2209863.38997","Mapping"
"Mixed","Female","done","48","M_lash.wav","None","726.29731393","232","2213754.39374","2206037.73737","2206787.29626","2207553.77156","2208320.81202","2209087.44717","2209854.09096","2210620.76939","2199904.01873","2200670.9346","2201437.30478","2202204.22188","2202970.47952","2203737.58461","2204504.22532","2205271.11058","2210630.34417","Mapping"
"Mixed","Female","done","48","F_depth.wav","None","720.686129527","232","2213754.39374","2206037.73737","2206787.29626","2207553.77156","2208320.81202","2209087.44717","2209854.09096","2210620.76939","2214503.79618","2200670.9346","2201437.30478","2202204.22188","2202970.47952","2203737.58461","2204504.22532","2205271.11058","2213764.07642","Mapping"
"Mixed","Female","done","48","F_done.wav","space","342.450438766","232","2213754.39374","2206037.73737","2206787.29626","2207553.77156","2208320.81202","2209087.44717","2209854.09096","2210620.76939","2214503.79618","2215270.4607","2201437.30478","2202204.22188","2202970.47952","2203737.58461","2204504.22532","2205271.11058","2214512.93534","Mapping"
"Mixed","Female","done","48","M_priest.wav","space","575.368851423","232","2213754.39374","2206037.73737","2206787.29626","2207553.77156","2208320.81202","2209087.44717","2209854.09096","2210620.76939","2214503.79618","2215270.4607","2216036.88931","2202204.22188","2202970.47952","2203737.58461","2204504.22532","2205271.11058","2215280.01322","Mapping"
"Mixed","Female","done","48","M_cling.wav","None","738.201409578","232","2213754.39374","2206037.73737","2206787.29626","2207553.77156","2208320.81202","2209087.44717","2209854.09096","2210620.76939","2214503.79618","2215270.4607","2216036.88931","2216803.57887","2202970.47952","2203737.58461","2204504.22532","2205271.11058","2216040.48005","Mapping"
"Mixed","Female","done","48","F_depth.wav","None","731.059199548","232","2213754.39374","2206037.73737","2206787.29626","2207553.77156","2208320.81202","2209087.44717","2209854.09096","2210620.76939","2214503.79618","2215270.4607","2216036.88931","2216803.57887","2217570.598","2203737.58461","2204504.22532","2205271.11058","2216812.43111","Mapping"
"Mixed","Female","done","48","M_cad.wav","None","728.344349773","232","2213754.39374","2206037.73737","2206787.29626","2207553.77156","2208320.81202","2209087.44717","2209854.09096","2210620.76939","2214503.79618","2215270.4607","2216036.88931","2216803.57887","2217570.598","2218337.26189","2204504.22532","2205271.11058","2217580.04262","Mapping"
"Mixed","Female","done","48","M_knife.wav","None","726.832183544","232","2213754.39374","2206037.73737","2206787.29626","2207553.77156","2208320.81202","2209087.44717","2209854.09096","2210620.76939","2214503.79618","2215270.4607","2216036.88931","2216803.57887","2217570.598","2218337.26189","2219103.46945","2205271.11058","2218346.88893","Mapping"
"Mixed","Female","done","48","F_done.wav","None","726.58484499","232","2213754.39374","2206037.73737","2206787.29626","2207553.77156","2208320.81202","2209087.44717","2209854.09096","2210620.76939","2214503.79618","2215270.4607","2216036.88931","2216803.57887","2217570.598","2218337.26189","2219103.46945","2219870.88309","2219112.2512","Mapping"
"Mixed","Female","done","48","M_dime.wav","space","318.805181654","232","2213754.39374","2220637.88522","2206787.29626","2207553.77156","2208320.81202","2209087.44717","2209854.09096","2210620.76939","2214503.79618","2215270.4607","2216036.88931","2216803.57887","2217570.598","2218337.26189","2219103.46945","2219870.88309","2219880.44211","Mapping"
"Mixed","Female","done","48","F_done.wav","None","720.783828176","232","2213754.39374","2220637.88522","2221404.39885","2207553.77156","2208320.81202","2209087.44717","2209854.09096","2210620.76939","2214503.79618","2215270.4607","2216036.88931","2216803.57887","2217570.598","2218337.26189","2219103.46945","2219870.88309","2220647.50576","Mapping"
"Mixed","Female","done","48","F_jolt.wav","space","352.845769259","232","2213754.39374","2220637.88522","2221404.39885","2222153.75987","2208320.81202","2209087.44717","2209854.09096","2210620.76939","2214503.79618","2215270.4607","2216036.88931","2216803.57887","2217570.598","2218337.26189","2219103.46945","2219870.88309","2221414.45069","Mapping"
"Mixed","Female","done","48","M_priest.wav","None","734.348802478","232","2213754.39374","2220637.88522","2221404.39885","2222153.75987","2222920.59876","2209087.44717","2209854.09096","2210620.76939","2214503.79618","2215270.4607","2216036.88931","2216803.57887","2217570.598","2218337.26189","2219103.46945","2219870.88309","2222163.31672","Mapping"
"Mixed","Female","done","48","M_bluff.wav","None","732.758724596","232","2213754.39374","2220637.88522","2221404.39885","2222153.75987","2222920.59876","2223687.11425","2209854.09096","2210620.76939","2214503.79618","2215270.4607","2216036.88931","2216803.57887","2217570.598","2218337.26189","2219103.46945","2219870.88309","2222929.87735","Mapping"
"Mixed","Female","done","48","F_done.wav","None","731.390942354","232","2213754.39374","2220637.88522","2221404.39885","2222153.75987","2222920.59876","2223687.11425","2224453.81277","2210620.76939","2214503.79618","2215270.4607","2216036.88931","2216803.57887","2217570.598","2218337.26189","2219103.46945","2219870.88309","2223696.22249","Mapping"
"Mixed","Female","done","48","F_park.wav","space","344.057211885","232","2213754.39374","2220637.88522","2221404.39885","2222153.75987","2222920.59876","2223687.11425","2224453.81277","2225220.51933","2214503.79618","2215270.4607","2216036.88931","2216803.57887","2217570.598","2218337.26189","2219103.46945","2219870.88309","2224463.15969","Mapping"
"Mixed","Male","ball","1","M_priest.wav","None","727.124352241","232","2228354.18975","2220637.88522","2221404.39885","2222153.75987","2222920.59876","2223687.11425","2224453.81277","2225220.51933","2214503.79618","2215270.4607","2216036.88931","2216803.57887","2217570.598","2218337.26189","2219103.46945","2219870.88309","2225230.22428","Mapping"
"Mixed","Male","ball","1","F_park.wav","None","721.276341123","232","2228354.18975","2220637.88522","2221404.39885","2222153.75987","2222920.59876","2223687.11425","2224453.81277","2225220.51933","2229120.66319","2215270.4607","2216036.88931","2216803.57887","2217570.598","2218337.26189","2219103.46945","2219870.88309","2228363.92468","Mapping"
"Mixed","Male","ball","1","M_ball.wav","None","719.575270195","232","2228354.18975","2220637.88522","2221404.39885","2222153.75987","2222920.59876","2223687.11425","2224453.81277","2225220.51933","2229120.66319","2229870.3612","2216036.88931","2216803.57887","2217570.598","2218337.26189","2219103.46945","2219870.88309","2229130.61176","Mapping"
"Mixed","Male","ball","1","F_depth.wav","space","359.263895662","232","2228354.18975","2220637.88522","2221404.39885","2222153.75987","2222920.59876","2223687.11425","2224453.81277","2225220.51933","2229120.66319","2229870.3612","2230637.06375","2216803.57887","2217570.598","2218337.26189","2219103.46945","2219870.88309","2229879.83242","Mapping"
"Mixed","Male","ball","1","F_depth.wav","None","733.716234099","232","2228354.18975","2220637.88522","2221404.39885","2222153.75987","2222920.59876","2223687.11425","2224453.81277","2225220.51933","2229120.66319","2229870.3612","2230637.06375","2231403.65931","2217570.598","2218337.26189","2219103.46945","2219870.88309","2230646.11324","Mapping"
"Mixed","Male","ball","1","F_jolt.wav","None","731.67723685","232","2228354.18975","2220637.88522","2221404.39885","2222153.75987","2222920.59876","2223687.11425","2224453.81277","2225220.51933","2229120.66319","2229870.3612","2230637.06375","2231403.65931","2232170.41008","2218337.26189","2219103.46945","2219870.88309","2231413.06343","Mapping"
"Mixed","Male","ball","1","F_cave.wav","None","729.888051515","232","2228354.18975","2220637.88522","2221404.39885","2222153.75987","2222920.59876","2223687.11425","2224453.81277","2225220.51933","2229120.66319","2229870.3612","2230637.06375","2231403.65931","2232170.41008","2232937.01833","2219103.46945","2219870.88309","2232179.82503","Mapping"
"Mixed","Male","ball","1","M_ball.wav","None","728.582413052","232","2228354.18975","2220637.88522","2221404.39885","2222153.75987","2222920.59876","2223687.11425","2224453.81277","2225220.51933","2229120.66319","2229870.3612","2230637.06375","2231403.65931","2232170.41008","2232937.01833","2233703.38603","2219870.88309","2232946.07494","Mapping"
"Mixed","Male","ball","1","F_greet.wav","space","278.434891021","232","2228354.18975","2220637.88522","2221404.39885","2222153.75987","2222920.59876","2223687.11425","2224453.81277","2225220.51933","2229120.66319","2229870.3612","2230637.06375","2231403.65931","2232170.41008","2232937.01833","2233703.38603","2234470.20668","2233712.61176","Mapping"
"Mixed","Male","ball","1","M_priest.wav","None","724.75113871","232","2228354.18975","2235237.3164","2221404.39885","2222153.75987","2222920.59876","2223687.11425","2224453.81277","2225220.51933","2229120.66319","2229870.3612","2230637.06375","2231403.65931","2232170.41008","2232937.01833","2233703.38603","2234470.20668","2234479.45189","Mapping"
"Mixed","Male","ball","1","M_ball.wav","None","721.919730655","232","2228354.18975","2235237.3164","2236003.73605","2222153.75987","2222920.59876","2223687.11425","2224453.81277","2225220.51933","2229120.66319","2229870.3612","2230637.06375","2231403.65931","2232170.41008","2232937.01833","2233703.38603","2234470.20668","2235247.26621","Mapping"
"Mixed","Male","ball","1","F_tile.wav","space","345.632758457","232","2228354.18975","2235237.3164","2236003.73605","2236753.61246","2222920.59876","2223687.11425","2224453.81277","2225220.51933","2229120.66319","2229870.3612","2230637.06375","2231403.65931","2232170.41008","2232937.01833","2233703.38603","2234470.20668","2236013.36649","Mapping"
"Mixed","Male","ball","1","F_lash.wav","None","735.494289082","232","2228354.18975","2235237.3164","2236003.73605","2236753.61246","2237520.10754","2223687.11425","2224453.81277","2225220.51933","2229120.66319","2229870.3612","2230637.06375","2231403.65931","2232170.41008","2232937.01833","2233703.38603","2234470.20668","2236763.03822","Mapping"
"Mixed","Male","ball","1","M_ball.wav","None","733.993871487","232","2228354.18975","2235237.3164","2236003.73605","2236753.61246","2237520.10754","2238286.91675","2224453.81277","2225220.51933","2229120.66319","2229870.3612","2230637.06375","2231403.65931","2232170.41008","2232937.01833","2233703.38603","2234470.20668","2237529.46498","Mapping"
"Mixed","Male","ball","1","M_lash.wav","space","334.280846175","232","2228354.18975","2235237.3164","2236003.73605","2236753.61246","2237520.10754","2238286.91675","2239053.55436","2225220.51933","2229120.66319","2229870.3612","2230637.06375","2231403.65931","2232170.41008","2232937.01833","2233703.38603","2234470.20668","2238296.71352","Mapping"
"Mixed","Male","ball","1","M_cad.wav","None","729.872283642","232","2228354.18975","2235237.3164","2236003.73605","2236753.61246","2237520.10754","2238286.91675","2239053.55436","2239820.28318","2229120.66319","2229870.3612","2230637.06375","2231403.65931","2232170.41008","2232937.01833","2233703.38603","2234470.20668","2239063.24818","Mapping"
"Mixed","Male","ball","5","F_gnash.wav","None","728.585195611","232","2242953.88527","2235237.3164","2236003.73605","2236753.61246","2237520.10754","2238286.91675","2239053.55436","2239820.28318","2229120.66319","2229870.3612","2230637.06375","2231403.65931","2232170.41008","2232937.01833","2233703.38603","2234470.20668","2239829.54601","Mapping"
"Mixed","Male","ball","5","M_ball.wav","None","720.480838558","232","2242953.88527","2235237.3164","2236003.73605","2236753.61246","2237520.10754","2238286.91675","2239053.55436","2239820.28318","2243720.05974","2229870.3612","2230637.06375","2231403.65931","2232170.41008","2232937.01833","2233703.38603","2234470.20668","2242963.78252","Mapping"
"Mixed","Male","ball","5","F_bluff.wav","space","357.25859832","232","2242953.88527","2235237.3164","2236003.73605","2236753.61246","2237520.10754","2238286.91675","2239053.55436","2239820.28318","2243720.05974","2244469.93492","2230637.06375","2231403.65931","2232170.41008","2232937.01833","2233703.38603","2234470.20668","2243729.61783","Mapping"
"Mixed","Male","ball","5","M_ball.wav","None","734.520702623","232","2242953.88527","2235237.3164","2236003.73605","2236753.61246","2237520.10754","2238286.91675","2239053.55436","2239820.28318","2243720.05974","2244469.93492","2245236.75494","2231403.65931","2232170.41008","2232937.01833","2233703.38603","2234470.20668","2244479.28277","Mapping"
"Mixed","Male","ball","5","M_priest.wav","space","216.301898938","232","2242953.88527","2235237.3164","2236003.73605","2236753.61246","2237520.10754","2238286.91675","2239053.55436","2239820.28318","2243720.05974","2244469.93492","2245236.75494","2246003.48686","2232170.41008","2232937.01833","2233703.38603","2234470.20668","2245246.53564","Mapping"
"Mixed","Male","ball","5","F_priest.wav","None","730.126423994","232","2242953.88527","2235237.3164","2236003.73605","2236753.61246","2237520.10754","2238286.91675","2239053.55436","2239820.28318","2243720.05974","2244469.93492","2245236.75494","2246003.48686","2246770.01379","2232937.01833","2233703.38603","2234470.20668","2246013.16923","Mapping"
"Mixed","Male","ball","5","F_jaw.wav","None","729.186846642","232","2242953.88527","2235237.3164","2236003.73605","2236753.61246","2237520.10754","2238286.91675","2239053.55436","2239820.28318","2243720.05974","2244469.93492","2245236.75494","2246003.48686","2246770.01379","2247536.80197","2233703.38603","2234470.20668","2246779.39967","Mapping"
"Mixed","Male","ball","5","M_cave.wav","None","727.278320468","232","2242953.88527","2235237.3164","2236003.73605","2236753.61246","2237520.10754","2238286.91675","2239053.55436","2239820.28318","2243720.05974","2244469.93492","2245236.75494","2246003.48686","2246770.01379","2247536.80197","2248303.13597","2234470.20668","2247546.37181","Mapping"
"Mixed","Male","ball","5","F_lash.wav","None","726.407998009","232","2242953.88527","2235237.3164","2236003.73605","2236753.61246","2237520.10754","2238286.91675","2239053.55436","2239820.28318","2243720.05974","2244469.93492","2245236.75494","2246003.48686","2246770.01379","2247536.80197","2248303.13597","2249069.79832","2248312.33913","Mapping"
"Mixed","Male","ball","5","M_priest.wav","None","724.824722041","232","2242953.88527","2249836.81715","2236003.73605","2236753.61246","2237520.10754","2238286.91675","2239053.55436","2239820.28318","2243720.05974","2244469.93492","2245236.75494","2246003.48686","2246770.01379","2247536.80197","2248303.13597","2249069.79832","2249078.92264","Mapping"
"Mixed","Male","ball","5","F_gnash.wav","None","722.405750887","232","2242953.88527","2249836.81715","2250603.58956","2236753.61246","2237520.10754","2238286.91675","2239053.55436","2239820.28318","2243720.05974","2244469.93492","2245236.75494","2246003.48686","2246770.01379","2247536.80197","2248303.13597","2249069.79832","2249846.37709","Mapping"
"Mixed","Male","ball","5","M_jaw.wav","None","720.254214597","232","2242953.88527","2249836.81715","2250603.58956","2251370.24418","2237520.10754","2238286.91675","2239053.55436","2239820.28318","2243720.05974","2244469.93492","2245236.75494","2246003.48686","2246770.01379","2247536.80197","2248303.13597","2249069.79832","2250613.73632","Mapping"
"Mixed","Male","ball","5","M_ball.wav","None","719.106563716","232","2242953.88527","2249836.81715","2250603.58956","2251370.24418","2252119.43144","2238286.91675","2239053.55436","2239820.28318","2243720.05974","2244469.93492","2245236.75494","2246003.48686","2246770.01379","2247536.80197","2248303.13597","2249069.79832","2251379.89255","Mapping"
"Mixed","Male","ball","5","F_done.wav","space","334.089467884","232","2242953.88527","2249836.81715","2250603.58956","2251370.24418","2252119.43144","2252886.67442","2239053.55436","2239820.28318","2243720.05974","2244469.93492","2245236.75494","2246003.48686","2246770.01379","2247536.80197","2248303.13597","2249069.79832","2252128.61296","Mapping"
"Mixed","Male","ball","5","M_ball.wav","None","732.91640298","232","2242953.88527","2249836.81715","2250603.58956","2251370.24418","2252119.43144","2252886.67442","2253653.34295","2239820.28318","2243720.05974","2244469.93492","2245236.75494","2246003.48686","2246770.01379","2247536.80197","2248303.13597","2249069.79832","2252895.74896","Mapping"
"Mixed","Male","ball","5","F_tile.wav","space","504.007348442","232","2242953.88527","2249836.81715","2250603.58956","2251370.24418","2252119.43144","2252886.67442","2253653.34295","2254419.69489","2243720.05974","2244469.93492","2245236.75494","2246003.48686","2246770.01379","2247536.80197","2248303.13597","2249069.79832","2253662.71183","Mapping"
"Mixed","Female","tile","33","M_bluff.wav","None","729.611650575","232","2257553.56688","2249836.81715","2250603.58956","2251370.24418","2252119.43144","2252886.67442","2253653.34295","2254419.69489","2243720.05974","2244469.93492","2245236.75494","2246003.48686","2246770.01379","2247536.80197","2248303.13597","2249069.79832","2254428.70018","Mapping"
"Mixed","Female","tile","33","F_tile.wav","None","721.048480482","232","2257553.56688","2249836.81715","2250603.58956","2251370.24418","2252119.43144","2252886.67442","2253653.34295","2254419.69489","2258320.32879","2244469.93492","2245236.75494","2246003.48686","2246770.01379","2247536.80197","2248303.13597","2249069.79832","2257563.26534","Mapping"
"Mixed","Female","tile","33","F_dime.wav","space","332.720758277","232","2257553.56688","2249836.81715","2250603.58956","2251370.24418","2252119.43144","2252886.67442","2253653.34295","2254419.69489","2258320.32879","2259069.54449","2245236.75494","2246003.48686","2246770.01379","2247536.80197","2248303.13597","2249069.79832","2258329.85751","Mapping"
"Mixed","Female","tile","33","M_depth.wav","None","735.535718268","232","2257553.56688","2249836.81715","2250603.58956","2251370.24418","2252119.43144","2252886.67442","2253653.34295","2254419.69489","2258320.32879","2259069.54449","2259836.25971","2246003.48686","2246770.01379","2247536.80197","2248303.13597","2249069.79832","2259078.62151","Mapping"
"Mixed","Female","tile","33","M_done.wav","None","734.005310922","232","2257553.56688","2249836.81715","2250603.58956","2251370.24418","2252119.43144","2252886.67442","2253653.34295","2254419.69489","2258320.32879","2259069.54449","2259836.25971","2260602.71677","2246770.01379","2247536.80197","2248303.13597","2249069.79832","2259845.47585","Mapping"
"Mixed","Female","tile","33","M_park.wav","None","733.499503694","232","2257553.56688","2249836.81715","2250603.58956","2251370.24418","2252119.43144","2252886.67442","2253653.34295","2254419.69489","2258320.32879","2259069.54449","2259836.25971","2260602.71677","2261369.16393","2247536.80197","2248303.13597","2249069.79832","2260611.48987","Mapping"
"Mixed","Female","tile","33","F_tile.wav","None","732.764289714","232","2257553.56688","2249836.81715","2250603.58956","2251370.24418","2252119.43144","2252886.67442","2253653.34295","2254419.69489","2258320.32879","2259069.54449","2259836.25971","2260602.71677","2261369.16393","2262136.49533","2248303.13597","2249069.79832","2261377.88231","Mapping"
"Mixed","Female","tile","33","M_cling.wav","space","265.994998161","232","2257553.56688","2249836.81715","2250603.58956","2251370.24418","2252119.43144","2252886.67442","2253653.34295","2254419.69489","2258320.32879","2259069.54449","2259836.25971","2260602.71677","2261369.16393","2262136.49533","2262903.14346","2249069.79832","2262140.55014","Mapping"
"Mixed","Female","tile","33","F_tile.wav","None","727.979525225","232","2257553.56688","2249836.81715","2250603.58956","2251370.24418","2252119.43144","2252886.67442","2253653.34295","2254419.69489","2258320.32879","2259069.54449","2259836.25971","2260602.71677","2261369.16393","2262136.49533","2262903.14346","2263669.73686","2262912.47801","Mapping"
"Mixed","Female","tile","33","F_park.wav","space","375.472918968","232","2257553.56688","2264436.73806","2250603.58956","2251370.24418","2252119.43144","2252886.67442","2253653.34295","2254419.69489","2258320.32879","2259069.54449","2259836.25971","2260602.71677","2261369.16393","2262136.49533","2262903.14346","2263669.73686","2263679.03648","Mapping"
"Mixed","Female","tile","33","F_tile.wav","None","723.754364299","232","2257553.56688","2264436.73806","2265203.46812","2251370.24418","2252119.43144","2252886.67442","2253653.34295","2254419.69489","2258320.32879","2259069.54449","2259836.25971","2260602.71677","2261369.16393","2262136.49533","2262903.14346","2263669.73686","2264446.3787","Mapping"
"Mixed","Female","tile","33","F_park.wav","space","408.527862513","232","2257553.56688","2264436.73806","2265203.46812","2265970.19694","2252119.43144","2252886.67442","2253653.34295","2254419.69489","2258320.32879","2259069.54449","2259836.25971","2260602.71677","2261369.16393","2262136.49533","2262903.14346","2263669.73686","2265213.93796","Mapping"
"Mixed","Female","tile","33","M_jaw.wav","None","720.443428494","232","2257553.56688","2264436.73806","2265203.46812","2265970.19694","2266720.04429","2252886.67442","2253653.34295","2254419.69489","2258320.32879","2259069.54449","2259836.25971","2260602.71677","2261369.16393","2262136.49533","2262903.14346","2263669.73686","2265979.62023","Mapping"
"Mixed","Female","tile","33","F_jolt.wav","None","735.715347924","232","2257553.56688","2264436.73806","2265203.46812","2265970.19694","2266720.04429","2267486.2234","2253653.34295","2254419.69489","2258320.32879","2259069.54449","2259836.25971","2260602.71677","2261369.16393","2262136.49533","2262903.14346","2263669.73686","2266729.4852","Mapping"
"Mixed","Female","tile","33","M_gnash.wav","None","735.063610831","232","2257553.56688","2264436.73806","2265203.46812","2265970.19694","2266720.04429","2267486.2234","2268252.99828","2254419.69489","2258320.32879","2259069.54449","2259836.25971","2260602.71677","2261369.16393","2262136.49533","2262903.14346","2263669.73686","2267495.39069","Mapping"
"Mixed","Female","tile","33","M_priest.wav","None","733.020594344","232","2257553.56688","2264436.73806","2265203.46812","2265970.19694","2266720.04429","2267486.2234","2268252.99828","2269019.66743","2258320.32879","2259069.54449","2259836.25971","2260602.71677","2261369.16393","2262136.49533","2262903.14346","2263669.73686","2268262.58327","Mapping"
"Mixed","Male","tile","25","F_greet.wav","None","731.636425946","232","2272153.45812","2264436.73806","2265203.46812","2265970.19694","2266720.04429","2267486.2234","2268252.99828","2269019.66743","2258320.32879","2259069.54449","2259836.25971","2260602.71677","2261369.16393","2262136.49533","2262903.14346","2263669.73686","2269029.23264","Mapping"
"Mixed","Male","tile","25","M_gnash.wav","None","720.355314203","232","2272153.45812","2264436.73806","2265203.46812","2265970.19694","2266720.04429","2267486.2234","2268252.99828","2269019.66743","2272920.09821","2259069.54449","2259836.25971","2260602.71677","2261369.16393","2262136.49533","2262903.14346","2263669.73686","2272163.4172","Mapping"
"Mixed","Male","tile","25","M_tile.wav","None","718.057538965","232","2272153.45812","2264436.73806","2265203.46812","2265970.19694","2266720.04429","2267486.2234","2268252.99828","2269019.66743","2272920.09821","2273669.24126","2259836.25971","2260602.71677","2261369.16393","2262136.49533","2262903.14346","2263669.73686","2272931.02624","Mapping"
"Mixed","Male","tile","25","M_jaw.wav","space","431.986069889","232","2272153.45812","2264436.73806","2265203.46812","2265970.19694","2266720.04429","2267486.2234","2268252.99828","2269019.66743","2272920.09821","2273669.24126","2274435.80961","2260602.71677","2261369.16393","2262136.49533","2262903.14346","2263669.73686","2273678.34548","Mapping"
"Mixed","Male","tile","25","F_knife.wav","None","734.421148896","232","2272153.45812","2264436.73806","2265203.46812","2265970.19694","2266720.04429","2267486.2234","2268252.99828","2269019.66743","2272920.09821","2273669.24126","2274435.80961","2275202.59347","2261369.16393","2262136.49533","2262903.14346","2263669.73686","2274444.66186","Mapping"
"Mixed","Male","tile","25","F_ball.wav","None","733.124476508","232","2272153.45812","2264436.73806","2265203.46812","2265970.19694","2266720.04429","2267486.2234","2268252.99828","2269019.66743","2272920.09821","2273669.24126","2274435.80961","2275202.59347","2275969.57025","2262136.49533","2262903.14346","2263669.73686","2275211.84455","Mapping"
"Mixed","Male","tile","25","F_depth.wav","None","731.336837052","232","2272153.45812","2264436.73806","2265203.46812","2265970.19694","2266720.04429","2267486.2234","2268252.99828","2269019.66743","2272920.09821","2273669.24126","2274435.80961","2275202.59347","2275969.57025","2276735.96794","2262903.14346","2263669.73686","2275978.91099","Mapping"
"Mixed","Male","tile","25","F_dime.wav","None","730.356448912","232","2272153.45812","2264436.73806","2265203.46812","2265970.19694","2266720.04429","2267486.2234","2268252.99828","2269019.66743","2272920.09821","2273669.24126","2274435.80961","2275202.59347","2275969.57025","2276735.96794","2277502.88258","2263669.73686","2276745.1541","Mapping"
"Mixed","Male","tile","25","M_tile.wav","None","728.264583042","232","2272153.45812","2264436.73806","2265203.46812","2265970.19694","2266720.04429","2267486.2234","2268252.99828","2269019.66743","2272920.09821","2273669.24126","2274435.80961","2275202.59347","2275969.57025","2276735.96794","2277502.88258","2278269.59254","2277512.63885","Mapping"
"Mixed","Male","tile","25","M_jaw.wav","space","351.225083345","232","2272153.45812","2279035.9049","2265203.46812","2265970.19694","2266720.04429","2267486.2234","2268252.99828","2269019.66743","2272920.09821","2273669.24126","2274435.80961","2275202.59347","2275969.57025","2276735.96794","2277502.88258","2278269.59254","2278278.98306","Mapping"
"Mixed","Male","tile","25","M_tile.wav","None","725.936818053","232","2272153.45812","2279035.9049","2279803.20817","2265970.19694","2266720.04429","2267486.2234","2268252.99828","2269019.66743","2272920.09821","2273669.24126","2274435.80961","2275202.59347","2275969.57025","2276735.96794","2277502.88258","2278269.59254","2279045.12166","Mapping"
"Mixed","Male","tile","25","F_jolt.wav","space","425.406245864","232","2272153.45812","2279035.9049","2279803.20817","2280569.78766","2266720.04429","2267486.2234","2268252.99828","2269019.66743","2272920.09821","2273669.24126","2274435.80961","2275202.59347","2275969.57025","2276735.96794","2277502.88258","2278269.59254","2279812.79934","Mapping"
"Mixed","Male","tile","25","F_reek.wav","None","721.383315162","232","2272153.45812","2279035.9049","2279803.20817","2280569.78766","2281336.81545","2267486.2234","2268252.99828","2269019.66743","2272920.09821","2273669.24126","2274435.80961","2275202.59347","2275969.57025","2276735.96794","2277502.88258","2278269.59254","2280579.64379","Mapping"
"Mixed","Male","tile","25","M_cling.wav","None","720.165172708","232","2272153.45812","2279035.9049","2279803.20817","2280569.78766","2281336.81545","2282103.02269","2268252.99828","2269019.66743","2272920.09821","2273669.24126","2274435.80961","2275202.59347","2275969.57025","2276735.96794","2277502.88258","2278269.59254","2281346.22513","Mapping"
"Mixed","Male","tile","25","M_tile.wav","None","718.655789155","232","2272153.45812","2279035.9049","2279803.20817","2280569.78766","2281336.81545","2282103.02269","2282852.54201","2269019.66743","2272920.09821","2273669.24126","2274435.80961","2275202.59347","2275969.57025","2276735.96794","2277502.88258","2278269.59254","2282113.16759","Mapping"
"Mixed","Male","tile","25","F_lash.wav","space","336.337466259","232","2272153.45812","2279035.9049","2279803.20817","2280569.78766","2281336.81545","2282103.02269","2282852.54201","2283619.13077","2272920.09821","2273669.24126","2274435.80961","2275202.59347","2275969.57025","2276735.96794","2277502.88258","2278269.59254","2282861.80978","Mapping"
"Mixed","Male","ball","6","M_bluff.wav","None","733.326366637","232","2286753.13973","2279035.9049","2279803.20817","2280569.78766","2281336.81545","2282103.02269","2282852.54201","2283619.13077","2272920.09821","2273669.24126","2274435.80961","2275202.59347","2275969.57025","2276735.96794","2277502.88258","2278269.59254","2283628.18089","Mapping"
"Mixed","Male","ball","6","F_bluff.wav","None","720.991283539","232","2286753.13973","2279035.9049","2279803.20817","2280569.78766","2281336.81545","2282103.02269","2282852.54201","2283619.13077","2287520.09827","2273669.24126","2274435.80961","2275202.59347","2275969.57025","2276735.96794","2277502.88258","2278269.59254","2286762.67494","Mapping"
"Mixed","Male","ball","6","M_ball.wav","None","719.580835314","232","2286753.13973","2279035.9049","2279803.20817","2280569.78766","2281336.81545","2282103.02269","2282852.54201","2283619.13077","2287520.09827","2288268.78189","2274435.80961","2275202.59347","2275969.57025","2276735.96794","2277502.88258","2278269.59254","2287529.49002","Mapping"
"Mixed","Male","ball","6","F_cad.wav","space","343.964150758","232","2286753.13973","2279035.9049","2279803.20817","2280569.78766","2281336.81545","2282103.02269","2282852.54201","2283619.13077","2287520.09827","2288268.78189","2289035.93582","2275202.59347","2275969.57025","2276735.96794","2277502.88258","2278269.59254","2288278.09295","Mapping"
"Mixed","Male","ball","6","M_ball.wav","None","733.317091363","232","2286753.13973","2279035.9049","2279803.20817","2280569.78766","2281336.81545","2282103.02269","2282852.54201","2283619.13077","2287520.09827","2288268.78189","2289035.93582","2289802.66928","2275969.57025","2276735.96794","2277502.88258","2278269.59254","2289045.59254","Mapping"
"Mixed","Male","ball","6","M_cling.wav","space","249.973952188","232","2286753.13973","2279035.9049","2279803.20817","2280569.78766","2281336.81545","2282103.02269","2282852.54201","2283619.13077","2287520.09827","2288268.78189","2289035.93582","2289802.66928","2290569.31493","2276735.96794","2277502.88258","2278269.59254","2289812.04743","Mapping"
"Mixed","Male","ball","6","F_cad.wav","None","730.428795447","232","2286753.13973","2279035.9049","2279803.20817","2280569.78766","2281336.81545","2282103.02269","2282852.54201","2283619.13077","2287520.09827","2288268.78189","2289035.93582","2289802.66928","2290569.31493","2291335.96862","2277502.88258","2278269.59254","2290578.65969","Mapping"
"Mixed","Male","ball","6","M_greet.wav","None","729.979566764","232","2286753.13973","2279035.9049","2279803.20817","2280569.78766","2281336.81545","2282103.02269","2282852.54201","2283619.13077","2287520.09827","2288268.78189","2289035.93582","2289802.66928","2290569.31493","2291335.96862","2292102.62386","2278269.59254","2291345.03296","Mapping"
"Mixed","Male","ball","6","F_bluff.wav","None","727.694467525","232","2286753.13973","2279035.9049","2279803.20817","2280569.78766","2281336.81545","2282103.02269","2282852.54201","2283619.13077","2287520.09827","2288268.78189","2289035.93582","2289802.66928","2290569.31493","2291335.96862","2292102.62386","2292868.60108","2292112.55852","Mapping"
"Mixed","Male","ball","6","F_greet.wav","None","730.379945948","232","2286753.13973","2293635.9198","2279803.20817","2280569.78766","2281336.81545","2282103.02269","2282852.54201","2283619.13077","2287520.09827","2288268.78189","2289035.93582","2289802.66928","2290569.31493","2291335.96862","2292102.62386","2292868.60108","2292877.48765","Mapping"
"Mixed","Male","ball","6","F_greet.wav","None","727.802678244","232","2286753.13973","2293635.9198","2294402.58153","2280569.78766","2281336.81545","2282103.02269","2282852.54201","2283619.13077","2287520.09827","2288268.78189","2289035.93582","2289802.66928","2290569.31493","2291335.96862","2292102.62386","2292868.60108","2293645.28806","Mapping"
"Mixed","Male","ball","6","M_ball.wav","None","726.4416978","232","2286753.13973","2293635.9198","2294402.58153","2295169.1097","2281336.81545","2282103.02269","2282852.54201","2283619.13077","2287520.09827","2288268.78189","2289035.93582","2289802.66928","2290569.31493","2291335.96862","2292102.62386","2292868.60108","2294412.00111","Mapping"
"Mixed","Male","ball","6","M_park.wav","space","459.26071133","232","2286753.13973","2293635.9198","2294402.58153","2295169.1097","2295935.61004","2282103.02269","2282852.54201","2283619.13077","2287520.09827","2288268.78189","2289035.93582","2289802.66928","2290569.31493","2291335.96862","2292102.62386","2292868.60108","2295178.67397","Mapping"
"Mixed","Male","ball","6","M_ball.wav","None","723.438080167","232","2286753.13973","2293635.9198","2294402.58153","2295169.1097","2295935.61004","2296702.99153","2282852.54201","2283619.13077","2287520.09827","2288268.78189","2289035.93582","2289802.66928","2290569.31493","2291335.96862","2292102.62386","2292868.60108","2295944.88802","Mapping"
"Mixed","Male","ball","6","F_park.wav","space","332.999323262","232","2286753.13973","2293635.9198","2294402.58153","2295169.1097","2295935.61004","2296702.99153","2297469.4659","2283619.13077","2287520.09827","2288268.78189","2289035.93582","2289802.66928","2290569.31493","2291335.96862","2292102.62386","2292868.60108","2296712.92217","Mapping"
"Mixed","Male","ball","6","F_depth.wav","None","718.882413115","232","2286753.13973","2293635.9198","2294402.58153","2295169.1097","2295935.61004","2296702.99153","2297469.4659","2298218.93729","2287520.09827","2288268.78189","2289035.93582","2289802.66928","2290569.31493","2291335.96862","2292102.62386","2292868.60108","2297479.33038","Mapping"
"Mixed","Male","tile","30","F_jolt.wav","None","735.15141604","232","2301352.84484","2293635.9198","2294402.58153","2295169.1097","2295935.61004","2296702.99153","2297469.4659","2298218.93729","2287520.09827","2288268.78189","2289035.93582","2289802.66928","2290569.31493","2291335.96862","2292102.62386","2292868.60108","2298228.42056","Mapping"
"Mixed","Male","tile","30","M_park.wav","None","721.206468064","232","2301352.84484","2293635.9198","2294402.58153","2295169.1097","2295935.61004","2296702.99153","2297469.4659","2298218.93729","2302119.64817","2288268.78189","2289035.93582","2289802.66928","2290569.31493","2291335.96862","2292102.62386","2292868.60108","2301362.73684","Mapping"
"Mixed","Male","tile","30","M_tile.wav","None","719.930819469","232","2301352.84484","2293635.9198","2294402.58153","2295169.1097","2295935.61004","2296702.99153","2297469.4659","2298218.93729","2302119.64817","2302886.02237","2289035.93582","2289802.66928","2290569.31493","2291335.96862","2292102.62386","2292868.60108","2302129.45391","Mapping"
"Mixed","Male","tile","30","F_cad.wav","space","381.893828046","232","2301352.84484","2293635.9198","2294402.58153","2295169.1097","2295935.61004","2296702.99153","2297469.4659","2298218.93729","2302119.64817","2302886.02237","2303635.57879","2289802.66928","2290569.31493","2291335.96862","2292102.62386","2292868.60108","2302895.90448","Mapping"
"Mixed","Male","tile","30","M_tile.wav","None","734.201945132","232","2301352.84484","2293635.9198","2294402.58153","2295169.1097","2295935.61004","2296702.99153","2297469.4659","2298218.93729","2302119.64817","2302886.02237","2303635.57879","2304402.4084","2290569.31493","2291335.96862","2292102.62386","2292868.60108","2303645.31125","Mapping"
"Mixed","Male","tile","30","F_cling.wav","space","289.966123877","232","2301352.84484","2293635.9198","2294402.58153","2295169.1097","2295935.61004","2296702.99153","2297469.4659","2298218.93729","2302119.64817","2302886.02237","2303635.57879","2304402.4084","2305168.59276","2291335.96862","2292102.62386","2292868.60108","2304411.79397","Mapping"
"Mixed","Male","tile","30","M_jolt.wav","None","731.933850562","232","2301352.84484","2293635.9198","2294402.58153","2295169.1097","2295935.61004","2296702.99153","2297469.4659","2298218.93729","2302119.64817","2302886.02237","2303635.57879","2304402.4084","2305168.59276","2305935.75319","2292102.62386","2292868.60108","2305177.75542","Mapping"
"Mixed","Male","tile","30","F_dime.wav","None","729.70440262","232","2301352.84484","2293635.9198","2294402.58153","2295169.1097","2295935.61004","2296702.99153","2297469.4659","2298218.93729","2302119.64817","2302886.02237","2303635.57879","2304402.4084","2305168.59276","2305935.75319","2306702.37782","2292868.60108","2305945.35642","Mapping"
"Mixed","Male","tile","30","M_bluff.wav","None","728.333837702","232","2301352.84484","2293635.9198","2294402.58153","2295169.1097","2295935.61004","2296702.99153","2297469.4659","2298218.93729","2302119.64817","2302886.02237","2303635.57879","2304402.4084","2305168.59276","2305935.75319","2306702.37782","2307468.96257","2306712.34216","Mapping"
"Mixed","Male","tile","30","F_knife.wav","None","728.346204734","232","2301352.84484","2308235.75817","2294402.58153","2295169.1097","2295935.61004","2296702.99153","2297469.4659","2298218.93729","2302119.64817","2302886.02237","2303635.57879","2304402.4084","2305168.59276","2305935.75319","2306702.37782","2307468.96257","2307478.42852","Mapping"
"Mixed","Male","tile","30","F_park.wav","None","726.791681955","232","2301352.84484","2308235.75817","2309002.33735","2295169.1097","2295935.61004","2296702.99153","2297469.4659","2298218.93729","2302119.64817","2302886.02237","2303635.57879","2304402.4084","2305168.59276","2305935.75319","2306702.37782","2307468.96257","2308245.45941","Mapping"
"Mixed","Male","tile","30","M_tile.wav","None","726.159731857","232","2301352.84484","2308235.75817","2309002.33735","2309769.02258","2295935.61004","2296702.99153","2297469.4659","2298218.93729","2302119.64817","2302886.02237","2303635.57879","2304402.4084","2305168.59276","2305935.75319","2306702.37782","2307468.96257","2309011.70251","Mapping"
"Mixed","Male","tile","30","F_done.wav","space","299.086424173","232","2301352.84484","2308235.75817","2309002.33735","2309769.02258","2310536.1054","2296702.99153","2297469.4659","2298218.93729","2302119.64817","2302886.02237","2303635.57879","2304402.4084","2305168.59276","2305935.75319","2306702.37782","2307468.96257","2309778.59427","Mapping"
"Mixed","Male","tile","30","F_depth.wav","None","722.411625204","232","2301352.84484","2308235.75817","2309002.33735","2309769.02258","2310536.1054","2311302.53463","2297469.4659","2298218.93729","2302119.64817","2302886.02237","2303635.57879","2304402.4084","2305168.59276","2305935.75319","2306702.37782","2307468.96257","2310545.85611","Mapping"
"Mixed","Male","tile","30","M_tile.wav","None","721.260264167","232","2301352.84484","2308235.75817","2309002.33735","2309769.02258","2310536.1054","2311302.53463","2312068.82814","2298218.93729","2302119.64817","2302886.02237","2303635.57879","2304402.4084","2305168.59276","2305935.75319","2306702.37782","2307468.96257","2311312.60626","Mapping"
"Mixed","Male","tile","30","M_gnash.wav","space","479.047486791","232","2301352.84484","2308235.75817","2309002.33735","2309769.02258","2310536.1054","2311302.53463","2312068.82814","2312818.74752","2302119.64817","2302886.02237","2303635.57879","2304402.4084","2305168.59276","2305935.75319","2306702.37782","2307468.96257","2312078.57142","Mapping"
"Mixed","Male","cave","13","F_greet.wav","None","735.723386519","232","2315951.9517","2308235.75817","2309002.33735","2309769.02258","2310536.1054","2311302.53463","2312068.82814","2312818.74752","2302119.64817","2302886.02237","2303635.57879","2304402.4084","2305168.59276","2305935.75319","2306702.37782","2307468.96257","2312828.31921","Mapping"
"Mixed","Male","cave","13","M_cave.wav","None","722.040617256","232","2315951.9517","2308235.75817","2309002.33735","2309769.02258","2310536.1054","2311302.53463","2312068.82814","2312818.74752","2316718.57479","2302886.02237","2303635.57879","2304402.4084","2305168.59276","2305935.75319","2306702.37782","2307468.96257","2315960.94802","Mapping"
"Mixed","Male","cave","13","F_cad.wav","space","326.003042865","232","2315951.9517","2308235.75817","2309002.33735","2309769.02258","2310536.1054","2311302.53463","2312068.82814","2312818.74752","2316718.57479","2317468.60794","2303635.57879","2304402.4084","2305168.59276","2305935.75319","2306702.37782","2307468.96257","2316727.57575","Mapping"
"Mixed","Male","cave","13","F_cad.wav","None","734.931593877","232","2315951.9517","2308235.75817","2309002.33735","2309769.02258","2310536.1054","2311302.53463","2312068.82814","2312818.74752","2316718.57479","2317468.60794","2318235.01924","2304402.4084","2305168.59276","2305935.75319","2306702.37782","2307468.96257","2317477.97744","Mapping"
"Mixed","Male","cave","13","M_greet.wav","space","257.173359278","232","2315951.9517","2308235.75817","2309002.33735","2309769.02258","2310536.1054","2311302.53463","2312068.82814","2312818.74752","2316718.57479","2317468.60794","2318235.01924","2319001.73786","2305168.59276","2305935.75319","2306702.37782","2307468.96257","2318244.34113","Mapping"
"Mixed","Male","cave","13","M_romp.wav","None","732.289399719","232","2315951.9517","2308235.75817","2309002.33735","2309769.02258","2310536.1054","2311302.53463","2312068.82814","2312818.74752","2316718.57479","2317468.60794","2318235.01924","2319001.73786","2319768.83893","2305935.75319","2306702.37782","2307468.96257","2319010.58795","Mapping"
"Mixed","Male","cave","13","M_cave.wav","None","730.320275645","232","2315951.9517","2308235.75817","2309002.33735","2309769.02258","2310536.1054","2311302.53463","2312068.82814","2312818.74752","2316718.57479","2317468.60794","2318235.01924","2319001.73786","2319768.83893","2320535.11234","2306702.37782","2307468.96257","2319778.23532","Mapping"
"Mixed","Male","cave","13","F_reek.wav","space","317.030218313","232","2315951.9517","2308235.75817","2309002.33735","2309769.02258","2310536.1054","2311302.53463","2312068.82814","2312818.74752","2316718.57479","2317468.60794","2318235.01924","2319001.73786","2319768.83893","2320535.11234","2321302.38839","2307468.96257","2320544.44226","Mapping"
"Mixed","Male","cave","13","F_dime.wav","None","726.275053574","232","2315951.9517","2308235.75817","2309002.33735","2309769.02258","2310536.1054","2311302.53463","2312068.82814","2312818.74752","2316718.57479","2317468.60794","2318235.01924","2319001.73786","2319768.83893","2320535.11234","2321302.38839","2322068.64758","2321312.43467","Mapping"
"Mixed","Male","cave","13","M_cave.wav","None","726.229914115","232","2315951.9517","2322835.39959","2309002.33735","2309769.02258","2310536.1054","2311302.53463","2312068.82814","2312818.74752","2316718.57479","2317468.60794","2318235.01924","2319001.73786","2319768.83893","2320535.11234","2321302.38839","2322068.64758","2322077.90454","Mapping"
"Mixed","Male","cave","13","F_lash.wav","space","456.46887715","232","2315951.9517","2322835.39959","2323602.4651","2309769.02258","2310536.1054","2311302.53463","2312068.82814","2312818.74752","2316718.57479","2317468.60794","2318235.01924","2319001.73786","2319768.83893","2320535.11234","2321302.38839","2322068.64758","2322844.95335","Mapping"
"Mixed","Male","cave","13","F_park.wav","None","722.295685206","232","2315951.9517","2322835.39959","2323602.4651","2324369.09251","2310536.1054","2311302.53463","2312068.82814","2312818.74752","2316718.57479","2317468.60794","2318235.01924","2319001.73786","2319768.83893","2320535.11234","2321302.38839","2322068.64758","2323612.07853","Mapping"
"Mixed","Male","cave","13","M_tile.wav","None","720.903169131","232","2315951.9517","2322835.39959","2323602.4651","2324369.09251","2325135.77372","2311302.53463","2312068.82814","2312818.74752","2316718.57479","2317468.60794","2318235.01924","2319001.73786","2319768.83893","2320535.11234","2321302.38839","2322068.64758","2324378.97678","Mapping"
"Mixed","Male","cave","13","F_ball.wav","space","435.939776711","232","2315951.9517","2322835.39959","2323602.4651","2324369.09251","2325135.77372","2325885.13845","2312068.82814","2312818.74752","2316718.57479","2317468.60794","2318235.01924","2319001.73786","2319768.83893","2320535.11234","2321302.38839","2322068.64758","2325145.44126","Mapping"
"Mixed","Male","cave","13","M_cave.wav","None","735.215414898","232","2315951.9517","2322835.39959","2323602.4651","2324369.09251","2325135.77372","2325885.13845","2326651.70371","2312818.74752","2316718.57479","2317468.60794","2318235.01924","2319001.73786","2319768.83893","2320535.11234","2321302.38839","2322068.64758","2325894.60564","Mapping"
"Mixed","Male","cave","13","M_tile.wav","None","734.321904369","232","2315951.9517","2322835.39959","2323602.4651","2324369.09251","2325135.77372","2325885.13845","2326651.70371","2327418.52189","2316718.57479","2317468.60794","2318235.01924","2319001.73786","2319768.83893","2320535.11234","2321302.38839","2322068.64758","2326660.93965","Mapping"
"Mixed","Female","cave","23","M_priest.wav","space","129.27489914","232","2330552.15396","2322835.39959","2323602.4651","2324369.09251","2325135.77372","2325885.13845","2326651.70371","2327418.52189","2316718.57479","2317468.60794","2318235.01924","2319001.73786","2319768.83893","2320535.11234","2321302.38839","2322068.64758","2327428.0268","Mapping"
"Mixed","Female","cave","23","F_cave.wav","None","720.53339798","232","2330552.15396","2322835.39959","2323602.4651","2324369.09251","2325135.77372","2325885.13845","2326651.70371","2327418.52189","2331319.03057","2317468.60794","2318235.01924","2319001.73786","2319768.83893","2320535.11234","2321302.38839","2322068.64758","2330562.30041","Mapping"
"Mixed","Female","cave","23","M_park.wav","space","516.530718072","232","2330552.15396","2322835.39959","2323602.4651","2324369.09251","2325135.77372","2325885.13845","2326651.70371","2327418.52189","2331319.03057","2332068.75579","2318235.01924","2319001.73786","2319768.83893","2320535.11234","2321302.38839","2322068.64758","2331328.78962","Mapping"
"Mixed","Female","cave","23","M_priest.wav","None","734.518847661","232","2330552.15396","2322835.39959","2323602.4651","2324369.09251","2325135.77372","2325885.13845","2326651.70371","2327418.52189","2331319.03057","2332068.75579","2332835.15751","2319001.73786","2319768.83893","2320535.11234","2321302.38839","2322068.64758","2332078.29966","Mapping"
"Mixed","Female","cave","23","F_jaw.wav","None","733.548971359","232","2330552.15396","2322835.39959","2323602.4651","2324369.09251","2325135.77372","2325885.13845","2326651.70371","2327418.52189","2331319.03057","2332068.75579","2332835.15751","2333601.88602","2319768.83893","2320535.11234","2321302.38839","2322068.64758","2332844.88379","Mapping"
"Mixed","Female","cave","23","M_gnash.wav","None","732.614340726","232","2330552.15396","2322835.39959","2323602.4651","2324369.09251","2325135.77372","2325885.13845","2326651.70371","2327418.52189","2331319.03057","2332068.75579","2332835.15751","2333601.88602","2334367.99958","2320535.11234","2321302.38839","2322068.64758","2333611.24315","Mapping"
"Mixed","Female","cave","23","F_bluff.wav","None","732.489434886","232","2330552.15396","2322835.39959","2323602.4651","2324369.09251","2325135.77372","2325885.13845","2326651.70371","2327418.52189","2331319.03057","2332068.75579","2332835.15751","2333601.88602","2334367.99958","2335135.16032","2321302.38839","2322068.64758","2334377.15018","Mapping"
"Mixed","Female","cave","23","F_cave.wav","None","730.084994808","232","2330552.15396","2322835.39959","2323602.4651","2324369.09251","2325135.77372","2325885.13845","2326651.70371","2327418.52189","2331319.03057","2332068.75579","2332835.15751","2333601.88602","2334367.99958","2335135.16032","2335901.86595","2322068.64758","2335145.08323","Mapping"
"Mixed","Female","cave","23","M_depth.wav","space","405.9846038","232","2330552.15396","2322835.39959","2323602.4651","2324369.09251","2325135.77372","2325885.13845","2326651.70371","2327418.52189","2331319.03057","2332068.75579","2332835.15751","2333601.88602","2334367.99958","2335135.16032","2335901.86595","2336668.68722","2335911.23205","Mapping"
"Mixed","Female","cave","23","F_cave.wav","None","726.92802723","232","2330552.15396","2337435.11181","2323602.4651","2324369.09251","2325135.77372","2325885.13845","2326651.70371","2327418.52189","2331319.03057","2332068.75579","2332835.15751","2333601.88602","2334367.99958","2335135.16032","2335901.86595","2336668.68722","2336678.17605","Mapping"
"Mixed","Female","cave","23","M_gnash.wav","space","481.08401068","232","2330552.15396","2337435.11181","2338201.96337","2324369.09251","2325135.77372","2325885.13845","2326651.70371","2327418.52189","2331319.03057","2332068.75579","2332835.15751","2333601.88602","2334367.99958","2335135.16032","2335901.86595","2336668.68722","2337444.1004","Mapping"
"Mixed","Female","cave","23","F_cave.wav","None","722.80025587","232","2330552.15396","2337435.11181","2338201.96337","2338968.77938","2325135.77372","2325885.13845","2326651.70371","2327418.52189","2331319.03057","2332068.75579","2332835.15751","2333601.88602","2334367.99958","2335135.16032","2335901.86595","2336668.68722","2338212.47866","Mapping"
"Mixed","Female","cave","23","M_gnash.wav","space","290.582924383","232","2330552.15396","2337435.11181","2338201.96337","2338968.77938","2339734.88429","2325885.13845","2326651.70371","2327418.52189","2331319.03057","2332068.75579","2332835.15751","2333601.88602","2334367.99958","2335135.16032","2335901.86595","2336668.68722","2338978.5406","Mapping"
"Mixed","Female","cave","23","M_jaw.wav","None","721.644257312","232","2330552.15396","2337435.11181","2338201.96337","2338968.77938","2339734.88429","2340502.15169","2326651.70371","2327418.52189","2331319.03057","2332068.75579","2332835.15751","2333601.88602","2334367.99958","2335135.16032","2335901.86595","2336668.68722","2339743.84753","Mapping"
"Mixed","Female","cave","23","F_priest.wav","None","718.646204798","232","2330552.15396","2337435.11181","2338201.96337","2338968.77938","2339734.88429","2340502.15169","2341268.7859","2327418.52189","2331319.03057","2332068.75579","2332835.15751","2333601.88602","2334367.99958","2335135.16032","2335901.86595","2336668.68722","2340512.33864","Mapping"
"Mixed","Female","cave","23","F_tile.wav","None","718.591481098","232","2330552.15396","2337435.11181","2338201.96337","2338968.77938","2339734.88429","2340502.15169","2341268.7859","2342018.14939","2331319.03057","2332068.75579","2332835.15751","2333601.88602","2334367.99958","2335135.16032","2335901.86595","2336668.68722","2341278.01905","Mapping"
"Mixed","Female","tile","34","F_park.wav","None","734.696003958","232","2345151.99202","2337435.11181","2338201.96337","2338968.77938","2339734.88429","2340502.15169","2341268.7859","2342018.14939","2331319.03057","2332068.75579","2332835.15751","2333601.88602","2334367.99958","2335135.16032","2335901.86595","2336668.68722","2342027.76128","Mapping"
"Mixed","Female","tile","34","F_tile.wav","None","720.896676416","232","2345151.99202","2337435.11181","2338201.96337","2338968.77938","2339734.88429","2340502.15169","2341268.7859","2342018.14939","2345918.72919","2332068.75579","2332835.15751","2333601.88602","2334367.99958","2335135.16032","2335901.86595","2336668.68722","2345161.8095","Mapping"
"Mixed","Female","tile","34","F_lash.wav","space","404.863541713","232","2345151.99202","2337435.11181","2338201.96337","2338968.77938","2339734.88429","2340502.15169","2341268.7859","2342018.14939","2345918.72919","2346668.18543","2332835.15751","2333601.88602","2334367.99958","2335135.16032","2335901.86595","2336668.68722","2345928.15804","Mapping"
"Mixed","Female","tile","34","M_greet.wav","None","735.510984436","232","2345151.99202","2337435.11181","2338201.96337","2338968.77938","2339734.88429","2340502.15169","2341268.7859","2342018.14939","2345918.72919","2346668.18543","2347434.50429","2333601.88602","2334367.99958","2335135.16032","2335901.86595","2336668.68722","2346677.69374","Mapping"
"Mixed","Female","tile","34","F_tile.wav","None","735.359489569","232","2345151.99202","2337435.11181","2338201.96337","2338968.77938","2339734.88429","2340502.15169","2341268.7859","2342018.14939","2345918.72919","2346668.18543","2347434.50429","2348201.59391","2334367.99958","2335135.16032","2335901.86595","2336668.68722","2347443.70775","Mapping"
"Mixed","Female","tile","34","M_knife.wav","space","313.955800026","232","2345151.99202","2337435.11181","2338201.96337","2338968.77938","2339734.88429","2340502.15169","2341268.7859","2342018.14939","2345918.72919","2346668.18543","2347434.50429","2348201.59391","2348968.31006","2335135.16032","2335901.86595","2336668.68722","2348211.00947","Mapping"
"Mixed","Female","tile","34","M_done.wav","None","731.674144976","232","2345151.99202","2337435.11181","2338201.96337","2338968.77938","2339734.88429","2340502.15169","2341268.7859","2342018.14939","2345918.72919","2346668.18543","2347434.50429","2348201.59391","2348968.31006","2349734.65612","2335901.86595","2336668.68722","2348977.56206","Mapping"
"Mixed","Female","tile","34","F_park.wav","None","731.362498482","232","2345151.99202","2337435.11181","2338201.96337","2338968.77938","2339734.88429","2340502.15169","2341268.7859","2342018.14939","2345918.72919","2346668.18543","2347434.50429","2348201.59391","2348968.31006","2349734.65612","2350501.32403","2336668.68722","2349743.57639","Mapping"
"Mixed","Female","tile","34","M_reek.wav","None","730.712616351","232","2345151.99202","2337435.11181","2338201.96337","2338968.77938","2339734.88429","2340502.15169","2341268.7859","2342018.14939","2345918.72919","2346668.18543","2347434.50429","2348201.59391","2348968.31006","2349734.65612","2350501.32403","2351268.08161","2350510.55997","Mapping"
"Mixed","Female","tile","34","F_tile.wav","None","729.619070771","232","2345151.99202","2352034.94306","2338201.96337","2338968.77938","2339734.88429","2340502.15169","2341268.7859","2342018.14939","2345918.72919","2346668.18543","2347434.50429","2348201.59391","2348968.31006","2349734.65612","2350501.32403","2351268.08161","2351277.50861","Mapping"
"Mixed","Female","tile","34","M_gnash.wav","space","352.58080787","232","2345151.99202","2352034.94306","2352801.52008","2338968.77938","2339734.88429","2340502.15169","2341268.7859","2342018.14939","2345918.72919","2346668.18543","2347434.50429","2348201.59391","2348968.31006","2349734.65612","2350501.32403","2351268.08161","2352044.34935","Mapping"
"Mixed","Female","tile","34","M_gnash.wav","None","726.912877755","232","2345151.99202","2352034.94306","2352801.52008","2353568.20655","2339734.88429","2340502.15169","2341268.7859","2342018.14939","2345918.72919","2346668.18543","2347434.50429","2348201.59391","2348968.31006","2349734.65612","2350501.32403","2351268.08161","2352810.93379","Mapping"
"Mixed","Female","tile","34","F_tile.wav","None","725.997725036","232","2345151.99202","2352034.94306","2352801.52008","2353568.20655","2354334.79964","2340502.15169","2341268.7859","2342018.14939","2345918.72919","2346668.18543","2347434.50429","2348201.59391","2348968.31006","2349734.65612","2350501.32403","2351268.08161","2353577.65704","Mapping"
"Mixed","Female","tile","34","M_reek.wav","space","322.130957735","232","2345151.99202","2352034.94306","2352801.52008","2353568.20655","2354334.79964","2355101.91091","2341268.7859","2342018.14939","2345918.72919","2346668.18543","2347434.50429","2348201.59391","2348968.31006","2349734.65612","2350501.32403","2351268.08161","2354338.81982","Mapping"
"Mixed","Female","tile","34","M_dime.wav","None","722.584452946","232","2345151.99202","2352034.94306","2352801.52008","2353568.20655","2354334.79964","2355101.91091","2355868.47216","2342018.14939","2345918.72919","2346668.18543","2347434.50429","2348201.59391","2348968.31006","2349734.65612","2350501.32403","2351268.08161","2355111.8938","Mapping"
"Mixed","Female","tile","34","F_done.wav","None","722.226739628","232","2345151.99202","2352034.94306","2352801.52008","2353568.20655","2354334.79964","2355101.91091","2355868.47216","2356635.42791","2345918.72919","2346668.18543","2347434.50429","2348201.59391","2348968.31006","2349734.65612","2350501.32403","2351268.08161","2355878.30294","Mapping"
"Mixed","Female","cave","20","M_ball.wav","None","721.631890396","232","2359751.78988","2352034.94306","2352801.52008","2353568.20655","2354334.79964","2355101.91091","2355868.47216","2356635.42791","2345918.72919","2346668.18543","2347434.50429","2348201.59391","2348968.31006","2349734.65612","2350501.32403","2351268.08161","2356644.76834","Mapping"
"Mixed","Female","cave","20","F_cave.wav","None","720.797431888","232","2359751.78988","2352034.94306","2352801.52008","2353568.20655","2354334.79964","2355101.91091","2355868.47216","2356635.42791","2360518.33907","2346668.18543","2347434.50429","2348201.59391","2348968.31006","2349734.65612","2350501.32403","2351268.08161","2359761.39713","Mapping"
"Mixed","Female","cave","20","M_reek.wav","space","364.87755354","232","2359751.78988","2352034.94306","2352801.52008","2353568.20655","2354334.79964","2355101.91091","2355868.47216","2356635.42791","2360518.33907","2361267.4781","2347434.50429","2348201.59391","2348968.31006","2349734.65612","2350501.32403","2351268.08161","2360527.88665","Mapping"
"Mixed","Female","cave","20","F_priest.wav","None","735.449459055","232","2359751.78988","2352034.94306","2352801.52008","2353568.20655","2354334.79964","2355101.91091","2355868.47216","2356635.42791","2360518.33907","2361267.4781","2362034.4623","2348201.59391","2348968.31006","2349734.65612","2350501.32403","2351268.08161","2361276.77185","Mapping"
"Mixed","Female","cave","20","M_done.wav","None","734.412182937","232","2359751.78988","2352034.94306","2352801.52008","2353568.20655","2354334.79964","2355101.91091","2355868.47216","2356635.42791","2360518.33907","2361267.4781","2362034.4623","2362801.28387","2348968.31006","2349734.65612","2350501.32403","2351268.08161","2362044.10294","Mapping"
"Mixed","Female","cave","20","F_cave.wav","None","733.33718779","232","2359751.78988","2352034.94306","2352801.52008","2353568.20655","2354334.79964","2355101.91091","2355868.47216","2356635.42791","2360518.33907","2361267.4781","2362034.4623","2362801.28387","2363568.00775","2349734.65612","2350501.32403","2351268.08161","2362811.06426","Mapping"
"Mixed","Female","cave","20","M_cling.wav","space","323.254493065","232","2359751.78988","2352034.94306","2352801.52008","2353568.20655","2354334.79964","2355101.91091","2355868.47216","2356635.42791","2360518.33907","2361267.4781","2362034.4623","2362801.28387","2363568.00775","2364334.65495","2350501.32403","2351268.08161","2363577.45268","Mapping"
"Mixed","Female","cave","20","M_dime.wav","None","731.794413412","232","2359751.78988","2352034.94306","2352801.52008","2353568.20655","2354334.79964","2355101.91091","2355868.47216","2356635.42791","2360518.33907","2361267.4781","2362034.4623","2362801.28387","2363568.00775","2364334.65495","2365101.33244","2351268.08161","2364343.73072","Mapping"
"Mixed","Female","cave","20","F_reek.wav","None","730.857000337","232","2359751.78988","2352034.94306","2352801.52008","2353568.20655","2354334.79964","2355101.91091","2355868.47216","2356635.42791","2360518.33907","2361267.4781","2362034.4623","2362801.28387","2363568.00775","2364334.65495","2365101.33244","2365867.43302","2365110.70905","Mapping"
"Mixed","Female","cave","20","F_cave.wav","None","730.803822516","232","2359751.78988","2366634.68311","2352801.52008","2353568.20655","2354334.79964","2355101.91091","2355868.47216","2356635.42791","2360518.33907","2361267.4781","2362034.4623","2362801.28387","2363568.00775","2364334.65495","2365101.33244","2365867.43302","2365876.4615","Mapping"
"Mixed","Female","cave","20","M_jaw.wav","space","456.375506939","232","2359751.78988","2366634.68311","2367401.2524","2353568.20655","2354334.79964","2355101.91091","2355868.47216","2356635.42791","2360518.33907","2361267.4781","2362034.4623","2362801.28387","2363568.00775","2364334.65495","2365101.33244","2365867.43302","2366644.28078","Mapping"
"Mixed","Female","cave","20","F_cave.wav","None","726.672031917","232","2359751.78988","2366634.68311","2367401.2524","2368167.39719","2354334.79964","2355101.91091","2355868.47216","2356635.42791","2360518.33907","2361267.4781","2362034.4623","2362801.28387","2363568.00775","2364334.65495","2365101.33244","2365867.43302","2367410.69919","Mapping"
"Mixed","Female","cave","20","F_gnash.wav","space","396.050868905","232","2359751.78988","2366634.68311","2367401.2524","2368167.39719","2368934.92337","2355101.91091","2355868.47216","2356635.42791","2360518.33907","2361267.4781","2362034.4623","2362801.28387","2363568.00775","2364334.65495","2365101.33244","2365867.43302","2368176.57129","Mapping"
"Mixed","Female","cave","20","M_cad.wav","None","723.109429004","232","2359751.78988","2366634.68311","2367401.2524","2368167.39719","2368934.92337","2369701.51832","2355868.47216","2356635.42791","2360518.33907","2361267.4781","2362034.4623","2362801.28387","2363568.00775","2364334.65495","2365101.33244","2365867.43302","2368944.67562","Mapping"
"Mixed","Female","cave","20","M_greet.wav","None","721.961778239","232","2359751.78988","2366634.68311","2367401.2524","2368167.39719","2368934.92337","2369701.51832","2370467.87861","2356635.42791","2360518.33907","2361267.4781","2362034.4623","2362801.28387","2363568.00775","2364334.65495","2365101.33244","2365867.43302","2369711.62674","Mapping"
"Mixed","Female","cave","20","F_reek.wav","None","722.102451953","232","2359751.78988","2366634.68311","2367401.2524","2368167.39719","2368934.92337","2369701.51832","2370467.87861","2371235.04429","2360518.33907","2361267.4781","2362034.4623","2362801.28387","2363568.00775","2364334.65495","2365101.33244","2365867.43302","2370477.25397","Mapping"
"Mixed","Male","ball","4","F_done.wav","None","720.452394569","232","2374351.34226","2366634.68311","2367401.2524","2368167.39719","2368934.92337","2369701.51832","2370467.87861","2371235.04429","2360518.33907","2361267.4781","2362034.4623","2362801.28387","2363568.00775","2364334.65495","2365101.33244","2365867.43302","2371244.75665","Mapping"
"Mixed","Male","ball","4","M_ball.wav","None","720.700351521","232","2374351.34226","2366634.68311","2367401.2524","2368167.39719","2368934.92337","2369701.51832","2370467.87861","2371235.04429","2375118.11467","2361267.4781","2362034.4623","2362801.28387","2363568.00775","2364334.65495","2365101.33244","2365867.43302","2374361.86466","Mapping"
"Mixed","Male","ball","4","F_depth.wav","space","292.505363468","232","2374351.34226","2366634.68311","2367401.2524","2368167.39719","2368934.92337","2369701.51832","2370467.87861","2371235.04429","2375118.11467","2375884.58008","2362034.4623","2362801.28387","2363568.00775","2364334.65495","2365101.33244","2365867.43302","2375127.98843","Mapping"
"Mixed","Male","ball","4","F_cave.wav","None","719.30536197","232","2374351.34226","2366634.68311","2367401.2524","2368167.39719","2368934.92337","2369701.51832","2370467.87861","2371235.04429","2375118.11467","2375884.58008","2376634.04591","2362801.28387","2363568.00775","2364334.65495","2365101.33244","2365867.43302","2375894.08746","Mapping"
"Mixed","Male","ball","4","M_ball.wav","None","735.555196181","232","2374351.34226","2366634.68311","2367401.2524","2368167.39719","2368934.92337","2369701.51832","2370467.87861","2371235.04429","2375118.11467","2375884.58008","2376634.04591","2377400.69187","2363568.00775","2364334.65495","2365101.33244","2365867.43302","2376643.64573","Mapping"
"Mixed","Male","ball","4","F_reek.wav","space","330.663519679","232","2374351.34226","2366634.68311","2367401.2524","2368167.39719","2368934.92337","2369701.51832","2370467.87861","2371235.04429","2375118.11467","2375884.58008","2376634.04591","2377400.69187","2378167.41667","2364334.65495","2365101.33244","2365867.43302","2377409.77878","Mapping"
"Mixed","Male","ball","4","M_lash.wav","None","732.82767029","232","2374351.34226","2366634.68311","2367401.2524","2368167.39719","2368934.92337","2369701.51832","2370467.87861","2371235.04429","2375118.11467","2375884.58008","2376634.04591","2377400.69187","2378167.41667","2378934.36191","2365101.33244","2365867.43302","2378176.67455","Mapping"
"Mixed","Male","ball","4","M_ball.wav","None","731.756075867","232","2374351.34226","2366634.68311","2367401.2524","2368167.39719","2368934.92337","2369701.51832","2370467.87861","2371235.04429","2375118.11467","2375884.58008","2376634.04591","2377400.69187","2378167.41667","2378934.36191","2379701.04374","2365867.43302","2378943.59166","Mapping"
"Mixed","Male","ball","4","F_knife.wav","space","341.975239571","232","2374351.34226","2366634.68311","2367401.2524","2368167.39719","2368934.92337","2369701.51832","2370467.87861","2371235.04429","2375118.11467","2375884.58008","2376634.04591","2377400.69187","2378167.41667","2378934.36191","2379701.04374","2380467.53264","2379710.44662","Mapping"
"Mixed","Male","ball","4","M_knife.wav","None","728.642083472","232","2374351.34226","2381234.30598","2367401.2524","2368167.39719","2368934.92337","2369701.51832","2370467.87861","2371235.04429","2375118.11467","2375884.58008","2376634.04591","2377400.69187","2378167.41667","2378934.36191","2379701.04374","2380467.53264","2380476.93738","Mapping"
"Mixed","Male","ball","4","F_cling.wav","None","727.674680529","232","2374351.34226","2381234.30598","2382001.03511","2368167.39719","2368934.92337","2369701.51832","2370467.87861","2371235.04429","2375118.11467","2375884.58008","2376634.04591","2377400.69187","2378167.41667","2378934.36191","2379701.04374","2380467.53264","2381243.84027","Mapping"
"Mixed","Male","ball","4","M_knife.wav","None","727.125588921","232","2374351.34226","2381234.30598","2382001.03511","2382767.87647","2368934.92337","2369701.51832","2370467.87861","2371235.04429","2375118.11467","2375884.58008","2376634.04591","2377400.69187","2378167.41667","2378934.36191","2379701.04374","2380467.53264","2382010.33442","Mapping"
"Mixed","Male","ball","4","F_dime.wav","None","726.264850702","232","2374351.34226","2381234.30598","2382001.03511","2382767.87647","2383534.32611","2369701.51832","2370467.87861","2371235.04429","2375118.11467","2375884.58008","2376634.04591","2377400.69187","2378167.41667","2378934.36191","2379701.04374","2380467.53264","2382777.12415","Mapping"
"Mixed","Male","ball","4","M_park.wav","None","725.237468258","232","2374351.34226","2381234.30598","2382001.03511","2382767.87647","2383534.32611","2384300.73803","2370467.87861","2371235.04429","2375118.11467","2375884.58008","2376634.04591","2377400.69187","2378167.41667","2378934.36191","2379701.04374","2380467.53264","2383544.30436","Mapping"
"Mixed","Male","ball","4","M_ball.wav","None","725.595799973","232","2374351.34226","2381234.30598","2382001.03511","2382767.87647","2383534.32611","2384300.73803","2385067.42604","2371235.04429","2375118.11467","2375884.58008","2376634.04591","2377400.69187","2378167.41667","2378934.36191","2379701.04374","2380467.53264","2384309.90223","Mapping"
"Mixed","Male","ball","4","F_cad.wav","space","375.644510263","232","2374351.34226","2381234.30598","2382001.03511","2382767.87647","2383534.32611","2384300.73803","2385067.42604","2385834.35768","2375118.11467","2375884.58008","2376634.04591","2377400.69187","2378167.41667","2378934.36191","2379701.04374","2380467.53264","2385076.66784","Mapping"
"Mixed","Male","cave","15","F_park.wav","None","722.94587642","232","2388951.24184","2381234.30598","2382001.03511","2382767.87647","2383534.32611","2384300.73803","2385067.42604","2385834.35768","2375118.11467","2375884.58008","2376634.04591","2377400.69187","2378167.41667","2378934.36191","2379701.04374","2380467.53264","2385843.33668","Mapping"
"Mixed","Male","cave","15","F_done.wav","None","720.612237114","232","2388951.24184","2381234.30598","2382001.03511","2382767.87647","2383534.32611","2384300.73803","2385067.42604","2385834.35768","2389717.91687","2375884.58008","2376634.04591","2377400.69187","2378167.41667","2378934.36191","2379701.04374","2380467.53264","2388961.0213","Mapping"
"Mixed","Male","cave","15","F_greet.wav","None","719.762010733","232","2388951.24184","2381234.30598","2382001.03511","2382767.87647","2383534.32611","2384300.73803","2385067.42604","2385834.35768","2389717.91687","2390484.3968","2376634.04591","2377400.69187","2378167.41667","2378934.36191","2379701.04374","2380467.53264","2389727.74548","Mapping"
"Mixed","Male","cave","15","M_cave.wav","None","719.144592062","232","2388951.24184","2381234.30598","2382001.03511","2382767.87647","2383534.32611","2384300.73803","2385067.42604","2385834.35768","2389717.91687","2390484.3968","2391233.93528","2377400.69187","2378167.41667","2378934.36191","2379701.04374","2380467.53264","2390494.15802","Mapping"
"Mixed","Male","cave","15","F_jolt.wav","space","416.599138058","232","2388951.24184","2381234.30598","2382001.03511","2382767.87647","2383534.32611","2384300.73803","2385067.42604","2385834.35768","2389717.91687","2390484.3968","2391233.93528","2392000.78901","2378167.41667","2378934.36191","2379701.04374","2380467.53264","2391243.58056","Mapping"
"Mixed","Male","cave","15","F_greet.wav","None","733.059240971","232","2388951.24184","2381234.30598","2382001.03511","2382767.87647","2383534.32611","2384300.73803","2385067.42604","2385834.35768","2389717.91687","2390484.3968","2391233.93528","2392000.78901","2392767.10849","2378934.36191","2379701.04374","2380467.53264","2392010.57991","Mapping"
"Mixed","Male","cave","15","M_done.wav","None","733.835884021","232","2388951.24184","2381234.30598","2382001.03511","2382767.87647","2383534.32611","2384300.73803","2385067.42604","2385834.35768","2389717.91687","2390484.3968","2391233.93528","2392000.78901","2392767.10849","2393534.0967","2379701.04374","2380467.53264","2392776.08904","Mapping"
"Mixed","Male","cave","15","M_cave.wav","None","732.714512851","232","2388951.24184","2381234.30598","2382001.03511","2382767.87647","2383534.32611","2384300.73803","2385067.42604","2385834.35768","2389717.91687","2390484.3968","2391233.93528","2392000.78901","2392767.10849","2393534.0967","2394300.43658","2380467.53264","2393543.13291","Mapping"
"Mixed","Male","cave","15","M_reek.wav","space","278.432108578","232","2388951.24184","2381234.30598","2382001.03511","2382767.87647","2383534.32611","2384300.73803","2385067.42604","2385834.35768","2389717.91687","2390484.3968","2391233.93528","2392000.78901","2392767.10849","2393534.0967","2394300.43658","2395067.50148","2394309.71734","Mapping"
"Mixed","Male","cave","15","M_cave.wav","None","729.712132015","232","2388951.24184","2395834.0686","2382001.03511","2382767.87647","2383534.32611","2384300.73803","2385067.42604","2385834.35768","2389717.91687","2390484.3968","2391233.93528","2392000.78901","2392767.10849","2393534.0967","2394300.43658","2395067.50148","2395076.72751","Mapping"
"Mixed","Male","cave","15","M_jaw.wav","space","368.604327319","232","2388951.24184","2395834.0686","2396600.73342","2382767.87647","2383534.32611","2384300.73803","2385067.42604","2385834.35768","2389717.91687","2390484.3968","2391233.93528","2392000.78901","2392767.10849","2393534.0967","2394300.43658","2395067.50148","2395843.50395","Mapping"
"Mixed","Male","cave","15","F_lash.wav","None","727.170728263","232","2388951.24184","2395834.0686","2396600.73342","2397367.68701","2383534.32611","2384300.73803","2385067.42604","2385834.35768","2389717.91687","2390484.3968","2391233.93528","2392000.78901","2392767.10849","2393534.0967","2394300.43658","2395067.50148","2396610.13538","Mapping"
"Mixed","Male","cave","15","F_cad.wav","None","726.194668445","232","2388951.24184","2395834.0686","2396600.73342","2397367.68701","2398134.06492","2384300.73803","2385067.42604","2385834.35768","2389717.91687","2390484.3968","2391233.93528","2392000.78901","2392767.10849","2393534.0967","2394300.43658","2395067.50148","2397377.07351","Mapping"
"Mixed","Male","cave","15","M_knife.wav","None","725.568283582","232","2388951.24184","2395834.0686","2396600.73342","2397367.68701","2398134.06492","2398900.66111","2385067.42604","2385834.35768","2389717.91687","2390484.3968","2391233.93528","2392000.78901","2392767.10849","2393534.0967","2394300.43658","2395067.50148","2398143.63909","Mapping"
"Mixed","Male","cave","15","M_cave.wav","None","724.697342608","232","2388951.24184","2395834.0686","2396600.73342","2397367.68701","2398134.06492","2398900.66111","2399667.35406","2385834.35768","2389717.91687","2390484.3968","2391233.93528","2392000.78901","2392767.10849","2393534.0967","2394300.43658","2395067.50148","2398910.49158","Mapping"
"Mixed","Male","cave","15","F_cad.wav","space","327.364332508","232","2388951.24184","2395834.0686","2396600.73342","2397367.68701","2398134.06492","2398900.66111","2399667.35406","2400434.41215","2389717.91687","2390484.3968","2391233.93528","2392000.78901","2392767.10849","2393534.0967","2394300.43658","2395067.50148","2399676.70748","Mapping"
"Mixed","Male","tile","29","M_knife.wav","None","721.71289369","232","2403551.00879","2395834.0686","2396600.73342","2397367.68701","2398134.06492","2398900.66111","2399667.35406","2400434.41215","2389717.91687","2390484.3968","2391233.93528","2392000.78901","2392767.10849","2393534.0967","2394300.43658","2395067.50148","2400444.16873","Mapping"
"Mixed","Male","tile","29","F_bluff.wav","None","720.678400248","232","2403551.00879","2395834.0686","2396600.73342","2397367.68701","2398134.06492","2398900.66111","2399667.35406","2400434.41215","2404317.67948","2390484.3968","2391233.93528","2392000.78901","2392767.10849","2393534.0967","2394300.43658","2395067.50148","2403561.03929","Mapping"
"Mixed","Male","tile","29","M_reek.wav","None","720.306155621","232","2403551.00879","2395834.0686","2396600.73342","2397367.68701","2398134.06492","2398900.66111","2399667.35406","2400434.41215","2404317.67948","2405084.16282","2391233.93528","2392000.78901","2392767.10849","2393534.0967","2394300.43658","2395067.50148","2404327.45801","Mapping"
"Mixed","Male","tile","29","F_park.wav","None","719.76170165","232","2403551.00879","2395834.0686","2396600.73342","2397367.68701","2398134.06492","2398900.66111","2399667.35406","2400434.41215","2404317.67948","2405084.16282","2405850.95749","2392000.78901","2392767.10849","2393534.0967","2394300.43658","2395067.50148","2405094.22332","Mapping"
"Mixed","Male","tile","29","M_tile.wav","None","719.276918098","232","2403551.00879","2395834.0686","2396600.73342","2397367.68701","2398134.06492","2398900.66111","2399667.35406","2400434.41215","2404317.67948","2405084.16282","2405850.95749","2406617.25131","2392767.10849","2393534.0967","2394300.43658","2395067.50148","2405860.85907","Mapping"
"Mixed","Male","tile","29","F_cave.wav","space","297.103696386","232","2403551.00879","2395834.0686","2396600.73342","2397367.68701","2398134.06492","2398900.66111","2399667.35406","2400434.41215","2404317.67948","2405084.16282","2405850.95749","2406617.25131","2407366.80927","2393534.0967","2394300.43658","2395067.50148","2406626.85485","Mapping"
"Mixed","Male","tile","29","M_tile.wav","None","734.985080897","232","2403551.00879","2395834.0686","2396600.73342","2397367.68701","2398134.06492","2398900.66111","2399667.35406","2400434.41215","2404317.67948","2405084.16282","2405850.95749","2406617.25131","2407366.80927","2408133.80738","2394300.43658","2395067.50148","2407375.96327","Mapping"
"Mixed","Male","tile","29","M_cad.wav","space","412.710357574","232","2403551.00879","2395834.0686","2396600.73342","2397367.68701","2398134.06492","2398900.66111","2399667.35406","2400434.41215","2404317.67948","2405084.16282","2405850.95749","2406617.25131","2407366.80927","2408133.80738","2408900.51827","2395067.50148","2408143.20315","Mapping"
"Mixed","Male","tile","29","F_reek.wav","None","731.767824502","232","2403551.00879","2395834.0686","2396600.73342","2397367.68701","2398134.06492","2398900.66111","2399667.35406","2400434.41215","2404317.67948","2405084.16282","2405850.95749","2406617.25131","2407366.80927","2408133.80738","2408900.51827","2409666.87268","2408909.88312","Mapping"
"Mixed","Male","tile","29","F_depth.wav","None","732.20530455","232","2403551.00879","2410433.70847","2396600.73342","2397367.68701","2398134.06492","2398900.66111","2399667.35406","2400434.41215","2404317.67948","2405084.16282","2405850.95749","2406617.25131","2407366.80927","2408133.80738","2408900.51827","2409666.87268","2409675.63341","Mapping"
"Mixed","Male","tile","29","M_tile.wav","None","730.738896178","232","2403551.00879","2410433.70847","2411200.46419","2397367.68701","2398134.06492","2398900.66111","2399667.35406","2400434.41215","2404317.67948","2405084.16282","2405850.95749","2406617.25131","2407366.80927","2408133.80738","2408900.51827","2409666.87268","2410443.27708","Mapping"
"Mixed","Male","tile","29","F_priest.wav","space","361.763870111","232","2403551.00879","2410433.70847","2411200.46419","2411967.06904","2398134.06492","2398900.66111","2399667.35406","2400434.41215","2404317.67948","2405084.16282","2405850.95749","2406617.25131","2407366.80927","2408133.80738","2408900.51827","2409666.87268","2411210.06278","Mapping"
"Mixed","Male","tile","29","M_tile.wav","None","728.56633598","232","2403551.00879","2410433.70847","2411200.46419","2411967.06904","2412733.74622","2398900.66111","2399667.35406","2400434.41215","2404317.67948","2405084.16282","2405850.95749","2406617.25131","2407366.80927","2408133.80738","2408900.51827","2409666.87268","2411976.37082","Mapping"
"Mixed","Male","tile","29","M_cave.wav","space","428.989872453","232","2403551.00879","2410433.70847","2411200.46419","2411967.06904","2412733.74622","2413500.4129","2399667.35406","2400434.41215","2404317.67948","2405084.16282","2405850.95749","2406617.25131","2407366.80927","2408133.80738","2408900.51827","2409666.87268","2412742.8186","Mapping"
"Mixed","Male","tile","29","F_romp.wav","None","725.739256362","232","2403551.00879","2410433.70847","2411200.46419","2411967.06904","2412733.74622","2413500.4129","2414267.18377","2400434.41215","2404317.67948","2405084.16282","2405850.95749","2406617.25131","2407366.80927","2408133.80738","2408900.51827","2409666.87268","2413510.19854","Mapping"
"Mixed","Male","tile","29","F_knife.wav","None","725.358973374","232","2403551.00879","2410433.70847","2411200.46419","2411967.06904","2412733.74622","2413500.4129","2414267.18377","2415033.69153","2404317.67948","2405084.16282","2405850.95749","2406617.25131","2407366.80927","2408133.80738","2408900.51827","2409666.87268","2414276.56037","Mapping"
"Mixed","Female","cave","22","M_jaw.wav","None","725.408750237","232","2418167.37246","2410433.70847","2411200.46419","2411967.06904","2412733.74622","2413500.4129","2414267.18377","2415033.69153","2404317.67948","2405084.16282","2405850.95749","2406617.25131","2407366.80927","2408133.80738","2408900.51827","2409666.87268","2415042.81183","Mapping"
"Mixed","Female","cave","22","F_bluff.wav","None","721.231820178","232","2418167.37246","2410433.70847","2411200.46419","2411967.06904","2412733.74622","2413500.4129","2414267.18377","2415033.69153","2418934.01409","2405084.16282","2405850.95749","2406617.25131","2407366.80927","2408133.80738","2408900.51827","2409666.87268","2418176.86655","Mapping"
"Mixed","Female","cave","22","F_cave.wav","None","720.091589494","232","2418167.37246","2410433.70847","2411200.46419","2411967.06904","2412733.74622","2413500.4129","2414267.18377","2415033.69153","2418934.01409","2419700.08468","2405850.95749","2406617.25131","2407366.80927","2408133.80738","2408900.51827","2409666.87268","2418943.99049","Mapping"
"Mixed","Female","cave","22","M_ball.wav","space","430.715986295","232","2418167.37246","2410433.70847","2411200.46419","2411967.06904","2412733.74622","2413500.4129","2414267.18377","2415033.69153","2418934.01409","2419700.08468","2420467.26335","2406617.25131","2407366.80927","2408133.80738","2408900.51827","2409666.87268","2419708.99382","Mapping"
"Mixed","Female","cave","22","M_park.wav","None","719.751499011","232","2418167.37246","2410433.70847","2411200.46419","2411967.06904","2412733.74622","2413500.4129","2414267.18377","2415033.69153","2418934.01409","2419700.08468","2420467.26335","2421233.96527","2407366.80927","2408133.80738","2408900.51827","2409666.87268","2420476.81495","Mapping"
"Mixed","Female","cave","22","F_ball.wav","None","719.244454871","232","2418167.37246","2410433.70847","2411200.46419","2411967.06904","2412733.74622","2413500.4129","2414267.18377","2415033.69153","2418934.01409","2419700.08468","2420467.26335","2421233.96527","2421984.06954","2408133.80738","2408900.51827","2409666.87268","2421243.53944","Mapping"
"Mixed","Female","cave","22","M_depth.wav","None","735.114933574","232","2418167.37246","2410433.70847","2411200.46419","2411967.06904","2412733.74622","2413500.4129","2414267.18377","2415033.69153","2418934.01409","2419700.08468","2420467.26335","2421233.96527","2421984.06954","2422750.08324","2408900.51827","2409666.87268","2421993.90249","Mapping"
"Mixed","Female","cave","22","M_dime.wav","None","735.49861752","232","2418167.37246","2410433.70847","2411200.46419","2411967.06904","2412733.74622","2413500.4129","2414267.18377","2415033.69153","2418934.01409","2419700.08468","2420467.26335","2421233.96527","2421984.06954","2422750.08324","2423516.58019","2409666.87268","2422759.66607","Mapping"
"Mixed","Female","cave","22","F_cave.wav","None","735.136884847","232","2418167.37246","2410433.70847","2411200.46419","2411967.06904","2412733.74622","2413500.4129","2414267.18377","2415033.69153","2418934.01409","2419700.08468","2420467.26335","2421233.96527","2421984.06954","2422750.08324","2423516.58019","2424283.4064","2423526.09561","Mapping"
"Mixed","Female","cave","22","M_priest.wav","space","342.626358382","232","2418167.37246","2425050.21808","2411200.46419","2411967.06904","2412733.74622","2413500.4129","2414267.18377","2415033.69153","2418934.01409","2419700.08468","2420467.26335","2421233.96527","2421984.06954","2422750.08324","2423516.58019","2424283.4064","2424292.99633","Mapping"
"Mixed","Female","cave","22","M_priest.wav","None","731.802142807","232","2418167.37246","2425050.21808","2425816.48592","2411967.06904","2412733.74622","2413500.4129","2414267.18377","2415033.69153","2418934.01409","2419700.08468","2420467.26335","2421233.96527","2421984.06954","2422750.08324","2423516.58019","2424283.4064","2425060.22601","Mapping"
"Mixed","Female","cave","22","F_cave.wav","None","732.690397417","232","2418167.37246","2425050.21808","2425816.48592","2426583.47661","2412733.74622","2413500.4129","2414267.18377","2415033.69153","2418934.01409","2419700.08468","2420467.26335","2421233.96527","2421984.06954","2422750.08324","2423516.58019","2424283.4064","2425825.46833","Mapping"
"Mixed","Female","cave","22","F_lash.wav","space","306.577690761","232","2418167.37246","2425050.21808","2425816.48592","2426583.47661","2427349.74724","2413500.4129","2414267.18377","2415033.69153","2418934.01409","2419700.08468","2420467.26335","2421233.96527","2421984.06954","2422750.08324","2423516.58019","2424283.4064","2426593.04057","Mapping"
"Mixed","Female","cave","22","F_cave.wav","None","730.063043535","232","2418167.37246","2425050.21808","2425816.48592","2426583.47661","2427349.74724","2428116.76544","2414267.18377","2415033.69153","2418934.01409","2419700.08468","2420467.26335","2421233.96527","2421984.06954","2422750.08324","2423516.58019","2424283.4064","2427358.71048","Mapping"
"Mixed","Female","cave","22","F_tile.wav","space","477.211616351","232","2418167.37246","2425050.21808","2425816.48592","2426583.47661","2427349.74724","2428116.76544","2428883.47138","2415033.69153","2418934.01409","2419700.08468","2420467.26335","2421233.96527","2421984.06954","2422750.08324","2423516.58019","2424283.4064","2428126.37671","Mapping"
