"Condition","Talker","Target","Trial","current_stimulus","response_response","response_time_response","subject_nr","time_Audio1","time_Audio10","time_Audio11","time_Audio12","time_Audio13","time_Audio14","time_Audio15","time_Audio16","time_Audio2","time_Audio3","time_Audio4","time_Audio5","time_Audio6","time_Audio7","time_Audio8","time_Audio9","time_response"
"Mixed","both","cave","15","M_cad.wav","NA","NA","308","36795.4074112","NA","NA","NA","NA","NA","NA","NA","NA","NA","NA","NA","NA","NA","NA","NA","NA"
"Mixed","both","cave","15","M_greet.wav","None","716.911446769","308","36795.4074112","NA","NA","NA","NA","NA","NA","NA","37545.2621016","NA","NA","NA","NA","NA","NA","NA","36809.5030654"
"Mixed","both","cave","15","F_cave.wav","None","735.358661506","308","36795.4074112","NA","NA","NA","NA","NA","NA","NA","37545.2621016","38311.3621017","NA","NA","NA","NA","NA","NA","37554.9898096"
"Mixed","both","cave","15","F_greet.wav","space","531.764999032","308","36795.4074112","NA","NA","NA","NA","NA","NA","NA","37545.2621016","38311.3621017","39078.325612","NA","NA","NA","NA","NA","38320.6968554"
"Mixed","both","cave","15","F_depth.wav","None","729.575027712","308","36795.4074112","NA","NA","NA","NA","NA","NA","NA","37545.2621016","38311.3621017","39078.325612","39844.9481088","NA","NA","NA","NA","39088.9536222"
"Mixed","both","cave","15","F_cave.wav","None","727.750618942","308","36795.4074112","NA","NA","NA","NA","NA","NA","NA","37545.2621016","38311.3621017","39078.325612","39844.9481088","40611.8819392","NA","NA","NA","39854.5567868"
"Mixed","both","cave","15","F_greet.wav","space","559.124332853","308","36795.4074112","NA","NA","NA","NA","NA","NA","NA","37545.2621016","38311.3621017","39078.325612","39844.9481088","40611.8819392","41378.7743407","NA","NA","40621.3211925"
"Mixed","both","cave","15","M_cave.wav","None","726.39027331","308","36795.4074112","NA","NA","NA","NA","NA","NA","NA","37545.2621016","38311.3621017","39078.325612","39844.9481088","40611.8819392","41378.7743407","42145.6958042","NA","41384.0490812"
"Mixed","both","cave","15","M_jolt.wav","space","552.967222873","308","36795.4074112","NA","NA","NA","NA","NA","NA","NA","37545.2621016","38311.3621017","39078.325612","39844.9481088","40611.8819392","41378.7743407","42145.6958042","42895.0691177","42155.3891948"
"Mixed","both","cave","15","F_reek.wav","None","733.499934431","308","36795.4074112","43661.4578823","NA","NA","NA","NA","NA","NA","37545.2621016","38311.3621017","39078.325612","39844.9481088","40611.8819392","41378.7743407","42145.6958042","42895.0691177","42904.918639"
"Mixed","both","cave","15","M_priest.wav","None","732.287062798","308","36795.4074112","43661.4578823","44428.4606576","NA","NA","NA","NA","NA","37545.2621016","38311.3621017","39078.325612","39844.9481088","40611.8819392","41378.7743407","42145.6958042","42895.0691177","43670.5425181"
"Mixed","both","cave","15","M_cad.wav","None","728.885889053","308","36795.4074112","43661.4578823","44428.4606576","45194.9511389","NA","NA","NA","NA","37545.2621016","38311.3621017","39078.325612","39844.9481088","40611.8819392","41378.7743407","42145.6958042","42895.0691177","44438.1030351"
"Mixed","both","cave","15","M_cave.wav","None","726.552896667","308","36795.4074112","43661.4578823","44428.4606576","45194.9511389","45962.1576564","NA","NA","NA","37545.2621016","38311.3621017","39078.325612","39844.9481088","40611.8819392","41378.7743407","42145.6958042","42895.0691177","45204.3672041"
"Mixed","both","cave","15","F_jaw.wav","space","656.964722555","308","36795.4074112","43661.4578823","44428.4606576","45194.9511389","45962.1576564","46728.3621561","NA","NA","37545.2621016","38311.3621017","39078.325612","39844.9481088","40611.8819392","41378.7743407","42145.6958042","42895.0691177","45971.2701174"
"Mixed","both","cave","15","M_dime.wav","None","720.602929592","308","36795.4074112","43661.4578823","44428.4606576","45194.9511389","45962.1576564","46728.3621561","47478.3355673","NA","37545.2621016","38311.3621017","39078.325612","39844.9481088","40611.8819392","41378.7743407","42145.6958042","42895.0691177","46738.0886278"
"Mixed","both","cave","15","F_romp.wav","None","734.637987334","308","36795.4074112","43661.4578823","44428.4606576","45194.9511389","45962.1576564","46728.3621561","47478.3355673","48245.3513276","37545.2621016","38311.3621017","39078.325612","39844.9481088","40611.8819392","41378.7743407","42145.6958042","42895.0691177","47488.1581906"
"Mixed","both","tile","30","M_priest.wav","None","730.975875165","308","51412.0456134","43661.4578823","44428.4606576","45194.9511389","45962.1576564","46728.3621561","47478.3355673","48245.3513276","37545.2621016","38311.3621017","39078.325612","39844.9481088","40611.8819392","41378.7743407","42145.6958042","42895.0691177","48255.5613401"
"Mixed","both","tile","30","F_tile.wav","None","721.451600082","308","51412.0456134","43661.4578823","44428.4606576","45194.9511389","45962.1576564","46728.3621561","47478.3355673","48245.3513276","52178.8412449","38311.3621017","39078.325612","39844.9481088","40611.8819392","41378.7743407","42145.6958042","42895.0691177","51421.6511999"
"Mixed","both","tile","30","F_knife.wav","space","526.958650444","308","51412.0456134","43661.4578823","44428.4606576","45194.9511389","45962.1576564","46728.3621561","47478.3355673","48245.3513276","52178.8412449","52928.1768398","39078.325612","39844.9481088","40611.8819392","41378.7743407","42145.6958042","42895.0691177","52189.082793"
"Mixed","both","tile","30","F_lash.wav","None","734.215043485","308","51412.0456134","43661.4578823","44428.4606576","45194.9511389","45962.1576564","46728.3621561","47478.3355673","48245.3513276","52178.8412449","52928.1768398","53695.5997762","39844.9481088","40611.8819392","41378.7743407","42145.6958042","42895.0691177","52937.605272"
"Mixed","both","tile","30","M_jaw.wav","None","730.839531403","308","51412.0456134","43661.4578823","44428.4606576","45194.9511389","45962.1576564","46728.3621561","47478.3355673","48245.3513276","52178.8412449","52928.1768398","53695.5997762","54461.7906725","40611.8819392","41378.7743407","42145.6958042","42895.0691177","53705.4155977"
"Mixed","both","tile","30","M_greet.wav","None","729.22164714","308","51412.0456134","43661.4578823","44428.4606576","45194.9511389","45962.1576564","46728.3621561","47478.3355673","48245.3513276","52178.8412449","52928.1768398","53695.5997762","54461.7906725","55228.2301406","41378.7743407","42145.6958042","42895.0691177","54470.9269395"
"Mixed","both","tile","30","F_greet.wav","None","726.196733303","308","51412.0456134","43661.4578823","44428.4606576","45194.9511389","45962.1576564","46728.3621561","47478.3355673","48245.3513276","52178.8412449","52928.1768398","53695.5997762","54461.7906725","55228.2301406","55995.3606026","42145.6958042","42895.0691177","55237.929096"
"Mixed","both","tile","30","F_tile.wav","None","723.311563488","308","51412.0456134","43661.4578823","44428.4606576","45194.9511389","45962.1576564","46728.3621561","47478.3355673","48245.3513276","52178.8412449","52928.1768398","53695.5997762","54461.7906725","55228.2301406","55995.3606026","56761.3771274","42895.0691177","56005.0926395"
"Mixed","both","tile","30","M_bluff.wav","space","385.202592704","308","51412.0456134","43661.4578823","44428.4606576","45194.9511389","45962.1576564","46728.3621561","47478.3355673","48245.3513276","52178.8412449","52928.1768398","53695.5997762","54461.7906725","55228.2301406","55995.3606026","56761.3771274","57512.0081422","56770.6961134"
"Mixed","both","tile","30","M_tile.wav","None","735.053510871","308","51412.0456134","58278.0221933","44428.4606576","45194.9511389","45962.1576564","46728.3621561","47478.3355673","48245.3513276","52178.8412449","52928.1768398","53695.5997762","54461.7906725","55228.2301406","55995.3606026","56761.3771274","57512.0081422","57521.9194973"
"Mixed","both","tile","30","F_priest.wav","space","604.525870178","308","51412.0456134","58278.0221933","59044.9297442","45194.9511389","45962.1576564","46728.3621561","47478.3355673","48245.3513276","52178.8412449","52928.1768398","53695.5997762","54461.7906725","55228.2301406","55995.3606026","56761.3771274","57512.0081422","58287.3331411"
"Mixed","both","tile","30","F_park.wav","None","731.245470699","308","51412.0456134","58278.0221933","59044.9297442","59811.1156938","45962.1576564","46728.3621561","47478.3355673","48245.3513276","52178.8412449","52928.1768398","53695.5997762","54461.7906725","55228.2301406","55995.3606026","56761.3771274","57512.0081422","59054.6698193"
"Mixed","both","tile","30","M_reek.wav","None","730.053313076","308","51412.0456134","58278.0221933","59044.9297442","59811.1156938","60578.2455374","46728.3621561","47478.3355673","48245.3513276","52178.8412449","52928.1768398","53695.5997762","54461.7906725","55228.2301406","55995.3606026","56761.3771274","57512.0081422","59820.4600317"
"Mixed","both","tile","30","M_tile.wav","None","727.163506206","308","51412.0456134","58278.0221933","59044.9297442","59811.1156938","60578.2455374","61344.9175013","47478.3355673","48245.3513276","52178.8412449","52928.1768398","53695.5997762","54461.7906725","55228.2301406","55995.3606026","56761.3771274","57512.0081422","60587.8712195"
"Mixed","both","tile","30","M_romp.wav","space","449.129564222","308","51412.0456134","58278.0221933","59044.9297442","59811.1156938","60578.2455374","61344.9175013","62111.7653823","48245.3513276","52178.8412449","52928.1768398","53695.5997762","54461.7906725","55228.2301406","55995.3606026","56761.3771274","57512.0081422","61354.6609771"
"Mixed","both","tile","30","F_greet.wav","None","721.548060887","308","51412.0456134","58278.0221933","59044.9297442","59811.1156938","60578.2455374","61344.9175013","62111.7653823","62878.7270379","52178.8412449","52928.1768398","53695.5997762","54461.7906725","55228.2301406","55995.3606026","56761.3771274","57512.0081422","62121.8000958"
"Mixed","both","ball","10","M_gnash.wav","None","719.13190186","308","65995.3992488","58278.0221933","59044.9297442","59811.1156938","60578.2455374","61344.9175013","62111.7653823","62878.7270379","52178.8412449","52928.1768398","53695.5997762","54461.7906725","55228.2301406","55995.3606026","56761.3771274","57512.0081422","62888.4167182"
"Mixed","both","ball","10","F_cling.wav","None","719.080888666","308","65995.3992488","58278.0221933","59044.9297442","59811.1156938","60578.2455374","61344.9175013","62111.7653823","62878.7270379","66744.2927314","52928.1768398","53695.5997762","54461.7906725","55228.2301406","55995.3606026","56761.3771274","57512.0081422","66005.8578337"
"Mixed","both","ball","10","F_ball.wav","None","735.660101753","308","65995.3992488","58278.0221933","59044.9297442","59811.1156938","60578.2455374","61344.9175013","62111.7653823","62878.7270379","66744.2927314","67511.3641419","53695.5997762","54461.7906725","55228.2301406","55995.3606026","56761.3771274","57512.0081422","66753.7499163"
"Mixed","both","ball","10","F_bluff.wav","space","410.530992318","308","65995.3992488","58278.0221933","59044.9297442","59811.1156938","60578.2455374","61344.9175013","62111.7653823","62878.7270379","66744.2927314","67511.3641419","68277.8317449","54461.7906725","55228.2301406","55995.3606026","56761.3771274","57512.0081422","67521.063407"
"Mixed","both","ball","10","M_ball.wav","None","730.251181405","308","65995.3992488","58278.0221933","59044.9297442","59811.1156938","60578.2455374","61344.9175013","62111.7653823","62878.7270379","66744.2927314","67511.3641419","68277.8317449","69044.7621746","55228.2301406","55995.3606026","56761.3771274","57512.0081422","68287.7866928"
"Mixed","both","ball","10","M_greet.wav","space","541.041319724","308","65995.3992488","58278.0221933","59044.9297442","59811.1156938","60578.2455374","61344.9175013","62111.7653823","62878.7270379","66744.2927314","67511.3641419","68277.8317449","69044.7621746","69811.1762907","55995.3606026","56761.3771274","57512.0081422","69054.4843175"
"Mixed","both","ball","10","F_cling.wav","None","726.436030585","308","65995.3992488","58278.0221933","59044.9297442","59811.1156938","60578.2455374","61344.9175013","62111.7653823","62878.7270379","66744.2927314","67511.3641419","68277.8317449","69044.7621746","69811.1762907","70577.9518262","56761.3771274","57512.0081422","69820.9636686"
"Mixed","both","ball","10","F_romp.wav","None","724.210937973","308","65995.3992488","58278.0221933","59044.9297442","59811.1156938","60578.2455374","61344.9175013","62111.7653823","62878.7270379","66744.2927314","67511.3641419","68277.8317449","69044.7621746","69811.1762907","70577.9518262","71344.3628512","57512.0081422","70587.6724236"
"Mixed","both","ball","10","F_knife.wav","None","500.803840347","308","65995.3992488","58278.0221933","59044.9297442","59811.1156938","60578.2455374","61344.9175013","62111.7653823","62878.7270379","66744.2927314","67511.3641419","68277.8317449","69044.7621746","69811.1762907","70577.9518262","71344.3628512","72094.7332359","71575.028629"
"Mixed","both","ball","10","F_ball.wav","None","735.257871915","308","65995.3992488","72861.1127255","59044.9297442","59811.1156938","60578.2455374","61344.9175013","62111.7653823","62878.7270379","66744.2927314","67511.3641419","68277.8317449","69044.7621746","69811.1762907","70577.9518262","71344.3628512","72094.7332359","72104.5911047"
"Mixed","both","ball","10","M_gnash.wav","space","404.569895938","308","65995.3992488","72861.1127255","73627.8786766","59811.1156938","60578.2455374","61344.9175013","62111.7653823","62878.7270379","66744.2927314","67511.3641419","68277.8317449","69044.7621746","69811.1762907","70577.9518262","71344.3628512","72094.7332359","72870.8769158"
"Mixed","both","ball","10","F_cad.wav","None","730.760693084","308","65995.3992488","72861.1127255","73627.8786766","74394.4486147","60578.2455374","61344.9175013","62111.7653823","62878.7270379","66744.2927314","67511.3641419","68277.8317449","69044.7621746","69811.1762907","70577.9518262","71344.3628512","72094.7332359","73637.5507344"
"Mixed","both","ball","10","M_dime.wav","None","729.167851619","308","65995.3992488","72861.1127255","73627.8786766","74394.4486147","75160.9468251","61344.9175013","62111.7653823","62878.7270379","66744.2927314","67511.3641419","68277.8317449","69044.7621746","69811.1762907","70577.9518262","71344.3628512","72094.7332359","74403.7623452"
"Mixed","both","ball","10","M_reek.wav","None","727.80657839","308","65995.3992488","72861.1127255","73627.8786766","74394.4486147","75160.9468251","75927.6265181","62111.7653823","62878.7270379","66744.2927314","67511.3641419","68277.8317449","69044.7621746","69811.1762907","70577.9518262","71344.3628512","72094.7332359","75170.1875916"
"Mixed","both","ball","10","M_ball.wav","None","725.029927678","308","65995.3992488","72861.1127255","73627.8786766","74394.4486147","75160.9468251","75927.6265181","76694.1643027","62878.7270379","66744.2927314","67511.3641419","68277.8317449","69044.7621746","69811.1762907","70577.9518262","71344.3628512","72094.7332359","75937.0116666"
"Mixed","both","ball","10","M_jaw.wav","space","531.640403438","308","65995.3992488","72861.1127255","73627.8786766","74394.4486147","75160.9468251","75927.6265181","76694.1643027","77460.7840166","66744.2927314","67511.3641419","68277.8317449","69044.7621746","69811.1762907","70577.9518262","71344.3628512","72094.7332359","76703.6354002"
"Mixed","both","tile","25","M_cling.wav","None","720.289741177","308","80577.9292569","72861.1127255","73627.8786766","74394.4486147","75160.9468251","75927.6265181","76694.1643027","77460.7840166","66744.2927314","67511.3641419","68277.8317449","69044.7621746","69811.1762907","70577.9518262","71344.3628512","72094.7332359","77470.2260522"
"Mixed","both","tile","25","F_depth.wav","None","720.322513022","308","80577.9292569","72861.1127255","73627.8786766","74394.4486147","75160.9468251","75927.6265181","76694.1643027","77460.7840166","81327.7882757","67511.3641419","68277.8317449","69044.7621746","69811.1762907","70577.9518262","71344.3628512","72094.7332359","80588.5297507"
"Mixed","both","tile","25","F_jolt.wav","None","735.684526153","308","80577.9292569","72861.1127255","73627.8786766","74394.4486147","75160.9468251","75927.6265181","76694.1643027","77460.7840166","81327.7882757","82093.7652267","68277.8317449","69044.7621746","69811.1762907","70577.9518262","71344.3628512","72094.7332359","81337.3144055"
"Mixed","both","tile","25","F_greet.wav","None","734.215043485","308","80577.9292569","72861.1127255","73627.8786766","74394.4486147","75160.9468251","75927.6265181","76694.1643027","77460.7840166","81327.7882757","82093.7652267","82860.6981295","69044.7621746","69811.1762907","70577.9518262","71344.3628512","72094.7332359","82103.1840746"
"Mixed","both","tile","25","M_tile.wav","None","731.320289429","308","80577.9292569","72861.1127255","73627.8786766","74394.4486147","75160.9468251","75927.6265181","76694.1643027","77460.7840166","81327.7882757","82093.7652267","82860.6981295","83627.1821181","69811.1762907","70577.9518262","71344.3628512","72094.7332359","82870.1104848"
"Mixed","both","tile","25","M_jolt.wav","space","390.827930998","308","80577.9292569","72861.1127255","73627.8786766","74394.4486147","75160.9468251","75927.6265181","76694.1643027","77460.7840166","81327.7882757","82093.7652267","82860.6981295","83627.1821181","84393.7702971","70577.9518262","71344.3628512","72094.7332359","83636.2982891"
"Mixed","both","tile","25","M_tile.wav","None","727.044785395","308","80577.9292569","72861.1127255","73627.8786766","74394.4486147","75160.9468251","75927.6265181","76694.1643027","77460.7840166","81327.7882757","82093.7652267","82860.6981295","83627.1821181","84393.7702971","85160.7774002","71344.3628512","72094.7332359","84403.2246992"
"Mixed","both","tile","25","F_jaw.wav","None","724.57081126","308","80577.9292569","72861.1127255","73627.8786766","74394.4486147","75160.9468251","75927.6265181","76694.1643027","77460.7840166","81327.7882757","82093.7652267","82860.6981295","83627.1821181","84393.7702971","85160.7774002","85927.2502591","72094.7332359","85170.292709"
"Mixed","both","tile","25","F_tile.wav","space","0.0213328748941","308","80577.9292569","72861.1127255","73627.8786766","74394.4486147","75160.9468251","75927.6265181","76694.1643027","77460.7840166","81327.7882757","82093.7652267","82860.6981295","83627.1821181","84393.7702971","85160.7774002","85927.2502591","86693.876775","85936.6289149"
"Mixed","both","tile","25","F_priest.wav","space","579.892174341","308","80577.9292569","87443.5295775","73627.8786766","74394.4486147","75160.9468251","75927.6265181","76694.1643027","77460.7840166","81327.7882757","82093.7652267","82860.6981295","83627.1821181","84393.7702971","85160.7774002","85927.2502591","86693.876775","86703.141347"
"Mixed","both","tile","25","M_depth.wav","None","734.873574227","308","80577.9292569","87443.5295775","88210.5063824","74394.4486147","75160.9468251","75927.6265181","76694.1643027","77460.7840166","81327.7882757","82093.7652267","82860.6981295","83627.1821181","84393.7702971","85160.7774002","85927.2502591","86693.876775","87452.8485639"
"Mixed","both","tile","25","F_jolt.wav","None","734.364681412","308","80577.9292569","87443.5295775","88210.5063824","88977.4145517","75160.9468251","75927.6265181","76694.1643027","77460.7840166","81327.7882757","82093.7652267","82860.6981295","83627.1821181","84393.7702971","85160.7774002","85927.2502591","86693.876775","88219.6006025"
"Mixed","both","tile","25","F_tile.wav","None","731.928425841","308","80577.9292569","87443.5295775","88210.5063824","88977.4145517","89743.6193605","75927.6265181","76694.1643027","77460.7840166","81327.7882757","82093.7652267","82860.6981295","83627.1821181","84393.7702971","85160.7774002","85927.2502591","86693.876775","88986.5093902"
"Mixed","both","tile","25","M_knife.wav","space","426.033058669","308","80577.9292569","87443.5295775","88210.5063824","88977.4145517","89743.6193605","90510.5111436","76694.1643027","77460.7840166","81327.7882757","82093.7652267","82860.6981295","83627.1821181","84393.7702971","85160.7774002","85927.2502591","86693.876775","89752.9151589"
"Mixed","both","tile","25","M_jaw.wav","None","727.448560297","308","80577.9292569","87443.5295775","88210.5063824","88977.4145517","89743.6193605","90510.5111436","91277.1509537","77460.7840166","81327.7882757","82093.7652267","82860.6981295","83627.1821181","84393.7702971","85160.7774002","85927.2502591","86693.876775","90519.5450755"
"Mixed","both","tile","25","M_jolt.wav","None","724.540512078","308","80577.9292569","87443.5295775","88210.5063824","88977.4145517","89743.6193605","90510.5111436","91277.1509537","92044.3522157","81327.7882757","82093.7652267","82860.6981295","83627.1821181","84393.7702971","85160.7774002","85927.2502591","86693.876775","91287.2716165"
"Mixed","both","done","38","F_depth.wav","None","721.891548485","308","95161.174065","87443.5295775","88210.5063824","88977.4145517","89743.6193605","90510.5111436","91277.1509537","92044.3522157","81327.7882757","82093.7652267","82860.6981295","83627.1821181","84393.7702971","85160.7774002","85927.2502591","86693.876775","92054.4648399"
"Mixed","both","done","38","M_romp.wav","None","720.324986614","308","95161.174065","87443.5295775","88210.5063824","88977.4145517","89743.6193605","90510.5111436","91277.1509537","92044.3522157","95910.4880178","82093.7652267","82860.6981295","83627.1821181","84393.7702971","85160.7774002","85927.2502591","86693.876775","95171.0628504"
"Mixed","both","done","38","F_done.wav","None","735.89414265","308","95161.174065","87443.5295775","88210.5063824","88977.4145517","89743.6193605","90510.5111436","91277.1509537","92044.3522157","95910.4880178","96677.0118894","82860.6981295","83627.1821181","84393.7702971","85160.7774002","85927.2502591","86693.876775","95919.9739555"
"Mixed","both","done","38","M_gnash.wav","space","468.343828805","308","95161.174065","87443.5295775","88210.5063824","88977.4145517","89743.6193605","90510.5111436","91277.1509537","92044.3522157","95910.4880178","96677.0118894","97443.5100998","83627.1821181","84393.7702971","85160.7774002","85927.2502591","86693.876775","96686.3707583"
"Mixed","both","done","38","M_reek.wav","None","731.76085623","308","95161.174065","87443.5295775","88210.5063824","88977.4145517","89743.6193605","90510.5111436","91277.1509537","92044.3522157","95910.4880178","96677.0118894","97443.5100998","98210.6999224","84393.7702971","85160.7774002","85927.2502591","86693.876775","97452.6695544"
"Mixed","both","done","38","F_jaw.wav","None","727.985278703","308","95161.174065","87443.5295775","88210.5063824","88977.4145517","89743.6193605","90510.5111436","91277.1509537","92044.3522157","95910.4880178","96677.0118894","97443.5100998","98210.6999224","98977.1097107","85160.7774002","85927.2502591","86693.876775","98220.5964373"
"Mixed","both","done","38","F_done.wav","None","726.038438734","308","95161.174065","87443.5295775","88210.5063824","88977.4145517","89743.6193605","90510.5111436","91277.1509537","92044.3522157","95910.4880178","96677.0118894","97443.5100998","98210.6999224","98977.1097107","99744.063946","85927.2502591","86693.876775","98986.8803932"
"Mixed","both","done","38","F_cling.wav","space","512.003195472","308","95161.174065","87443.5295775","88210.5063824","88977.4145517","89743.6193605","90510.5111436","91277.1509537","92044.3522157","95910.4880178","96677.0118894","97443.5100998","98210.6999224","98977.1097107","99744.063946","100510.086345","86693.876775","99754.6397061"
"Mixed","both","done","38","F_reek.wav","None","722.553479951","308","95161.174065","87443.5295775","88210.5063824","88977.4145517","89743.6193605","90510.5111436","91277.1509537","92044.3522157","95910.4880178","96677.0118894","97443.5100998","98210.6999224","98977.1097107","99744.063946","100510.086345","101276.824471","100519.229723"
"Mixed","both","done","38","F_depth.wav","None","720.099292696","308","95161.174065","102026.711006","88210.5063824","88977.4145517","89743.6193605","90510.5111436","91277.1509537","92044.3522157","95910.4880178","96677.0118894","97443.5100998","98210.6999224","98977.1097107","99744.063946","100510.086345","101276.824471","101286.298351"
"Mixed","both","done","38","M_done.wav","None","734.336237889","308","95161.174065","102026.711006","102793.2188","88977.4145517","89743.6193605","90510.5111436","91277.1509537","92044.3522157","95910.4880178","96677.0118894","97443.5100998","98210.6999224","98977.1097107","99744.063946","100510.086345","101276.824471","102036.78993"
"Mixed","both","done","38","M_lash.wav","space","535.935386084","308","95161.174065","102026.711006","102793.2188","103560.120477","89743.6193605","90510.5111436","91277.1509537","92044.3522157","95910.4880178","96677.0118894","97443.5100998","98210.6999224","98977.1097107","99744.063946","100510.086345","101276.824471","102802.599002"
"Mixed","both","done","38","F_gnash.wav","None","730.821599253","308","95161.174065","102026.711006","102793.2188","103560.120477","104326.474924","90510.5111436","91277.1509537","92044.3522157","95910.4880178","96677.0118894","97443.5100998","98210.6999224","98977.1097107","99744.063946","100510.086345","101276.824471","103569.060422"
"Mixed","both","done","38","M_reek.wav","None","729.058715049","308","95161.174065","102026.711006","102793.2188","103560.120477","104326.474924","105093.569213","91277.1509537","92044.3522157","95910.4880178","96677.0118894","97443.5100998","98210.6999224","98977.1097107","99744.063946","100510.086345","101276.824471","104335.870893"
"Mixed","both","done","38","M_done.wav","None","726.575774606","308","95161.174065","102026.711006","102793.2188","103560.120477","104326.474924","105093.569213","105860.062168","92044.3522157","95910.4880178","96677.0118894","97443.5100998","98210.6999224","98977.1097107","99744.063946","100510.086345","101276.824471","105102.964873"
"Mixed","both","done","38","M_jolt.wav","space","612.86386149","308","95161.174065","102026.711006","102793.2188","103560.120477","104326.474924","105093.569213","105860.062168","106627.227566","95910.4880178","96677.0118894","97443.5100998","98210.6999224","98977.1097107","99744.063946","100510.086345","101276.824471","105869.605302"
"Mixed","both","ball","7","F_gnash.wav","None","720.529347658","308","109743.862059","102026.711006","102793.2188","103560.120477","104326.474924","105093.569213","105860.062168","106627.227566","95910.4880178","96677.0118894","97443.5100998","98210.6999224","98977.1097107","99744.063946","100510.086345","101276.824471","106637.517035"
"Mixed","both","ball","7","M_cad.wav","None","719.594419003","308","109743.862059","102026.711006","102793.2188","103560.120477","104326.474924","105093.569213","105860.062168","106627.227566","110492.909507","96677.0118894","97443.5100998","98210.6999224","98977.1097107","99744.063946","100510.086345","101276.824471","109754.292509"
"Mixed","both","ball","7","F_gnash.wav","None","736.311212648","308","109743.862059","102026.711006","102793.2188","103560.120477","104326.474924","105093.569213","105860.062168","106627.227566","110492.909507","111259.823242","97443.5100998","98210.6999224","98977.1097107","99744.063946","100510.086345","101276.824471","110502.131723"
"Mixed","both","ball","7","F_ball.wav","None","687.733886763","308","109743.862059","102026.711006","102793.2188","103560.120477","104326.474924","105093.569213","105860.062168","106627.227566","110492.909507","111259.823242","112026.208296","98210.6999224","98977.1097107","99744.063946","100510.086345","101276.824471","111315.323799"
"Mixed","both","ball","7","F_knife.wav","space","478.733468801","308","109743.862059","102026.711006","102793.2188","103560.120477","104326.474924","105093.569213","105860.062168","106627.227566","110492.909507","111259.823242","112026.208296","112793.371839","98977.1097107","99744.063946","100510.086345","101276.824471","112035.54274"
"Mixed","both","ball","7","M_romp.wav","None","728.846624959","308","109743.862059","102026.711006","102793.2188","103560.120477","104326.474924","105093.569213","105860.062168","106627.227566","110492.909507","111259.823242","112026.208296","112793.371839","113559.803269","99744.063946","100510.086345","101276.824471","112802.739983"
"Mixed","both","ball","7","M_ball.wav","None","726.755711716","308","109743.862059","102026.711006","102793.2188","103560.120477","104326.474924","105093.569213","105860.062168","106627.227566","110492.909507","111259.823242","112026.208296","112793.371839","113559.803269","114326.13391","100510.086345","101276.824471","113569.442246"
"Mixed","both","ball","7","F_jaw.wav","space","417.561506387","308","109743.862059","102026.711006","102793.2188","103560.120477","104326.474924","105093.569213","105860.062168","106627.227566","110492.909507","111259.823242","112026.208296","112793.371839","113559.803269","114326.13391","115092.910373","101276.824471","114352.633134"
"Mixed","both","ball","7","M_ball.wav","None","723.774390295","308","109743.862059","102026.711006","102793.2188","103560.120477","104326.474924","105093.569213","105860.062168","106627.227566","110492.909507","111259.823242","112026.208296","112793.371839","113559.803269","114326.13391","115092.910373","115859.676633","115102.032728"
"Mixed","both","ball","7","M_knife.wav","space","509.556118865","308","109743.862059","116609.522667","102793.2188","103560.120477","104326.474924","105093.569213","105860.062168","106627.227566","110492.909507","111259.823242","112026.208296","112793.371839","113559.803269","114326.13391","115092.910373","115859.676633","115868.609158"
"Mixed","both","ball","7","M_depth.wav","None","735.841583926","308","109743.862059","116609.522667","117376.442275","103560.120477","104326.474924","105093.569213","105860.062168","106627.227566","110492.909507","111259.823242","112026.208296","112793.371839","113559.803269","114326.13391","115092.910373","115859.676633","116618.724169"
"Mixed","both","ball","7","M_cling.wav","None","733.43531834","308","109743.862059","116609.522667","117376.442275","118143.237289","104326.474924","105093.569213","105860.062168","106627.227566","110492.909507","111259.823242","112026.208296","112793.371839","113559.803269","114326.13391","115092.910373","115859.676633","117385.708703"
"Mixed","both","ball","7","F_romp.wav","None","731.933373027","308","109743.862059","116609.522667","117376.442275","118143.237289","118909.808154","105093.569213","105860.062168","106627.227566","110492.909507","111259.823242","112026.208296","112793.371839","113559.803269","114326.13391","115092.910373","115859.676633","118152.305538"
"Mixed","both","ball","7","F_gnash.wav","None","729.490315542","308","109743.862059","116609.522667","117376.442275","118143.237289","118909.808154","119676.06243","105860.062168","106627.227566","110492.909507","111259.823242","112026.208296","112793.371839","113559.803269","114326.13391","115092.910373","115859.676633","118919.3618"
"Mixed","both","ball","7","F_ball.wav","None","728.517668322","308","109743.862059","116609.522667","117376.442275","118143.237289","118909.808154","119676.06243","120442.554766","106627.227566","110492.909507","111259.823242","112026.208296","112793.371839","113559.803269","114326.13391","115092.910373","115859.676633","119684.934666"
"Mixed","both","ball","7","M_jolt.wav","space","454.468302894","308","109743.862059","116609.522667","117376.442275","118143.237289","118909.808154","119676.06243","120442.554766","121209.344833","110492.909507","111259.823242","112026.208296","112793.371839","113559.803269","114326.13391","115092.910373","115859.676633","120451.557472"
"Mixed","both","ball","1","M_gnash.wav","None","727.476076223","308","124343.379692","116609.522667","117376.442275","118143.237289","118909.808154","119676.06243","120442.554766","121209.344833","110492.909507","111259.823242","112026.208296","112793.371839","113559.803269","114326.13391","115092.910373","115859.676633","121218.090001"
"Mixed","both","ball","1","F_ball.wav","None","720.285103656","308","124343.379692","116609.522667","117376.442275","118143.237289","118909.808154","119676.06243","120442.554766","121209.344833","125110.521594","111259.823242","112026.208296","112793.371839","113559.803269","114326.13391","115092.910373","115859.676633","124353.37545"
"Mixed","both","ball","1","F_priest.wav","space","505.833409727","308","124343.379692","116609.522667","117376.442275","118143.237289","118909.808154","119676.06243","120442.554766","121209.344833","125110.521594","125859.152282","112026.208296","112793.371839","113559.803269","114326.13391","115092.910373","115859.676633","125120.044631"
"Mixed","both","ball","1","F_depth.wav","None","733.98162052","308","124343.379692","116609.522667","117376.442275","118143.237289","118909.808154","119676.06243","120442.554766","121209.344833","125110.521594","125859.152282","126625.834448","112793.371839","113559.803269","114326.13391","115092.910373","115859.676633","125868.694488"
"Mixed","both","ball","1","M_priest.wav","None","733.133259229","308","124343.379692","116609.522667","117376.442275","118143.237289","118909.808154","119676.06243","120442.554766","121209.344833","125110.521594","125859.152282","126625.834448","127392.874015","113559.803269","114326.13391","115092.910373","115859.676633","126634.692154"
"Mixed","both","ball","1","M_priest.wav","None","730.393708684","308","124343.379692","116609.522667","117376.442275","118143.237289","118909.808154","119676.06243","120442.554766","121209.344833","125110.521594","125859.152282","126625.834448","127392.874015","128159.355221","114326.13391","115092.910373","115859.676633","127402.156519"
"Mixed","both","ball","1","M_bluff.wav","None","729.832875077","308","124343.379692","116609.522667","117376.442275","118143.237289","118909.808154","119676.06243","120442.554766","121209.344833","125110.521594","125859.152282","126625.834448","127392.874015","128159.355221","128926.048517","115092.910373","115859.676633","128168.479121"
"Mixed","both","ball","1","M_cad.wav","None","727.442068048","308","124343.379692","116609.522667","117376.442275","118143.237289","118909.808154","119676.06243","120442.554766","121209.344833","125110.521594","125859.152282","126625.834448","127392.874015","128159.355221","128926.048517","129692.800556","115859.676633","128935.422226"
"Mixed","both","ball","1","F_depth.wav","None","725.182038732","308","124343.379692","116609.522667","117376.442275","118143.237289","118909.808154","119676.06243","120442.554766","121209.344833","125110.521594","125859.152282","126625.834448","127392.874015","128159.355221","128926.048517","129692.800556","130459.401411","129702.341835"
"Mixed","both","ball","1","F_ball.wav","None","723.492428195","308","124343.379692","131226.469111","117376.442275","118143.237289","118909.808154","119676.06243","120442.554766","121209.344833","125110.521594","125859.152282","126625.834448","127392.874015","128159.355221","128926.048517","129692.800556","130459.401411","130468.284777"
"Mixed","both","ball","1","M_gnash.wav","space","477.532036137","308","124343.379692","131226.469111","131993.110158","118143.237289","118909.808154","119676.06243","120442.554766","121209.344833","125110.521594","125859.152282","126625.834448","127392.874015","128159.355221","128926.048517","129692.800556","130459.401411","131236.160028"
"Mixed","both","ball","1","M_ball.wav","None","718.551590573","308","124343.379692","131226.469111","131993.110158","132742.557982","118909.808154","119676.06243","120442.554766","121209.344833","125110.521594","125859.152282","126625.834448","127392.874015","128159.355221","128926.048517","129692.800556","130459.401411","132003.040372"
"Mixed","both","ball","1","F_romp.wav","space","594.007615466","308","124343.379692","131226.469111","131993.110158","132742.557982","133509.291161","119676.06243","120442.554766","121209.344833","125110.521594","125859.152282","126625.834448","127392.874015","128159.355221","128926.048517","129692.800556","130459.401411","132751.642308"
"Mixed","both","ball","1","F_greet.wav","None","731.032453012","308","124343.379692","131226.469111","131993.110158","132742.557982","133509.291161","134275.591812","120442.554766","121209.344833","125110.521594","125859.152282","126625.834448","127392.874015","128159.355221","128926.048517","129692.800556","130459.401411","133518.913442"
"Mixed","both","ball","1","M_ball.wav","None","730.201096274","308","124343.379692","131226.469111","131993.110158","132742.557982","133509.291161","134275.591812","135042.311697","121209.344833","125110.521594","125859.152282","126625.834448","127392.874015","128159.355221","128926.048517","129692.800556","130459.401411","134284.459411"
"Mixed","both","ball","1","F_cad.wav","space","478.12502319","308","124343.379692","131226.469111","131993.110158","132742.557982","133509.291161","134275.591812","135042.311697","135809.089088","125110.521594","125859.152282","126625.834448","127392.874015","128159.355221","128926.048517","129692.800556","130459.401411","135051.464659"
"Mixed","both","done","44","F_gnash.wav","None","725.544385612","308","138943.058403","131226.469111","131993.110158","132742.557982","133509.291161","134275.591812","135042.311697","135809.089088","125110.521594","125859.152282","126625.834448","127392.874015","128159.355221","128926.048517","129692.800556","130459.401411","135818.127348"
"Mixed","both","done","44","M_cling.wav","None","720.179367345","308","138943.058403","131226.469111","131993.110158","132742.557982","133509.291161","134275.591812","135042.311697","135809.089088","139692.660193","125859.152282","126625.834448","127392.874015","128159.355221","128926.048517","129692.800556","130459.401411","138952.897413"
"Mixed","both","done","44","M_greet.wav","None","735.626711044","308","138943.058403","131226.469111","131993.110158","132742.557982","133509.291161","134275.591812","135042.311697","135809.089088","139692.660193","140458.961772","126625.834448","127392.874015","128159.355221","128926.048517","129692.800556","130459.401411","139702.288039"
"Mixed","both","done","44","M_done.wav","None","734.181034844","308","138943.058403","131226.469111","131993.110158","132742.557982","133509.291161","134275.591812","135042.311697","135809.089088","139692.660193","140458.961772","141225.8517","127392.874015","128159.355221","128926.048517","129692.800556","130459.401411","140468.443381"
"Mixed","both","done","44","M_jolt.wav","space","526.036088821","308","138943.058403","131226.469111","131993.110158","132742.557982","133509.291161","134275.591812","135042.311697","135809.089088","139692.660193","140458.961772","141225.8517","141992.532939","128159.355221","128926.048517","129692.800556","130459.401411","141235.341966"
"Mixed","both","done","44","F_greet.wav","None","729.198150337","308","138943.058403","131226.469111","131993.110158","132742.557982","133509.291161","134275.591812","135042.311697","135809.089088","139692.660193","140458.961772","141225.8517","141992.532939","142759.085563","128926.048517","129692.800556","130459.401411","142002.072672"
"Mixed","both","done","44","F_done.wav","None","726.926063653","308","138943.058403","131226.469111","131993.110158","132742.557982","133509.291161","134275.591812","135042.311697","135809.089088","139692.660193","140458.961772","141225.8517","141992.532939","142759.085563","143525.312632","129692.800556","130459.401411","142768.531309"
"Mixed","both","done","44","F_priest.wav","space","514.822511934","308","138943.058403","131226.469111","131993.110158","132742.557982","133509.291161","134275.591812","135042.311697","135809.089088","139692.660193","140458.961772","141225.8517","141992.532939","142759.085563","143525.312632","144292.594278","130459.401411","143534.452918"
"Mixed","both","done","44","F_done.wav","None","721.026801504","308","138943.058403","131226.469111","131993.110158","132742.557982","133509.291161","134275.591812","135042.311697","135809.089088","139692.660193","140458.961772","141225.8517","141992.532939","142759.085563","143525.312632","144292.594278","145059.669708","144302.636412"
"Mixed","both","done","44","M_bluff.wav","space","571.463286411","308","138943.058403","145808.73818","131993.110158","132742.557982","133509.291161","134275.591812","135042.311697","135809.089088","139692.660193","140458.961772","141225.8517","141992.532939","142759.085563","143525.312632","144292.594278","145059.669708","145069.829326"
"Mixed","both","done","44","M_greet.wav","None","733.676161151","308","138943.058403","145808.73818","146575.697981","132742.557982","133509.291161","134275.591812","135042.311697","135809.089088","139692.660193","140458.961772","141225.8517","141992.532939","142759.085563","143525.312632","144292.594278","145059.669708","145818.229992"
"Mixed","both","done","44","F_reek.wav","None","731.562987901","308","138943.058403","145808.73818","146575.697981","147342.268846","133509.291161","134275.591812","135042.311697","135809.089088","139692.660193","140458.961772","141225.8517","141992.532939","142759.085563","143525.312632","144292.594278","145059.669708","146585.369729"
"Mixed","both","done","44","M_park.wav","None","730.499753729","308","138943.058403","145808.73818","146575.697981","147342.268846","148108.806631","134275.591812","135042.311697","135809.089088","139692.660193","140458.961772","141225.8517","141992.532939","142759.085563","143525.312632","144292.594278","145059.669708","147351.546713"
"Mixed","both","done","44","F_reek.wav","None","728.913096245","308","138943.058403","145808.73818","146575.697981","147342.268846","148108.806631","148875.170352","135042.311697","135809.089088","139692.660193","140458.961772","141225.8517","141992.532939","142759.085563","143525.312632","144292.594278","145059.669708","148117.710402"
"Mixed","both","done","44","M_done.wav","None","727.846770547","308","138943.058403","145808.73818","146575.697981","147342.268846","148108.806631","148875.170352","149641.949907","135809.089088","139692.660193","140458.961772","141225.8517","141992.532939","142759.085563","143525.312632","144292.594278","145059.669708","148884.077525"
"Mixed","both","done","44","F_priest.wav","space","685.710372403","308","138943.058403","145808.73818","146575.697981","147342.268846","148108.806631","148875.170352","149641.949907","150409.039868","139692.660193","140458.961772","141225.8517","141992.532939","142759.085563","143525.312632","144292.594278","145059.669708","149651.436463"
"Mixed","both","ball","11","F_dime.wav","None","722.39054786","308","153525.888306","145808.73818","146575.697981","147342.268846","148108.806631","148875.170352","149641.949907","150409.039868","139692.660193","140458.961772","141225.8517","141992.532939","142759.085563","143525.312632","144292.594278","145059.669708","150418.400901"
"Mixed","both","ball","11","F_dime.wav","None","719.922448043","308","153525.888306","145808.73818","146575.697981","147342.268846","148108.806631","148875.170352","149641.949907","150409.039868","154275.284188","140458.961772","141225.8517","141992.532939","142759.085563","143525.312632","144292.594278","145059.669708","153535.582314"
"Mixed","both","ball","11","M_ball.wav","None","735.841893125","308","153525.888306","145808.73818","146575.697981","147342.268846","148108.806631","148875.170352","149641.949907","150409.039868","154275.284188","155041.655021","141225.8517","141992.532939","142759.085563","143525.312632","144292.594278","145059.669708","154284.546288"
"Mixed","both","ball","11","M_priest.wav","space","518.192459363","308","153525.888306","145808.73818","146575.697981","147342.268846","148108.806631","148875.170352","149641.949907","150409.039868","154275.284188","155041.655021","155808.608329","141992.532939","142759.085563","143525.312632","144292.594278","145059.669708","155050.791907"
"Mixed","both","ball","11","M_ball.wav","None","730.994424783","308","153525.888306","145808.73818","146575.697981","147342.268846","148108.806631","148875.170352","149641.949907","150409.039868","154275.284188","155041.655021","155808.608329","156575.436733","142759.085563","143525.312632","144292.594278","145059.669708","155818.132913"
"Mixed","both","ball","11","M_jolt.wav","space","583.926835563","308","153525.888306","145808.73818","146575.697981","147342.268846","148108.806631","148875.170352","149641.949907","150409.039868","154275.284188","155041.655021","155808.608329","156575.436733","157341.976681","143525.312632","144292.594278","145059.669708","156584.990378"
"Mixed","both","ball","11","F_ball.wav","None","726.992535405","308","153525.888306","145808.73818","146575.697981","147342.268846","148108.806631","148875.170352","149641.949907","150409.039868","154275.284188","155041.655021","155808.608329","156575.436733","157341.976681","158108.158302","144292.594278","145059.669708","157351.099963"
"Mixed","both","ball","11","M_dime.wav","space","523.971763905","308","153525.888306","145808.73818","146575.697981","147342.268846","148108.806631","148875.170352","149641.949907","150409.039868","154275.284188","155041.655021","155808.608329","156575.436733","157341.976681","158108.158302","158875.894118","145059.669708","158116.884301"
"Mixed","both","ball","11","F_cling.wav","None","721.63493745","308","153525.888306","145808.73818","146575.697981","147342.268846","148108.806631","148875.170352","149641.949907","150409.039868","154275.284188","155041.655021","155808.608329","156575.436733","157341.976681","158108.158302","158875.894118","159642.275153","158885.068722"
"Mixed","both","ball","11","F_priest.wav","None","719.528256916","308","153525.888306","160391.780791","146575.697981","147342.268846","148108.806631","148875.170352","149641.949907","150409.039868","154275.284188","155041.655021","155808.608329","156575.436733","157341.976681","158108.158302","158875.894118","159642.275153","159652.057894"
"Mixed","both","ball","11","F_ball.wav","None","735.265600961","308","153525.888306","160391.780791","161158.345473","147342.268846","148108.806631","148875.170352","149641.949907","150409.039868","154275.284188","155041.655021","155808.608329","156575.436733","157341.976681","158108.158302","158875.894118","159642.275153","160401.317433"
"Mixed","both","ball","11","M_romp.wav","space","537.44475171","308","153525.888306","160391.780791","161158.345473","161925.273738","148108.806631","148875.170352","149641.949907","150409.039868","154275.284188","155041.655021","155808.608329","156575.436733","157341.976681","158108.158302","158875.894118","159642.275153","161167.367038"
"Mixed","both","ball","11","F_dime.wav","None","731.717572082","308","153525.888306","160391.780791","161158.345473","161925.273738","162691.818015","148875.170352","149641.949907","150409.039868","154275.284188","155041.655021","155808.608329","156575.436733","157341.976681","158108.158302","158875.894118","159642.275153","161934.725668"
"Mixed","both","ball","11","M_romp.wav","None","730.493261479","308","153525.888306","160391.780791","161158.345473","161925.273738","162691.818015","163458.001182","149641.949907","150409.039868","154275.284188","155041.655021","155808.608329","156575.436733","157341.976681","158108.158302","158875.894118","159642.275153","162700.842672"
"Mixed","both","ball","11","F_greet.wav","None","729.414568748","308","153525.888306","160391.780791","161158.345473","161925.273738","162691.818015","163458.001182","164224.899149","150409.039868","154275.284188","155041.655021","155808.608329","156575.436733","157341.976681","158108.158302","158875.894118","159642.275153","163466.942054"
"Mixed","both","ball","11","M_romp.wav","None","727.567281574","308","153525.888306","160391.780791","161158.345473","161925.273738","162691.818015","163458.001182","164224.899149","164991.76558","154275.284188","155041.655021","155808.608329","156575.436733","157341.976681","158108.158302","158875.894118","159642.275153","164233.711715"
"Mixed","both","ball","2","M_romp.wav","None","724.772080313","308","168125.585567","160391.780791","161158.345473","161925.273738","162691.818015","163458.001182","164224.899149","164991.76558","154275.284188","155041.655021","155808.608329","156575.436733","157341.976681","158108.158302","158875.894118","159642.275153","165001.423725"
"Mixed","both","ball","2","F_ball.wav","None","720.199463889","308","168125.585567","160391.780791","161158.345473","161925.273738","162691.818015","163458.001182","164224.899149","164991.76558","168874.752046","155041.655021","155808.608329","156575.436733","157341.976681","158108.158302","158875.894118","159642.275153","168135.630483"
"Mixed","both","ball","2","F_dime.wav","space","468.917956576","308","168125.585567","160391.780791","161158.345473","161925.273738","162691.818015","163458.001182","164224.899149","164991.76558","168874.752046","169641.620332","155808.608329","156575.436733","157341.976681","158108.158302","158875.894118","159642.275153","168883.634176"
"Mixed","both","ball","2","F_ball.wav","None","733.404710423","308","168125.585567","160391.780791","161158.345473","161925.273738","162691.818015","163458.001182","164224.899149","164991.76558","168874.752046","169641.620332","170408.187178","156575.436733","157341.976681","158108.158302","158875.894118","159642.275153","169650.940864"
"Mixed","both","ball","2","F_bluff.wav","space","550.855595618","308","168125.585567","160391.780791","161158.345473","161925.273738","162691.818015","163458.001182","164224.899149","164991.76558","168874.752046","169641.620332","170408.187178","171174.98281","157341.976681","158108.158302","158875.894118","159642.275153","170417.66786"
"Mixed","both","ball","2","M_cling.wav","None","728.732541203","308","168125.585567","160391.780791","161158.345473","161925.273738","162691.818015","163458.001182","164224.899149","164991.76558","168874.752046","169641.620332","170408.187178","171174.98281","171941.528942","158108.158302","158875.894118","159642.275153","171184.663215"
"Mixed","both","ball","2","F_bluff.wav","None","727.293357253","308","168125.585567","160391.780791","161158.345473","161925.273738","162691.818015","163458.001182","164224.899149","164991.76558","168874.752046","169641.620332","170408.187178","171174.98281","171941.528942","172707.853399","158875.894118","159642.275153","171951.056617"
"Mixed","both","ball","2","F_depth.wav","None","725.957436021","308","168125.585567","160391.780791","161158.345473","161925.273738","162691.818015","163458.001182","164224.899149","164991.76558","168874.752046","169641.620332","170408.187178","171174.98281","171941.528942","172707.853399","173475.466475","159642.275153","172716.925977"
"Mixed","both","ball","2","M_ball.wav","None","722.793086432","308","168125.585567","160391.780791","161158.345473","161925.273738","162691.818015","163458.001182","164224.899149","164991.76558","168874.752046","169641.620332","170408.187178","171174.98281","171941.528942","172707.853399","173475.466475","174241.22577","173485.117818"
"Mixed","both","ball","2","M_lash.wav","space","510.021728463","308","168125.585567","175007.77654","161158.345473","161925.273738","162691.818015","163458.001182","164224.899149","164991.76558","168874.752046","169641.620332","170408.187178","171174.98281","171941.528942","172707.853399","173475.466475","174241.22577","174250.371621"
"Mixed","both","ball","2","M_ball.wav","None","720.154015813","308","168125.585567","175007.77654","175757.523639","161925.273738","162691.818015","163458.001182","164224.899149","164991.76558","168874.752046","169641.620332","170408.187178","171174.98281","171941.528942","172707.853399","173475.466475","174241.22577","175016.670727"
"Mixed","both","ball","2","M_knife.wav","space","553.916991688","308","168125.585567","175007.77654","175757.523639","176524.813632","162691.818015","163458.001182","164224.899149","164991.76558","168874.752046","169641.620332","170408.187178","171174.98281","171941.528942","172707.853399","173475.466475","174241.22577","175766.436377"
"Mixed","both","ball","2","M_dime.wav","None","731.409021188","308","168125.585567","175007.77654","175757.523639","176524.813632","177291.382025","163458.001182","164224.899149","164991.76558","168874.752046","169641.620332","170408.187178","171174.98281","171941.528942","172707.853399","173475.466475","174241.22577","176534.151169"
"Mixed","both","ball","2","M_greet.wav","None","730.01652211","308","168125.585567","175007.77654","175757.523639","176524.813632","177291.382025","178057.839425","164224.899149","164991.76558","168874.752046","169641.620332","170408.187178","171174.98281","171941.528942","172707.853399","173475.466475","174241.22577","177300.713068"
"Mixed","both","ball","2","F_jaw.wav","None","728.243126068","308","168125.585567","175007.77654","175757.523639","176524.813632","177291.382025","178057.839425","178824.487582","164991.76558","168874.752046","169641.620332","170408.187178","171174.98281","171941.528942","172707.853399","173475.466475","174241.22577","178067.504681"
"Mixed","both","ball","2","F_depth.wav","None","727.883871179","308","168125.585567","175007.77654","175757.523639","176524.813632","177291.382025","178057.839425","178824.487582","179591.065249","168874.752046","169641.620332","170408.187178","171174.98281","171941.528942","172707.853399","173475.466475","174241.22577","178833.717837"
"Mixed","both","cave","16","M_park.wav","None","726.674709003","308","182724.918008","175007.77654","175757.523639","176524.813632","177291.382025","178057.839425","178824.487582","179591.065249","168874.752046","169641.620332","170408.187178","171174.98281","171941.528942","172707.853399","173475.466475","174241.22577","179600.049096"
"Mixed","both","cave","16","M_cave.wav","None","721.082451753","308","182724.918008","175007.77654","175757.523639","176524.813632","177291.382025","178057.839425","178824.487582","179591.065249","183491.232881","169641.620332","170408.187178","171174.98281","171941.528942","172707.853399","173475.466475","174241.22577","182734.671068"
"Mixed","both","cave","16","F_cling.wav","space","627.891662065","308","182724.918008","175007.77654","175757.523639","176524.813632","177291.382025","178057.839425","178824.487582","179591.065249","183491.232881","184257.461496","170408.187178","171174.98281","171941.528942","172707.853399","173475.466475","174241.22577","183500.186738"
"Mixed","both","cave","16","F_park.wav","None","720.524091739","308","182724.918008","175007.77654","175757.523639","176524.813632","177291.382025","178057.839425","178824.487582","179591.065249","183491.232881","184257.461496","185007.359779","171174.98281","171941.528942","172707.853399","173475.466475","174241.22577","184266.302197"
"Mixed","both","cave","16","F_depth.wav","None","735.70647696","308","182724.918008","175007.77654","175757.523639","176524.813632","177291.382025","178057.839425","178824.487582","179591.065249","183491.232881","184257.461496","185007.359779","185774.276915","171941.528942","172707.853399","173475.466475","174241.22577","185016.01065"
"Mixed","both","cave","16","F_cave.wav","None","732.643534895","308","182724.918008","175007.77654","175757.523639","176524.813632","177291.382025","178057.839425","178824.487582","179591.065249","183491.232881","184257.461496","185007.359779","185774.276915","186541.117994","172707.853399","173475.466475","174241.22577","185783.597137"
"Mixed","both","cave","16","F_cad.wav","space","521.811906248","308","182724.918008","175007.77654","175757.523639","176524.813632","177291.382025","178057.839425","178824.487582","179591.065249","183491.232881","184257.461496","185007.359779","185774.276915","186541.117994","187307.678038","173475.466475","174241.22577","186550.225817"
"Mixed","both","cave","16","M_cling.wav","None","727.629733738","308","182724.918008","175007.77654","175757.523639","176524.813632","177291.382025","178057.839425","178824.487582","179591.065249","183491.232881","184257.461496","185007.359779","185774.276915","186541.117994","187307.678038","188074.407508","174241.22577","187317.300938"
"Mixed","both","cave","16","M_romp.wav","None","726.187767461","308","182724.918008","175007.77654","175757.523639","176524.813632","177291.382025","178057.839425","178824.487582","179591.065249","183491.232881","184257.461496","185007.359779","185774.276915","186541.117994","187307.678038","188074.407508","188840.638905","188083.832539"
"Mixed","both","cave","16","M_cad.wav","None","725.300450809","308","182724.918008","189607.214717","175757.523639","176524.813632","177291.382025","178057.839425","178824.487582","179591.065249","183491.232881","184257.461496","185007.359779","185774.276915","186541.117994","187307.678038","188074.407508","188840.638905","188849.66047"
"Mixed","both","cave","16","F_romp.wav","None","730.852515902","308","182724.918008","189607.214717","190374.876023","176524.813632","177291.382025","178057.839425","178824.487582","179591.065249","183491.232881","184257.461496","185007.359779","185774.276915","186541.117994","187307.678038","188074.407508","188840.638905","189610.547255"
"Mixed","both","cave","16","F_cave.wav","None","722.306453623","308","182724.918008","189607.214717","190374.876023","191140.788048","177291.382025","178057.839425","178824.487582","179591.065249","183491.232881","184257.461496","185007.359779","185774.276915","186541.117994","187307.678038","188074.407508","188840.638905","190384.234274"
"Mixed","both","cave","16","F_knife.wav","space","458.201833535","308","182724.918008","189607.214717","190374.876023","191140.788048","191890.795159","178057.839425","178824.487582","179591.065249","183491.232881","184257.461496","185007.359779","185774.276915","186541.117994","187307.678038","188074.407508","188840.638905","191149.700786"
"Mixed","both","cave","16","M_cave.wav","None","734.573679976","308","182724.918008","189607.214717","190374.876023","191140.788048","191890.795159","192657.754341","178824.487582","179591.065249","183491.232881","184257.461496","185007.359779","185774.276915","186541.117994","187307.678038","188074.407508","188840.638905","191900.412803"
"Mixed","both","cave","16","M_cad.wav","space","556.904496159","308","182724.918008","189607.214717","190374.876023","191140.788048","191890.795159","192657.754341","193424.235238","179591.065249","183491.232881","184257.461496","185007.359779","185774.276915","186541.117994","187307.678038","188074.407508","188840.638905","192666.955534"
"Mixed","both","cave","16","M_depth.wav","None","730.971237645","308","182724.918008","189607.214717","190374.876023","191140.788048","191890.795159","192657.754341","193424.235238","194190.334311","183491.232881","184257.461496","185007.359779","185774.276915","186541.117994","187307.678038","188074.407508","188840.638905","193433.318019"
"Mixed","both","ball","8","F_depth.wav","None","730.032908265","308","197324.506132","189607.214717","190374.876023","191140.788048","191890.795159","192657.754341","193424.235238","194190.334311","183491.232881","184257.461496","185007.359779","185774.276915","186541.117994","187307.678038","188074.407508","188840.638905","194199.316921"
"Mixed","both","ball","8","M_ball.wav","None","720.77513719","308","197324.506132","189607.214717","190374.876023","191140.788048","191890.795159","192657.754341","193424.235238","194190.334311","198091.143779","184257.461496","185007.359779","185774.276915","186541.117994","187307.678038","188074.407508","188840.638905","197334.608245"
"Mixed","both","ball","8","F_jaw.wav","space","530.899943318","308","197324.506132","189607.214717","190374.876023","191140.788048","191890.795159","192657.754341","193424.235238","194190.334311","198091.143779","198840.67415","185007.359779","185774.276915","186541.117994","187307.678038","188074.407508","188840.638905","198100.808107"
"Mixed","both","ball","8","M_knife.wav","space","77.4899274111","308","197324.506132","189607.214717","190374.876023","191140.788048","191890.795159","192657.754341","193424.235238","194190.334311","198091.143779","198840.67415","199607.313033","185774.276915","186541.117994","187307.678038","188074.407508","188840.638905","198850.172454"
"Mixed","both","ball","8","M_park.wav","None","731.77538719","308","197324.506132","189607.214717","190374.876023","191140.788048","191890.795159","192657.754341","193424.235238","194190.334311","198091.143779","198840.67415","199607.313033","200374.112993","186541.117994","187307.678038","188074.407508","188840.638905","199616.858022"
"Mixed","both","ball","8","M_gnash.wav","None","730.363719631","308","197324.506132","189607.214717","190374.876023","191140.788048","191890.795159","192657.754341","193424.235238","194190.334311","198091.143779","198840.67415","199607.313033","200374.112993","201140.672419","187307.678038","188074.407508","188840.638905","200383.337373"
"Mixed","both","ball","8","M_romp.wav","None","729.285027366","308","197324.506132","189607.214717","190374.876023","191140.788048","191890.795159","192657.754341","193424.235238","194190.334311","198091.143779","198840.67415","199607.313033","200374.112993","201140.672419","201907.275129","188074.407508","188840.638905","201149.715316"
"Mixed","both","ball","8","M_gnash.wav","None","727.017269004","308","197324.506132","189607.214717","190374.876023","191140.788048","191890.795159","192657.754341","193424.235238","194190.334311","198091.143779","198840.67415","199607.313033","200374.112993","201140.672419","201907.275129","202673.894533","188840.638905","201916.742207"
"Mixed","both","ball","8","F_cad.wav","None","725.314054172","308","197324.506132","189607.214717","190374.876023","191140.788048","191890.795159","192657.754341","193424.235238","194190.334311","198091.143779","198840.67415","199607.313033","200374.112993","201140.672419","201907.275129","202673.894533","203441.10167","202683.76817"
"Mixed","both","ball","8","F_dime.wav","None","723.370614927","308","197324.506132","204207.177246","190374.876023","191140.788048","191890.795159","192657.754341","193424.235238","194190.334311","198091.143779","198840.67415","199607.313033","200374.112993","201140.672419","201907.275129","202673.894533","203441.10167","203450.962012"
"Mixed","both","ball","8","M_ball.wav","None","723.057426512","308","197324.506132","204207.177246","204973.695861","191140.788048","191890.795159","192657.754341","193424.235238","194190.334311","198091.143779","198840.67415","199607.313033","200374.112993","201140.672419","201907.275129","202673.894533","203441.10167","204215.983938"
"Mixed","both","ball","8","F_jaw.wav","space","496.754338965","308","197324.506132","204207.177246","204973.695861","205723.628462","191890.795159","192657.754341","193424.235238","194190.334311","198091.143779","198840.67415","199607.313033","200374.112993","201140.672419","201907.275129","202673.894533","203441.10167","204982.710934"
"Mixed","both","ball","8","F_ball.wav","None","734.368391801","308","197324.506132","204207.177246","204973.695861","205723.628462","206490.502623","192657.754341","193424.235238","194190.334311","198091.143779","198840.67415","199607.313033","200374.112993","201140.672419","201907.275129","202673.894533","203441.10167","205733.245488"
"Mixed","both","ball","8","M_priest.wav","space","587.703649886","308","197324.506132","204207.177246","204973.695861","205723.628462","206490.502623","207257.491176","193424.235238","194190.334311","198091.143779","198840.67415","199607.313033","200374.112993","201140.672419","201907.275129","202673.894533","203441.10167","206499.72824"
"Mixed","both","ball","8","F_ball.wav","None","730.139571708","308","197324.506132","204207.177246","204973.695861","205723.628462","206490.502623","207257.491176","208023.889834","194190.334311","198091.143779","198840.67415","199607.313033","200374.112993","201140.672419","201907.275129","202673.894533","203441.10167","207266.807689"
"Mixed","both","ball","8","F_jolt.wav","space","590.55140987","308","197324.506132","204207.177246","204973.695861","205723.628462","206490.502623","207257.491176","208023.889834","208790.426691","198091.143779","198840.67415","199607.313033","200374.112993","201140.672419","201907.275129","202673.894533","203441.10167","208032.833179"
"Mixed","both","tile","33","F_cling.wav","None","725.727414247","308","211924.138159","204207.177246","204973.695861","205723.628462","206490.502623","207257.491176","208023.889834","208790.426691","198091.143779","198840.67415","199607.313033","200374.112993","201140.672419","201907.275129","202673.894533","203441.10167","208799.837191"
"Mixed","both","tile","33","M_lash.wav","None","721.026801504","308","211924.138159","204207.177246","204973.695861","205723.628462","206490.502623","207257.491176","208023.889834","208790.426691","212690.687383","198840.67415","199607.313033","200374.112993","201140.672419","201907.275129","202673.894533","203441.10167","211934.021998"
"Mixed","both","tile","33","M_tile.wav","None","719.97253364","308","211924.138159","204207.177246","204973.695861","205723.628462","206490.502623","207257.491176","208023.889834","208790.426691","212690.687383","213457.251756","199607.313033","200374.112993","201140.672419","201907.275129","202673.894533","203441.10167","212700.458684"
"Mixed","both","tile","33","M_romp.wav","space","580.095298123","308","211924.138159","204207.177246","204973.695861","205723.628462","206490.502623","207257.491176","208023.889834","208790.426691","212690.687383","213457.251756","214206.755229","200374.112993","201140.672419","201907.275129","202673.894533","203441.10167","213467.069432"
"Mixed","both","tile","33","M_tile.wav","None","733.606597874","308","211924.138159","204207.177246","204973.695861","205723.628462","206490.502623","207257.491176","208023.889834","208790.426691","212690.687383","213457.251756","214206.755229","214973.103493","201140.672419","201907.275129","202673.894533","203441.10167","214216.370709"
"Mixed","both","tile","33","F_dime.wav","space","592.938816641","308","211924.138159","204207.177246","204973.695861","205723.628462","206490.502623","207257.491176","208023.889834","208790.426691","212690.687383","213457.251756","214206.755229","214973.103493","215740.23921","201907.275129","202673.894533","203441.10167","214982.214717"
"Mixed","both","tile","33","F_park.wav","None","729.932118673","308","211924.138159","204207.177246","204973.695861","205723.628462","206490.502623","207257.491176","208023.889834","208790.426691","212690.687383","213457.251756","214206.755229","214973.103493","215740.23921","216506.393006","202673.894533","203441.10167","215749.641364"
"Mixed","both","tile","33","F_dime.wav","None","729.120548815","308","211924.138159","204207.177246","204973.695861","205723.628462","206490.502623","207257.491176","208023.889834","208790.426691","212690.687383","213457.251756","214206.755229","214973.103493","215740.23921","216506.393006","217273.571699","203441.10167","216515.351192"
"Mixed","both","tile","33","F_tile.wav","None","726.631116588","308","211924.138159","204207.177246","204973.695861","205723.628462","206490.502623","207257.491176","208023.889834","208790.426691","212690.687383","213457.251756","214206.755229","214973.103493","215740.23921","216506.393006","217273.571699","218040.104227","217282.987455"
"Mixed","both","tile","33","M_greet.wav","space","653.308793437","308","211924.138159","218806.972204","204973.695861","205723.628462","206490.502623","207257.491176","208023.889834","208790.426691","212690.687383","213457.251756","214206.755229","214973.103493","215740.23921","216506.393006","217273.571699","218040.104227","218049.77443"
"Mixed","both","tile","33","M_dime.wav","None","722.473714501","308","211924.138159","218806.972204","219573.951174","205723.628462","206490.502623","207257.491176","208023.889834","208790.426691","212690.687383","213457.251756","214206.755229","214973.103493","215740.23921","216506.393006","217273.571699","218040.104227","218816.531106"
"Mixed","both","tile","33","M_gnash.wav","None","720.600147732","308","211924.138159","218806.972204","219573.951174","220340.472262","206490.502623","207257.491176","208023.889834","208790.426691","212690.687383","213457.251756","214206.755229","214973.103493","215740.23921","216506.393006","217273.571699","218040.104227","219583.502964"
"Mixed","both","tile","33","F_tile.wav","None","718.875290826","308","211924.138159","218806.972204","219573.951174","220340.472262","221089.589584","207257.491176","208023.889834","208790.426691","212690.687383","213457.251756","214206.755229","214973.103493","215740.23921","216506.393006","217273.571699","218040.104227","220350.304161"
"Mixed","both","tile","33","F_depth.wav","space","555.533329491","308","211924.138159","218806.972204","219573.951174","220340.472262","221089.589584","221856.537636","208023.889834","208790.426691","212690.687383","213457.251756","214206.755229","214973.103493","215740.23921","216506.393006","217273.571699","218040.104227","221099.446834"
"Mixed","both","tile","33","M_depth.wav","None","732.357862405","308","211924.138159","218806.972204","219573.951174","220340.472262","221089.589584","221856.537636","222623.351199","208790.426691","212690.687383","213457.251756","214206.755229","214973.103493","215740.23921","216506.393006","217273.571699","218040.104227","221865.910417"
"Mixed","both","tile","33","F_cad.wav","None","730.739978608","308","211924.138159","218806.972204","219573.951174","220340.472262","221089.589584","221856.537636","222623.351199","223390.001212","212690.687383","213457.251756","214206.755229","214973.103493","215740.23921","216506.393006","217273.571699","218040.104227","222632.788597"
"Mixed","both","cave","21","M_dime.wav","None","729.515049141","308","226523.670014","218806.972204","219573.951174","220340.472262","221089.589584","221856.537636","222623.351199","223390.001212","212690.687383","213457.251756","214206.755229","214973.103493","215740.23921","216506.393006","217273.571699","218040.104227","223399.371829"
"Mixed","both","cave","21","F_cave.wav","None","720.957547426","308","226523.670014","218806.972204","219573.951174","220340.472262","221089.589584","221856.537636","222623.351199","223390.001212","227289.629034","213457.251756","214206.755229","214973.103493","215740.23921","216506.393006","217273.571699","218040.104227","226533.487073"
"Mixed","both","cave","21","M_dime.wav","space","548.243113793","308","226523.670014","218806.972204","219573.951174","220340.472262","221089.589584","221856.537636","222623.351199","223390.001212","227289.629034","228039.834013","214206.755229","214973.103493","215740.23921","216506.393006","217273.571699","218040.104227","227298.573615"
"Mixed","both","cave","21","M_park.wav","None","734.141461086","308","226523.670014","218806.972204","219573.951174","220340.472262","221089.589584","221856.537636","222623.351199","223390.001212","227289.629034","228039.834013","228806.080869","214973.103493","215740.23921","216506.393006","217273.571699","218040.104227","228049.27945"
"Mixed","both","cave","21","M_cave.wav","None","733.865682036","308","226523.670014","218806.972204","219573.951174","220340.472262","221089.589584","221856.537636","222623.351199","223390.001212","227289.629034","228039.834013","228806.080869","229572.832289","215740.23921","216506.393006","217273.571699","218040.104227","228815.001335"
"Mixed","both","cave","21","F_romp.wav","space","553.140976466","308","226523.670014","218806.972204","219573.951174","220340.472262","221089.589584","221856.537636","222623.351199","223390.001212","227289.629034","228039.834013","228806.080869","229572.832289","230339.779414","216506.393006","217273.571699","218040.104227","229581.611156"
"Mixed","both","cave","21","F_jaw.wav","None","729.383652098","308","226523.670014","218806.972204","219573.951174","220340.472262","221089.589584","221856.537636","222623.351199","223390.001212","227289.629034","228039.834013","228806.080869","229572.832289","230339.779414","231106.385524","217273.571699","218040.104227","230348.822311"
"Mixed","both","cave","21","F_knife.wav","None","727.435266133","308","226523.670014","218806.972204","219573.951174","220340.472262","221089.589584","221856.537636","222623.351199","223390.001212","227289.629034","228039.834013","228806.080869","229572.832289","230339.779414","231106.385524","231873.156113","218040.104227","231116.1627"
"Mixed","both","cave","21","F_gnash.wav","None","726.296594832","308","226523.670014","218806.972204","219573.951174","220340.472262","221089.589584","221856.537636","222623.351199","223390.001212","227289.629034","228039.834013","228806.080869","229572.832289","230339.779414","231106.385524","231873.156113","232639.701318","231882.331645"
"Mixed","both","cave","21","M_cling.wav","None","725.000865757","308","226523.670014","233406.858986","219573.951174","220340.472262","221089.589584","221856.537636","222623.351199","223390.001212","227289.629034","228039.834013","228806.080869","229572.832289","230339.779414","231106.385524","231873.156113","232639.701318","232648.904983"
"Mixed","both","cave","21","M_cave.wav","None","722.151559778","308","226523.670014","233406.858986","234173.730055","220340.472262","221089.589584","221856.537636","222623.351199","223390.001212","227289.629034","228039.834013","228806.080869","229572.832289","230339.779414","231106.385524","231873.156113","232639.701318","233416.657804"
"Mixed","both","cave","21","F_depth.wav","space","559.465656057","308","226523.670014","233406.858986","234173.730055","234939.352389","221089.589584","221856.537636","222623.351199","223390.001212","227289.629034","228039.834013","228806.080869","229572.832289","230339.779414","231106.385524","231873.156113","232639.701318","234183.124788"
"Mixed","both","cave","21","F_cave.wav","None","719.914100599","308","226523.670014","233406.858986","234173.730055","234939.352389","235689.029616","221856.537636","222623.351199","223390.001212","227289.629034","228039.834013","228806.080869","229572.832289","230339.779414","231106.385524","231873.156113","232639.701318","234948.622835"
"Mixed","both","cave","21","M_cling.wav","space","628.867401276","308","226523.670014","233406.858986","234173.730055","234939.352389","235689.029616","236456.04383","222623.351199","223390.001212","227289.629034","228039.834013","228806.080869","229572.832289","230339.779414","231106.385524","231873.156113","232639.701318","235697.683578"
"Mixed","both","cave","21","M_knife.wav","None","733.049783856","308","226523.670014","233406.858986","234173.730055","234939.352389","235689.029616","236456.04383","237223.024963","223390.001212","227289.629034","228039.834013","228806.080869","229572.832289","230339.779414","231106.385524","231873.156113","232639.701318","236465.051174"
"Mixed","both","cave","21","F_reek.wav","None","731.135096867","308","226523.670014","233406.858986","234173.730055","234939.352389","235689.029616","236456.04383","237223.024963","237989.62891","227289.629034","228039.834013","228806.080869","229572.832289","230339.779414","231106.385524","231873.156113","232639.701318","237232.242233"
"Mixed","both","tile","36","M_cad.wav","None","728.989152238","308","241123.203107","233406.858986","234173.730055","234939.352389","235689.029616","236456.04383","237223.024963","237989.62891","227289.629034","228039.834013","228806.080869","229572.832289","230339.779414","231106.385524","231873.156113","232639.701318","237999.389699"
"Mixed","both","tile","36","F_lash.wav","None","721.032057423","308","241123.203107","233406.858986","234173.730055","234939.352389","235689.029616","236456.04383","237223.024963","237989.62891","241889.813546","228039.834013","228806.080869","229572.832289","230339.779414","231106.385524","231873.156113","232639.701318","241132.92896"
"Mixed","both","tile","36","F_jolt.wav","None","719.538768753","308","241123.203107","233406.858986","234173.730055","234939.352389","235689.029616","236456.04383","237223.024963","237989.62891","241889.813546","242639.556936","228806.080869","229572.832289","230339.779414","231106.385524","231873.156113","232639.701318","241899.67327"
"Mixed","both","tile","36","F_romp.wav","None","736.028940883","308","241123.203107","233406.858986","234173.730055","234939.352389","235689.029616","236456.04383","237223.024963","237989.62891","241889.813546","242639.556936","243405.664355","229572.832289","230339.779414","231106.385524","231873.156113","232639.701318","242648.871284"
"Mixed","both","tile","36","M_tile.wav","None","735.334855039","308","241123.203107","233406.858986","234173.730055","234939.352389","235689.029616","236456.04383","237223.024963","237989.62891","241889.813546","242639.556936","243405.664355","244172.610553","230339.779414","231106.385524","231873.156113","232639.701318","243414.910996"
"Mixed","both","tile","36","M_bluff.wav","space","503.842358012","308","241123.203107","233406.858986","234173.730055","234939.352389","235689.029616","236456.04383","237223.024963","237989.62891","241889.813546","242639.556936","243405.664355","244172.610553","244939.282516","231106.385524","231873.156113","232639.701318","244182.460692"
"Mixed","both","tile","36","F_knife.wav","None","731.089030858","308","241123.203107","233406.858986","234173.730055","234939.352389","235689.029616","236456.04383","237223.024963","237989.62891","241889.813546","242639.556936","243405.664355","244172.610553","244939.282516","245705.9248","231873.156113","232639.701318","244948.712495"
"Mixed","both","tile","36","F_tile.wav","None","730.07186316","308","241123.203107","233406.858986","234173.730055","234939.352389","235689.029616","236456.04383","237223.024963","237989.62891","241889.813546","242639.556936","243405.664355","244172.610553","244939.282516","245705.9248","246472.67653","232639.701318","245715.401154"
"Mixed","both","tile","36","F_bluff.wav","space","580.49289044","308","241123.203107","233406.858986","234173.730055","234939.352389","235689.029616","236456.04383","237223.024963","237989.62891","241889.813546","242639.556936","243405.664355","244172.610553","244939.282516","245705.9248","246472.67653","247239.364261","246481.734577"
"Mixed","both","tile","36","F_tile.wav","None","726.653067395","308","241123.203107","248005.652855","234173.730055","234939.352389","235689.029616","236456.04383","237223.024963","237989.62891","241889.813546","242639.556936","243405.664355","244172.610553","244939.282516","245705.9248","246472.67653","247239.364261","247248.84216"
"Mixed","both","tile","36","M_cad.wav","space","599.796195049","308","241123.203107","248005.652855","248773.248617","234939.352389","235689.029616","236456.04383","237223.024963","237989.62891","241889.813546","242639.556936","243405.664355","244172.610553","244939.282516","245705.9248","246472.67653","247239.364261","248014.435432"
"Mixed","both","tile","36","M_jolt.wav","None","723.701426759","308","241123.203107","248005.652855","248773.248617","249540.314463","235689.029616","236456.04383","237223.024963","237989.62891","241889.813546","242639.556936","243405.664355","244172.610553","244939.282516","245705.9248","246472.67653","247239.364261","248782.749085"
"Mixed","both","tile","36","F_cling.wav","None","721.935450099","308","241123.203107","248005.652855","248773.248617","249540.314463","250306.044078","236456.04383","237223.024963","237989.62891","241889.813546","242639.556936","243405.664355","244172.610553","244939.282516","245705.9248","246472.67653","247239.364261","249550.112043"
"Mixed","both","tile","36","M_depth.wav","None","721.555481199","308","241123.203107","248005.652855","248773.248617","249540.314463","250306.044078","251072.517863","237223.024963","237989.62891","241889.813546","242639.556936","243405.664355","244172.610553","244939.282516","245705.9248","246472.67653","247239.364261","250315.957597"
"Mixed","both","tile","36","M_tile.wav","None","720.740201417","308","241123.203107","248005.652855","248773.248617","249540.314463","250306.044078","251072.517863","251839.39728","237989.62891","241889.813546","242639.556936","243405.664355","244172.610553","244939.282516","245705.9248","246472.67653","247239.364261","251082.254847"
"Mixed","both","tile","36","M_romp.wav","space","540.825519711","308","241123.203107","248005.652855","248773.248617","249540.314463","250306.044078","251072.517863","251839.39728","252589.025968","241889.813546","242639.556936","243405.664355","244172.610553","244939.282516","245705.9248","246472.67653","247239.364261","251849.215266"
"Mixed","both","done","39","M_jaw.wav","None","734.290481079","308","255722.431976","248005.652855","248773.248617","249540.314463","250306.044078","251072.517863","251839.39728","252589.025968","241889.813546","242639.556936","243405.664355","244172.610553","244939.282516","245705.9248","246472.67653","247239.364261","252598.335369"
"Mixed","both","done","39","M_gnash.wav","None","722.430430818","308","255722.431976","248005.652855","248773.248617","249540.314463","250306.044078","251072.517863","251839.39728","252589.025968","256489.530903","242639.556936","243405.664355","244172.610553","244939.282516","245705.9248","246472.67653","247239.364261","255731.175907"
"Mixed","both","done","39","F_done.wav","None","718.449873384","308","255722.431976","248005.652855","248773.248617","249540.314463","250306.044078","251072.517863","251839.39728","252589.025968","256489.530903","257239.043961","243405.664355","244172.610553","244939.282516","245705.9248","246472.67653","247239.364261","256500.073273"
"Mixed","both","done","39","F_knife.wav","space","429.575213231","308","255722.431976","248005.652855","248773.248617","249540.314463","250306.044078","251072.517863","251839.39728","252589.025968","256489.530903","257239.043961","258005.400881","244172.610553","244939.282516","245705.9248","246472.67653","247239.364261","257248.37315"
"Mixed","both","done","39","F_park.wav","None","733.413057867","308","255722.431976","248005.652855","248773.248617","249540.314463","250306.044078","251072.517863","251839.39728","252589.025968","256489.530903","257239.043961","258005.400881","258771.812525","244939.282516","245705.9248","246472.67653","247239.364261","258014.732234"
"Mixed","both","done","39","M_done.wav","None","733.180253301","308","255722.431976","248005.652855","248773.248617","249540.314463","250306.044078","251072.517863","251839.39728","252589.025968","256489.530903","257239.043961","258005.400881","258771.812525","259538.421108","245705.9248","246472.67653","247239.364261","258780.68507"
"Mixed","both","done","39","M_dime.wav","space","578.649621923","308","255722.431976","248005.652855","248773.248617","249540.314463","250306.044078","251072.517863","251839.39728","252589.025968","256489.530903","257239.043961","258005.400881","258771.812525","259538.421108","260305.092145","246472.67653","247239.364261","259547.212342"
"Mixed","both","done","39","F_romp.wav","None","729.404675309","308","255722.431976","248005.652855","248773.248617","249540.314463","250306.044078","251072.517863","251839.39728","252589.025968","256489.530903","257239.043961","258005.400881","258771.812525","259538.421108","260305.092145","261072.287223","247239.364261","260314.225629"
"Mixed","both","done","39","F_done.wav","None","727.125787642","308","255722.431976","248005.652855","248773.248617","249540.314463","250306.044078","251072.517863","251839.39728","252589.025968","256489.530903","257239.043961","258005.400881","258771.812525","259538.421108","260305.092145","261072.287223","261838.834901","261081.902703"
"Mixed","both","done","39","F_jolt.wav","space","493.505585939","308","255722.431976","262605.67598","248773.248617","249540.314463","250306.044078","251072.517863","251839.39728","252589.025968","256489.530903","257239.043961","258005.400881","258771.812525","259538.421108","260305.092145","261072.287223","261838.834901","261848.285284"
"Mixed","both","done","39","M_lash.wav","None","722.583778668","308","255722.431976","262605.67598","263372.609811","249540.314463","250306.044078","251072.517863","251839.39728","252589.025968","256489.530903","257239.043961","258005.400881","258771.812525","259538.421108","260305.092145","261072.287223","261838.834901","262615.154807"
"Mixed","both","done","39","M_done.wav","None","721.103475429","308","255722.431976","262605.67598","263372.609811","264139.078959","250306.044078","251072.517863","251839.39728","252589.025968","256489.530903","257239.043961","258005.400881","258771.812525","259538.421108","260305.092145","261072.287223","261838.834901","263382.32237"
"Mixed","both","done","39","F_bluff.wav","None","720.578196459","308","255722.431976","262605.67598","263372.609811","264139.078959","264905.315303","251072.517863","251839.39728","252589.025968","256489.530903","257239.043961","258005.400881","258771.812525","259538.421108","260305.092145","261072.287223","261838.834901","264148.277988"
"Mixed","both","done","39","M_depth.wav","space","51.4161195606","308","255722.431976","262605.67598","263372.609811","264139.078959","264905.315303","265655.44299","251839.39728","252589.025968","256489.530903","257239.043961","258005.400881","258771.812525","259538.421108","260305.092145","261072.287223","261838.834901","264914.309043"
"Mixed","both","done","39","M_priest.wav","None","733.935863245","308","255722.431976","262605.67598","263372.609811","264139.078959","264905.315303","265655.44299","266422.105679","252589.025968","256489.530903","257239.043961","258005.400881","258771.812525","259538.421108","260305.092145","261072.287223","261838.834901","265664.605537"
"Mixed","both","done","39","F_romp.wav","None","733.195711859","308","255722.431976","262605.67598","263372.609811","264139.078959","264905.315303","265655.44299","266422.105679","267188.646864","256489.530903","257239.043961","258005.400881","258771.812525","259538.421108","260305.092145","261072.287223","261838.834901","266431.02089"
"Mixed","both","tile","26","M_park.wav","None","732.379504479","308","270322.440262","262605.67598","263372.609811","264139.078959","264905.315303","265655.44299","266422.105679","267188.646864","256489.530903","257239.043961","258005.400881","258771.812525","259538.421108","260305.092145","261072.287223","261838.834901","267198.077769"
"Mixed","both","tile","26","M_knife.wav","None","720.972696319","308","270322.440262","262605.67598","263372.609811","264139.078959","264905.315303","265655.44299","266422.105679","267188.646864","271089.110062","257239.043961","258005.400881","258771.812525","259538.421108","260305.092145","261072.287223","261838.834901","270332.057906"
"Mixed","both","tile","26","F_jolt.wav","None","719.148905948","308","270322.440262","262605.67598","263372.609811","264139.078959","264905.315303","265655.44299","266422.105679","267188.646864","271089.110062","271855.445649","258005.400881","258771.812525","259538.421108","260305.092145","261072.287223","261838.834901","271099.561845"
"Mixed","both","tile","26","F_gnash.wav","None","719.18384172","308","270322.440262","262605.67598","263372.609811","264139.078959","264905.315303","265655.44299","266422.105679","267188.646864","271089.110062","271855.445649","272622.352891","258771.812525","259538.421108","260305.092145","261072.287223","261838.834901","271865.329179"
"Mixed","both","tile","26","M_tile.wav","None","719.05368194","308","270322.440262","262605.67598","263372.609811","264139.078959","264905.315303","265655.44299","266422.105679","267188.646864","271089.110062","271855.445649","272622.352891","273371.58986","259538.421108","260305.092145","261072.287223","261838.834901","272632.22931"
"Mixed","both","tile","26","M_gnash.wav","space","469.983354677","308","270322.440262","262605.67598","263372.609811","264139.078959","264905.315303","265655.44299","266422.105679","267188.646864","271089.110062","271855.445649","272622.352891","273371.58986","274138.486591","260305.092145","261072.287223","261838.834901","273375.444276"
"Mixed","both","tile","26","M_tile.wav","None","733.266511466","308","270322.440262","262605.67598","263372.609811","264139.078959","264905.315303","265655.44299","266422.105679","267188.646864","271089.110062","271855.445649","272622.352891","273371.58986","274138.486591","274905.164119","261072.287223","261838.834901","274147.39129"
"Mixed","both","tile","26","M_gnash.wav","space","554.299124982","308","270322.440262","262605.67598","263372.609811","264139.078959","264905.315303","265655.44299","266422.105679","267188.646864","271089.110062","271855.445649","272622.352891","273371.58986","274138.486591","274905.164119","275671.887405","261838.834901","274915.094952"
"Mixed","both","tile","26","F_tile.wav","None","729.252255056","308","270322.440262","262605.67598","263372.609811","264139.078959","264905.315303","265655.44299","266422.105679","267188.646864","271089.110062","271855.445649","272622.352891","273371.58986","274138.486591","274905.164119","275671.887405","276438.408804","275681.319857"
"Mixed","both","tile","26","M_jolt.wav","space","597.541422583","308","270322.440262","277204.973176","263372.609811","264139.078959","264905.315303","265655.44299","266422.105679","267188.646864","271089.110062","271855.445649","272622.352891","273371.58986","274138.486591","274905.164119","275671.887405","276438.408804","276447.8023"
"Mixed","both","tile","26","F_tile.wav","None","727.050968446","308","270322.440262","277204.973176","277971.813637","264139.078959","264905.315303","265655.44299","266422.105679","267188.646864","271089.110062","271855.445649","272622.352891","273371.58986","274138.486591","274905.164119","275671.887405","276438.408804","277214.41954"
"Mixed","both","tile","26","F_bluff.wav","space","591.716360766","308","270322.440262","277204.973176","277971.813637","278738.822287","264905.315303","265655.44299","266422.105679","267188.646864","271089.110062","271855.445649","272622.352891","273371.58986","274138.486591","274905.164119","275671.887405","276438.408804","277981.57319"
"Mixed","both","tile","26","F_romp.wav","None","723.039803561","308","270322.440262","277204.973176","277971.813637","278738.822287","279505.169623","265655.44299","266422.105679","267188.646864","271089.110062","271855.445649","272622.352891","273371.58986","274138.486591","274905.164119","275671.887405","276438.408804","278748.669335"
"Mixed","both","tile","26","F_romp.wav","None","722.670655232","308","270322.440262","277204.973176","277971.813637","278738.822287","279505.169623","280271.271478","266422.105679","267188.646864","271089.110062","271855.445649","272622.352891","273371.58986","274138.486591","274905.164119","275671.887405","276438.408804","279514.962566"
"Mixed","both","tile","26","M_romp.wav","None","723.718121648","308","270322.440262","277204.973176","277971.813637","278738.822287","279505.169623","280271.271478","281038.606919","267188.646864","271089.110062","271855.445649","272622.352891","273371.58986","274138.486591","274905.164119","275671.887405","276438.408804","280280.276348"
"Mixed","both","tile","26","F_lash.wav","None","720.915190876","308","270322.440262","277204.973176","277971.813637","278738.822287","279505.169623","280271.271478","281038.606919","281805.082561","271089.110062","271855.445649","272622.352891","273371.58986","274138.486591","274905.164119","275671.887405","276438.408804","281048.365854"
"Mixed","both","done","41","F_bluff.wav","None","720.487609506","308","284921.846286","277204.973176","277971.813637","278738.822287","279505.169623","280271.271478","281038.606919","281805.082561","271089.110062","271855.445649","272622.352891","273371.58986","274138.486591","274905.164119","275671.887405","276438.408804","281814.579628"
"Mixed","both","done","41","M_dime.wav","None","720.845009666","308","284921.846286","277204.973176","277971.813637","278738.822287","279505.169623","280271.271478","281038.606919","281805.082561","285688.78599","271855.445649","272622.352891","273371.58986","274138.486591","274905.164119","275671.887405","276438.408804","284931.829059"
"Mixed","both","done","41","F_done.wav","None","719.076560345","308","284921.846286","277204.973176","277971.813637","278738.822287","279505.169623","280271.271478","281038.606919","281805.082561","285688.78599","286454.431202","272622.352891","273371.58986","274138.486591","274905.164119","275671.887405","276438.408804","285699.103903"
"Mixed","both","done","41","F_lash.wav","space","597.657051869","308","284921.846286","277204.973176","277971.813637","278738.822287","279505.169623","280271.271478","281038.606919","281805.082561","285688.78599","286454.431202","287204.49149","273371.58986","274138.486591","274905.164119","275671.887405","276438.408804","286463.375784"
"Mixed","both","done","41","F_done.wav","None","734.744650312","308","284921.846286","277204.973176","277971.813637","278738.822287","279505.169623","280271.271478","281038.606919","281805.082561","285688.78599","286454.431202","287204.49149","287971.39193","274138.486591","274905.164119","275671.887405","276438.408804","287213.439164"
"Mixed","both","done","41","F_greet.wav","None","733.979146928","308","284921.846286","277204.973176","277971.813637","278738.822287","279505.169623","280271.271478","281038.606919","281805.082561","285688.78599","286454.431202","287204.49149","287971.39193","288738.003915","274905.164119","275671.887405","276438.408804","287980.451833"
"Mixed","both","done","41","M_jaw.wav","space","9.50386980549","308","284921.846286","277204.973176","277971.813637","278738.822287","279505.169623","280271.271478","281038.606919","281805.082561","285688.78599","286454.431202","287204.49149","287971.39193","288738.003915","289505.109334","275671.887405","276438.408804","288747.489544"
"Mixed","both","done","41","M_done.wav","None","729.015122168","308","284921.846286","277204.973176","277971.813637","278738.822287","279505.169623","280271.271478","281038.606919","281805.082561","285688.78599","286454.431202","287204.49149","287971.39193","288738.003915","289505.109334","290271.205316","276438.408804","289514.735017"
"Mixed","both","done","41","M_depth.wav","space","684.522852302","308","284921.846286","277204.973176","277971.813637","278738.822287","279505.169623","280271.271478","281038.606919","281805.082561","285688.78599","286454.431202","287204.49149","287971.39193","288738.003915","289505.109334","290271.205316","291037.986416","290280.419803"
"Mixed","both","done","41","F_depth.wav","None","725.548404735","308","284921.846286","291804.451546","277971.813637","278738.822287","279505.169623","280271.271478","281038.606919","281805.082561","285688.78599","286454.431202","287204.49149","287971.39193","288738.003915","289505.109334","290271.205316","291037.986416","291047.447311"
"Mixed","both","done","41","M_done.wav","None","725.081558805","308","284921.846286","291804.451546","292571.6593","278738.822287","279505.169623","280271.271478","281038.606919","281805.082561","285688.78599","286454.431202","287204.49149","287971.39193","288738.003915","289505.109334","290271.205316","291037.986416","291813.563079"
"Mixed","both","done","41","M_knife.wav","space","591.197574046","308","284921.846286","291804.451546","292571.6593","293337.538863","279505.169623","280271.271478","281038.606919","281805.082561","285688.78599","286454.431202","287204.49149","287971.39193","288738.003915","289505.109334","290271.205316","291037.986416","292581.676391"
"Mixed","both","done","41","M_depth.wav","None","721.823222004","308","284921.846286","291804.451546","292571.6593","293337.538863","294104.193822","280271.271478","281038.606919","281805.082561","285688.78599","286454.431202","287204.49149","287971.39193","288738.003915","289505.109334","290271.205316","291037.986416","293346.716249"
"Mixed","both","done","41","M_depth.wav","None","721.1260451","308","284921.846286","291804.451546","292571.6593","293337.538863","294104.193822","294871.547814","281038.606919","281805.082561","285688.78599","286454.431202","287204.49149","287971.39193","288738.003915","289505.109334","290271.205316","291037.986416","294113.298554"
"Mixed","both","done","41","F_depth.wav","None","718.636302743","308","284921.846286","291804.451546","292571.6593","293337.538863","294104.193822","294871.547814","295621.324284","281805.082561","285688.78599","286454.431202","287204.49149","287971.39193","288738.003915","289505.109334","290271.205316","291037.986416","294881.609425"
"Mixed","both","done","41","F_dime.wav","None","735.201912466","308","284921.846286","291804.451546","292571.6593","293337.538863","294104.193822","294871.547814","295621.324284","296387.613187","285688.78599","286454.431202","287204.49149","287971.39193","288738.003915","289505.109334","290271.205316","291037.986416","295630.938218"
"Mixed","both","done","45","M_cad.wav","None","727.772261016","308","299521.163268","291804.451546","292571.6593","293337.538863","294104.193822","294871.547814","295621.324284","296387.613187","285688.78599","286454.431202","287204.49149","287971.39193","288738.003915","289505.109334","290271.205316","291037.986416","296404.171994"
"Mixed","both","done","45","F_done.wav","None","721.031748224","308","299521.163268","291804.451546","292571.6593","293337.538863","294104.193822","294871.547814","295621.324284","296387.613187","300287.508749","286454.431202","287204.49149","287971.39193","288738.003915","289505.109334","290271.205316","291037.986416","299531.268164"
"Mixed","both","done","45","M_dime.wav","space","524.132532068","308","299521.163268","291804.451546","292571.6593","293337.538863","294104.193822","294871.547814","295621.324284","296387.613187","300287.508749","301037.529155","287204.49149","287971.39193","288738.003915","289505.109334","290271.205316","291037.986416","300296.48734"
"Mixed","both","done","45","F_cad.wav","None","735.072989017","308","299521.163268","291804.451546","292571.6593","293337.538863","294104.193822","294871.547814","295621.324284","296387.613187","300287.508749","301037.529155","301804.004177","287971.39193","288738.003915","289505.109334","290271.205316","291037.986416","301046.872256"
"Mixed","both","done","45","F_lash.wav","None","734.483711887","308","299521.163268","291804.451546","292571.6593","293337.538863","294104.193822","294871.547814","295621.324284","296387.613187","300287.508749","301037.529155","301804.004177","302570.7658","288738.003915","289505.109334","290271.205316","291037.986416","301813.329347"
"Mixed","both","done","45","F_done.wav","None","733.675542753","308","299521.163268","291804.451546","292571.6593","293337.538863","294104.193822","294871.547814","295621.324284","296387.613187","300287.508749","301037.529155","301804.004177","302570.7658","303337.151164","289505.109334","290271.205316","291037.986416","302580.011204"
"Mixed","both","done","45","M_jolt.wav","space","602.493389975","308","299521.163268","291804.451546","292571.6593","293337.538863","294104.193822","294871.547814","295621.324284","296387.613187","300287.508749","301037.529155","301804.004177","302570.7658","303337.151164","304103.750164","290271.205316","291037.986416","303346.026801"
"Mixed","both","done","45","M_done.wav","None","736.279367935","308","299521.163268","291804.451546","292571.6593","293337.538863","294104.193822","294871.547814","295621.324284","296387.613187","300287.508749","301037.529155","301804.004177","302570.7658","303337.151164","304103.750164","304871.089624","291037.986416","304107.361882"
