"Condition","Talker","Target","Trial","current_stimulus","response_response","response_time_response","subject_nr","time_Audio1","time_Audio10","time_Audio11","time_Audio12","time_Audio13","time_Audio14","time_Audio15","time_Audio16","time_Audio2","time_Audio3","time_Audio4","time_Audio5","time_Audio6","time_Audio7","time_Audio8","time_Audio9","time_response","title"
"Blocked","Male","tile","16","M_reek.wav","NA","NA","137","107753.801362","NA","NA","NA","NA","NA","NA","NA","NA","NA","NA","NA","NA","NA","NA","NA","NA","Mapping"
"Blocked","Male","tile","16","M_tile.wav","None","717.193708988","137","107753.801362","NA","NA","NA","NA","NA","NA","NA","108520.703629","NA","NA","NA","NA","NA","NA","NA","107768.970327","Mapping"
"Blocked","Male","tile","16","M_depth.wav","None","719.890317763","137","107753.801362","NA","NA","NA","NA","NA","NA","NA","108520.703629","109269.777423","NA","NA","NA","NA","NA","NA","108531.302086","Mapping"
"Blocked","Male","tile","16","M_tile.wav","space","29.5384074561","137","107753.801362","NA","NA","NA","NA","NA","NA","NA","108520.703629","109269.777423","110036.449356","NA","NA","NA","NA","NA","109279.356846","Mapping"
"Blocked","Male","tile","16","M_park.wav","space","574.943119776","137","107753.801362","NA","NA","NA","NA","NA","NA","NA","108520.703629","109269.777423","110036.449356","110803.714592","NA","NA","NA","NA","110045.956123","Mapping"
"Blocked","Male","tile","16","M_tile.wav","None","732.632272877","137","107753.801362","NA","NA","NA","NA","NA","NA","NA","108520.703629","109269.777423","110036.449356","110803.714592","111570.216171","NA","NA","NA","110813.780962","Mapping"
"Blocked","Male","tile","16","M_reek.wav","space","385.010912316","137","107753.801362","NA","NA","NA","NA","NA","NA","NA","108520.703629","109269.777423","110036.449356","110803.714592","111570.216171","112336.616959","NA","NA","111579.893292","Mapping"
"Blocked","Male","tile","16","M_ball.wav","None","731.0159154","137","107753.801362","NA","NA","NA","NA","NA","NA","NA","108520.703629","109269.777423","110036.449356","110803.714592","111570.216171","112336.616959","113103.737193","NA","112345.924618","Mapping"
"Blocked","Male","tile","16","M_ball.wav","None","728.586432291","137","107753.801362","NA","NA","NA","NA","NA","NA","NA","108520.703629","109269.777423","110036.449356","110803.714592","111570.216171","112336.616959","113103.737193","113870.242481","113113.644648","Mapping"
"Blocked","Male","tile","16","M_tile.wav","None","727.492886712","137","107753.801362","114637.00191","NA","NA","NA","NA","NA","NA","108520.703629","109269.777423","110036.449356","110803.714592","111570.216171","112336.616959","113103.737193","113870.242481","113879.780166","Mapping"
"Blocked","Male","tile","16","M_cave.wav","space","365.589579334","137","107753.801362","114637.00191","115403.983016","NA","NA","NA","NA","NA","108520.703629","109269.777423","110036.449356","110803.714592","111570.216171","112336.616959","113103.737193","113870.242481","114647.24791","Mapping"
"Blocked","Male","tile","16","M_bluff.wav","None","723.246392794","137","107753.801362","114637.00191","115403.983016","116170.474083","NA","NA","NA","NA","108520.703629","109269.777423","110036.449356","110803.714592","111570.216171","112336.616959","113103.737193","113870.242481","115414.221287","Mapping"
"Blocked","Male","tile","16","M_done.wav","None","722.126876703","137","107753.801362","114637.00191","115403.983016","116170.474083","116937.58566","NA","NA","NA","108520.703629","109269.777423","110036.449356","110803.714592","111570.216171","112336.616959","113103.737193","113870.242481","116180.491295","Mapping"
"Blocked","Male","tile","16","M_bluff.wav","None","720.44961201","137","107753.801362","114637.00191","115403.983016","116170.474083","116937.58566","117704.467213","NA","NA","108520.703629","109269.777423","110036.449356","110803.714592","111570.216171","112336.616959","113103.737193","113870.242481","116947.513212","Mapping"
"Blocked","Male","tile","16","M_gnash.wav","None","718.37846085","137","107753.801362","114637.00191","115403.983016","116170.474083","116937.58566","117704.467213","118453.939222","NA","108520.703629","109269.777423","110036.449356","110803.714592","111570.216171","112336.616959","113103.737193","113870.242481","117714.817404","Mapping"
"Blocked","Male","tile","16","M_depth.wav","None","734.896039008","137","107753.801362","114637.00191","115403.983016","116170.474083","116937.58566","117704.467213","118453.939222","119220.356396","108520.703629","109269.777423","110036.449356","110803.714592","111570.216171","112336.616959","113103.737193","113870.242481","118463.706622","Mapping"
"Blocked","Male","cave","7","M_reek.wav","None","733.63584897","137","122404.056291","114637.00191","115403.983016","116170.474083","116937.58566","117704.467213","118453.939222","119220.356396","108520.703629","109269.777423","110036.449356","110803.714592","111570.216171","112336.616959","113103.737193","113870.242481","119230.283948","Mapping"
"Blocked","Male","cave","7","M_knife.wav","None","720.955419471","137","122404.056291","114637.00191","115403.983016","116170.474083","116937.58566","117704.467213","118453.939222","119220.356396","123170.906926","109269.777423","110036.449356","110803.714592","111570.216171","112336.616959","113103.737193","113870.242481","122413.776078","Mapping"
"Blocked","Male","cave","7","M_cave.wav","None","718.693508301","137","122404.056291","114637.00191","115403.983016","116170.474083","116937.58566","117704.467213","118453.939222","119220.356396","123170.906926","123920.261758","110036.449356","110803.714592","111570.216171","112336.616959","113103.737193","113870.242481","123181.048734","Mapping"
"Blocked","Male","cave","7","M_depth.wav","space","426.694261376","137","122404.056291","114637.00191","115403.983016","116170.474083","116937.58566","117704.467213","118453.939222","119220.356396","123170.906926","123920.261758","124687.058288","110803.714592","111570.216171","112336.616959","113103.737193","113870.242481","123929.94259","Mapping"
"Blocked","Male","cave","7","M_priest.wav","None","733.378307661","137","122404.056291","114637.00191","115403.983016","116170.474083","116937.58566","117704.467213","118453.939222","119220.356396","123170.906926","123920.261758","124687.058288","125453.38642","111570.216171","112336.616959","113103.737193","113870.242481","124696.322354","Mapping"
"Blocked","Male","cave","7","M_cave.wav","None","732.031240012","137","122404.056291","114637.00191","115403.983016","116170.474083","116937.58566","117704.467213","118453.939222","119220.356396","123170.906926","123920.261758","124687.058288","125453.38642","126220.03331","112336.616959","113103.737193","113870.242481","125462.850212","Mapping"
"Blocked","Male","cave","7","M_priest.wav","space","359.139608103","137","122404.056291","114637.00191","115403.983016","116170.474083","116937.58566","117704.467213","118453.939222","119220.356396","123170.906926","123920.261758","124687.058288","125453.38642","126220.03331","126987.009779","113103.737193","113870.242481","126229.365085","Mapping"
"Blocked","Male","cave","7","M_done.wav","None","728.244177648","137","122404.056291","114637.00191","115403.983016","116170.474083","116937.58566","117704.467213","118453.939222","119220.356396","123170.906926","123920.261758","124687.058288","125453.38642","126220.03331","126987.009779","127753.562371","113870.242481","126996.733276","Mapping"
"Blocked","Male","cave","7","M_dime.wav","None","726.753653493","137","122404.056291","114637.00191","115403.983016","116170.474083","116937.58566","117704.467213","118453.939222","119220.356396","123170.906926","123920.261758","124687.058288","125453.38642","126220.03331","126987.009779","127753.562371","128520.014791","127763.354814","Mapping"
"Blocked","Male","cave","7","M_tile.wav","None","725.74605816","137","122404.056291","129287.564157","115403.983016","116170.474083","116937.58566","117704.467213","118453.939222","119220.356396","123170.906926","123920.261758","124687.058288","125453.38642","126220.03331","126987.009779","127753.562371","128520.014791","128529.502389","Mapping"
"Blocked","Male","cave","7","M_cave.wav","None","723.100772244","137","122404.056291","129287.564157","130053.92568","116170.474083","116937.58566","117704.467213","118453.939222","119220.356396","123170.906926","123920.261758","124687.058288","125453.38642","126220.03331","126987.009779","127753.562371","128520.014791","129297.520462","Mapping"
"Blocked","Male","cave","7","M_dime.wav","space","468.58104656","137","122404.056291","129287.564157","130053.92568","130820.783426","116937.58566","117704.467213","118453.939222","119220.356396","123170.906926","123920.261758","124687.058288","125453.38642","126220.03331","126987.009779","127753.562371","128520.014791","130064.006272","Mapping"
"Blocked","Male","cave","7","M_bluff.wav","None","719.734185259","137","122404.056291","129287.564157","130053.92568","130820.783426","131587.384249","117704.467213","118453.939222","119220.356396","123170.906926","123920.261758","124687.058288","125453.38642","126220.03331","126987.009779","127753.562371","128520.014791","130830.926472","Mapping"
"Blocked","Male","cave","7","M_gnash.wav","None","718.405358843","137","122404.056291","129287.564157","130053.92568","130820.783426","131587.384249","132336.490816","118453.939222","119220.356396","123170.906926","123920.261758","124687.058288","125453.38642","126220.03331","126987.009779","127753.562371","128520.014791","131597.529768","Mapping"
"Blocked","Male","cave","7","M_cave.wav","None","735.495216562","137","122404.056291","129287.564157","130053.92568","130820.783426","131587.384249","132336.490816","133103.26725","119220.356396","123170.906926","123920.261758","124687.058288","125453.38642","126220.03331","126987.009779","127753.562371","128520.014791","132345.619773","Mapping"
"Blocked","Male","cave","7","M_done.wav","space","476.124254288","137","122404.056291","129287.564157","130053.92568","130820.783426","131587.384249","132336.490816","133103.26725","133870.217129","123170.906926","123920.261758","124687.058288","125453.38642","126220.03331","126987.009779","127753.562371","128520.014791","133112.423723","Mapping"
"Blocked","Male","done","22","M_cave.wav","None","731.261708075","137","137003.819526","129287.564157","130053.92568","130820.783426","131587.384249","132336.490816","133103.26725","133870.217129","123170.906926","123920.261758","124687.058288","125453.38642","126220.03331","126987.009779","127753.562371","128520.014791","133879.921458","Mapping"
"Blocked","Male","done","22","M_depth.wav","None","721.302930033","137","137003.819526","129287.564157","130053.92568","130820.783426","131587.384249","132336.490816","133103.26725","133870.217129","137770.613582","123920.261758","124687.058288","125453.38642","126220.03331","126987.009779","127753.562371","128520.014791","137014.017604","Mapping"
"Blocked","Male","done","22","M_cad.wav","None","719.67544232","137","137003.819526","129287.564157","130053.92568","130820.783426","131587.384249","132336.490816","133103.26725","133870.217129","137770.613582","138520.419189","124687.058288","125453.38642","126220.03331","126987.009779","127753.562371","128520.014791","137780.701594","Mapping"
"Blocked","Male","done","22","M_bluff.wav","None","736.147262855","137","137003.819526","129287.564157","130053.92568","130820.783426","131587.384249","132336.490816","133103.26725","133870.217129","137770.613582","138520.419189","139286.598919","125453.38642","126220.03331","126987.009779","127753.562371","128520.014791","138529.422313","Mapping"
"Blocked","Male","done","22","M_done.wav","None","733.682224993","137","137003.819526","129287.564157","130053.92568","130820.783426","131587.384249","132336.490816","133103.26725","133870.217129","137770.613582","138520.419189","139286.598919","140053.377516","126220.03331","126987.009779","127753.562371","128520.014791","139297.048354","Mapping"
"Blocked","Male","done","22","M_romp.wav","space","413.417436648","137","137003.819526","129287.564157","130053.92568","130820.783426","131587.384249","132336.490816","133103.26725","133870.217129","137770.613582","138520.419189","139286.598919","140053.377516","140819.80242","126987.009779","127753.562371","128520.014791","140062.959103","Mapping"
"Blocked","Male","done","22","M_done.wav","None","731.808017008","137","137003.819526","129287.564157","130053.92568","130820.783426","131587.384249","132336.490816","133103.26725","133870.217129","137770.613582","138520.419189","139286.598919","140053.377516","140819.80242","141586.757555","127753.562371","128520.014791","140829.501801","Mapping"
"Blocked","Male","done","22","M_dime.wav","space","424.01960399","137","137003.819526","129287.564157","130053.92568","130820.783426","131587.384249","132336.490816","133103.26725","133870.217129","137770.613582","138520.419189","139286.598919","140053.377516","140819.80242","141586.757555","142353.661368","128520.014791","141596.315027","Mapping"
"Blocked","Male","done","22","M_park.wav","None","728.519650875","137","137003.819526","129287.564157","130053.92568","130820.783426","131587.384249","132336.490816","133103.26725","133870.217129","137770.613582","138520.419189","139286.598919","140053.377516","140819.80242","141586.757555","142353.661368","143120.039896","142363.244501","Mapping"
"Blocked","Male","done","22","M_done.wav","None","727.114767884","137","137003.819526","143886.770881","130053.92568","130820.783426","131587.384249","132336.490816","133103.26725","133870.217129","137770.613582","138520.419189","139286.598919","140053.377516","140819.80242","141586.757555","142353.661368","143120.039896","143129.83914","Mapping"
"Blocked","Male","done","22","M_tile.wav","space","532.106863917","137","137003.819526","143886.770881","144653.230412","130820.783426","131587.384249","132336.490816","133103.26725","133870.217129","137770.613582","138520.419189","139286.598919","140053.377516","140819.80242","141586.757555","142353.661368","143120.039896","143896.22787","Mapping"
"Blocked","Male","done","22","M_cling.wav","None","724.744337029","137","137003.819526","143886.770881","144653.230412","145420.133297","131587.384249","132336.490816","133103.26725","133870.217129","137770.613582","138520.419189","139286.598919","140053.377516","140819.80242","141586.757555","142353.661368","143120.039896","144663.211759","Mapping"
"Blocked","Male","done","22","M_done.wav","None","723.536397214","137","137003.819526","143886.770881","144653.230412","145420.133297","146187.135118","132336.490816","133103.26725","133870.217129","137770.613582","138520.419189","139286.598919","140053.377516","140819.80242","141586.757555","142353.661368","143120.039896","145429.698807","Mapping"
"Blocked","Male","done","22","M_romp.wav","space","438.638240448","137","137003.819526","143886.770881","144653.230412","145420.133297","146187.135118","146953.620001","133103.26725","133870.217129","137770.613582","138520.419189","139286.598919","140053.377516","140819.80242","141586.757555","142353.661368","143120.039896","146197.616089","Mapping"
"Blocked","Male","done","22","M_cave.wav","None","719.939476228","137","137003.819526","143886.770881","144653.230412","145420.133297","146187.135118","146953.620001","147703.340895","133870.217129","137770.613582","138520.419189","139286.598919","140053.377516","140819.80242","141586.757555","142353.661368","143120.039896","146963.37256","Mapping"
"Blocked","Male","done","22","M_gnash.wav","None","735.455333255","137","137003.819526","143886.770881","144653.230412","145420.133297","146187.135118","146953.620001","147703.340895","148469.929042","137770.613582","138520.419189","139286.598919","140053.377516","140819.80242","141586.757555","142353.661368","143120.039896","147713.164873","Mapping"
"Blocked","Male","cave","9","M_cad.wav","None","734.263470629","137","151603.500212","143886.770881","144653.230412","145420.133297","146187.135118","146953.620001","147703.340895","148469.929042","137770.613582","138520.419189","139286.598919","140053.377516","140819.80242","141586.757555","142353.661368","143120.039896","148479.680674","Mapping"
"Blocked","Male","cave","9","M_knife.wav","None","721.862842678","137","151603.500212","143886.770881","144653.230412","145420.133297","146187.135118","146953.620001","147703.340895","148469.929042","152370.303852","138520.419189","139286.598919","140053.377516","140819.80242","141586.757555","142353.661368","143120.039896","151613.367783","Mapping"
"Blocked","Male","cave","9","M_cad.wav","None","718.499347451","137","151603.500212","143886.770881","144653.230412","145420.133297","146187.135118","146953.620001","147703.340895","148469.929042","152370.303852","153136.085366","139286.598919","140053.377516","140819.80242","141586.757555","142353.661368","143120.039896","152381.895992","Mapping"
"Blocked","Male","cave","9","M_cave.wav","space","379.077569349","137","151603.500212","143886.770881","144653.230412","145420.133297","146187.135118","146953.620001","147703.340895","148469.929042","152370.303852","153136.085366","153903.436244","140053.377516","140819.80242","141586.757555","142353.661368","143120.039896","153145.078906","Mapping"
"Blocked","Male","cave","9","M_dime.wav","space","650.515561691","137","151603.500212","143886.770881","144653.230412","145420.133297","146187.135118","146953.620001","147703.340895","148469.929042","152370.303852","153136.085366","153903.436244","154670.225972","140819.80242","141586.757555","142353.661368","143120.039896","153913.591965","Mapping"
"Blocked","Male","cave","9","M_park.wav","None","719.168707496","137","151603.500212","143886.770881","144653.230412","145420.133297","146187.135118","146953.620001","147703.340895","148469.929042","152370.303852","153136.085366","153903.436244","154670.225972","155419.813303","141586.757555","142353.661368","143120.039896","154680.671079","Mapping"
"Blocked","Male","cave","9","M_greet.wav","None","735.129464767","137","151603.500212","143886.770881","144653.230412","145420.133297","146187.135118","146953.620001","147703.340895","148469.929042","152370.303852","153136.085366","153903.436244","154670.225972","155419.813303","156186.023022","142353.661368","143120.039896","155430.027148","Mapping"
"Blocked","Male","cave","9","M_cave.wav","None","734.055087785","137","151603.500212","143886.770881","144653.230412","145420.133297","146187.135118","146953.620001","147703.340895","148469.929042","152370.303852","153136.085366","153903.436244","154670.225972","155419.813303","156186.023022","156953.105537","143120.039896","156196.454525","Mapping"
"Blocked","Male","cave","9","M_knife.wav","space","401.786959264","137","151603.500212","143886.770881","144653.230412","145420.133297","146187.135118","146953.620001","147703.340895","148469.929042","152370.303852","153136.085366","153903.436244","154670.225972","155419.813303","156186.023022","156953.105537","157719.780561","156962.295401","Mapping"
"Blocked","Male","cave","9","M_cad.wav","None","731.179467868","137","151603.500212","158486.430234","144653.230412","145420.133297","146187.135118","146953.620001","147703.340895","148469.929042","152370.303852","153136.085366","153903.436244","154670.225972","155419.813303","156186.023022","156953.105537","157719.780561","157729.553217","Mapping"
"Blocked","Male","cave","9","M_depth.wav","None","728.952493402","137","151603.500212","158486.430234","159253.00354","145420.133297","146187.135118","146953.620001","147703.340895","148469.929042","152370.303852","153136.085366","153903.436244","154670.225972","155419.813303","156186.023022","156953.105537","157719.780561","158497.185133","Mapping"
"Blocked","Male","cave","9","M_lash.wav","None","728.908590856","137","151603.500212","158486.430234","159253.00354","160019.457815","146187.135118","146953.620001","147703.340895","148469.929042","152370.303852","153136.085366","153903.436244","154670.225972","155419.813303","156186.023022","156953.105537","157719.780561","159262.550809","Mapping"
"Blocked","Male","cave","9","M_cave.wav","None","728.139058687","137","151603.500212","158486.430234","159253.00354","160019.457815","160786.2562","146953.620001","147703.340895","148469.929042","152370.303852","153136.085366","153903.436244","154670.225972","155419.813303","156186.023022","156953.105537","157719.780561","160028.634694","Mapping"
"Blocked","Male","cave","9","M_dime.wav","space","583.954281872","137","151603.500212","158486.430234","159253.00354","160019.457815","160786.2562","161553.021503","147703.340895","148469.929042","152370.303852","153136.085366","153903.436244","154670.225972","155419.813303","156186.023022","156953.105537","157719.780561","160796.026692","Mapping"
"Blocked","Male","cave","9","M_cave.wav","None","724.476283765","137","151603.500212","158486.430234","159253.00354","160019.457815","160786.2562","161553.021503","162319.796082","148469.929042","152370.303852","153136.085366","153903.436244","154670.225972","155419.813303","156186.023022","156953.105537","157719.780561","161562.758295","Mapping"
"Blocked","Male","cave","9","M_cad.wav","space","594.968886347","137","151603.500212","158486.430234","159253.00354","160019.457815","160786.2562","161553.021503","162319.796082","163086.666195","152370.303852","153136.085366","153903.436244","154670.225972","155419.813303","156186.023022","156953.105537","157719.780561","162329.013462","Mapping"
"Blocked","Male","ball","5","M_depth.wav","None","720.399526064","137","166203.321881","158486.430234","159253.00354","160019.457815","160786.2562","161553.021503","162319.796082","163086.666195","152370.303852","153136.085366","153903.436244","154670.225972","155419.813303","156186.023022","156953.105537","157719.780561","163097.076984","Mapping"
"Blocked","Male","ball","5","M_ball.wav","None","721.394445281","137","166203.321881","158486.430234","159253.00354","160019.457815","160786.2562","161553.021503","162319.796082","163086.666195","166969.98021","153136.085366","153903.436244","154670.225972","155419.813303","156186.023022","156953.105537","157719.780561","166213.502954","Mapping"
"Blocked","Male","ball","5","M_greet.wav","space","447.541191941","137","166203.321881","158486.430234","159253.00354","160019.457815","160786.2562","161553.021503","162319.796082","163086.666195","166969.98021","167736.876293","153903.436244","154670.225972","155419.813303","156186.023022","156953.105537","157719.780561","166980.368429","Mapping"
"Blocked","Male","ball","5","M_ball.wav","None","718.350016861","137","166203.321881","158486.430234","159253.00354","160019.457815","160786.2562","161553.021503","162319.796082","163086.666195","166969.98021","167736.876293","168485.843114","154670.225972","155419.813303","156186.023022","156953.105537","157719.780561","167746.965233","Mapping"
"Blocked","Male","ball","5","M_park.wav","space","444.206449785","137","166203.321881","158486.430234","159253.00354","160019.457815","160786.2562","161553.021503","162319.796082","163086.666195","166969.98021","167736.876293","168485.843114","169252.371281","155419.813303","156186.023022","156953.105537","157719.780561","168495.66802","Mapping"
"Blocked","Male","ball","5","M_priest.wav","None","734.192979056","137","166203.321881","158486.430234","159253.00354","160019.457815","160786.2562","161553.021503","162319.796082","163086.666195","166969.98021","167736.876293","168485.843114","169252.371281","170019.248505","156186.023022","156953.105537","157719.780561","169261.772929","Mapping"
"Blocked","Male","ball","5","M_jaw.wav","None","732.673392748","137","166203.321881","158486.430234","159253.00354","160019.457815","160786.2562","161553.021503","162319.796082","163086.666195","166969.98021","167736.876293","168485.843114","169252.371281","170019.248505","170786.220336","156953.105537","157719.780561","170028.698384","Mapping"
"Blocked","Male","ball","5","M_done.wav","None","731.295098783","137","166203.321881","158486.430234","159253.00354","160019.457815","160786.2562","161553.021503","162319.796082","163086.666195","166969.98021","167736.876293","168485.843114","169252.371281","170019.248505","170786.220336","171553.084884","157719.780561","170795.970422","Mapping"
"Blocked","Male","ball","5","M_tile.wav","None","729.922060505","137","166203.321881","158486.430234","159253.00354","160019.457815","160786.2562","161553.021503","162319.796082","163086.666195","166969.98021","167736.876293","168485.843114","169252.371281","170019.248505","170786.220336","171553.084884","172319.463721","171562.853211","Mapping"
"Blocked","Male","ball","5","M_ball.wav","None","728.538819589","137","166203.321881","173086.216966","159253.00354","160019.457815","160786.2562","161553.021503","162319.796082","163086.666195","166969.98021","167736.876293","168485.843114","169252.371281","170019.248505","170786.220336","171553.084884","172319.463721","172329.709411","Mapping"
"Blocked","Male","ball","5","M_greet.wav","space","379.458470852","137","166203.321881","173086.216966","173852.760592","160019.457815","160786.2562","161553.021503","162319.796082","163086.666195","166969.98021","167736.876293","168485.843114","169252.371281","170019.248505","170786.220336","171553.084884","172319.463721","173096.312398","Mapping"
"Blocked","Male","ball","5","M_bluff.wav","None","726.832183544","137","166203.321881","173086.216966","173852.760592","174619.386458","160786.2562","161553.021503","162319.796082","163086.666195","166969.98021","167736.876293","168485.843114","169252.371281","170019.248505","170786.220336","171553.084884","172319.463721","173862.217273","Mapping"
"Blocked","Male","ball","5","M_ball.wav","None","725.492845289","137","166203.321881","173086.216966","173852.760592","174619.386458","175385.74829","161553.021503","162319.796082","163086.666195","166969.98021","167736.876293","168485.843114","169252.371281","170019.248505","170786.220336","171553.084884","172319.463721","174629.101917","Mapping"
"Blocked","Male","ball","5","M_depth.wav","space","464.492849307","137","166203.321881","173086.216966","173852.760592","174619.386458","175385.74829","176153.543759","162319.796082","163086.666195","166969.98021","167736.876293","168485.843114","169252.371281","170019.248505","170786.220336","171553.084884","172319.463721","175395.246091","Mapping"
"Blocked","Male","ball","5","M_done.wav","None","721.571910661","137","166203.321881","173086.216966","173852.760592","174619.386458","175385.74829","176153.543759","176919.802327","163086.666195","166969.98021","167736.876293","168485.843114","169252.371281","170019.248505","170786.220336","171553.084884","172319.463721","176163.360008","Mapping"
"Blocked","Male","ball","5","M_reek.wav","None","720.806707046","137","166203.321881","173086.216966","173852.760592","174619.386458","175385.74829","176153.543759","176919.802327","177686.434067","166969.98021","167736.876293","168485.843114","169252.371281","170019.248505","170786.220336","171553.084884","172319.463721","176930.09563","Mapping"
"Blocked","Male","ball","6","M_tile.wav","None","720.017387997","137","180802.933312","173086.216966","173852.760592","174619.386458","175385.74829","176153.543759","176919.802327","177686.434067","166969.98021","167736.876293","168485.843114","169252.371281","170019.248505","170786.220336","171553.084884","172319.463721","177696.226819","Mapping"
"Blocked","Male","ball","6","M_park.wav","None","721.100112423","137","180802.933312","173086.216966","173852.760592","174619.386458","175385.74829","176153.543759","176919.802327","177686.434067","181569.745918","167736.876293","168485.843114","169252.371281","170019.248505","170786.220336","171553.084884","172319.463721","180813.363579","Mapping"
"Blocked","Male","ball","6","M_ball.wav","None","720.286059426","137","180802.933312","173086.216966","173852.760592","174619.386458","175385.74829","176153.543759","176919.802327","177686.434067","181569.745918","182336.543066","168485.843114","169252.371281","170019.248505","170786.220336","171553.084884","172319.463721","181579.652137","Mapping"
"Blocked","Male","ball","6","M_reek.wav","space","376.40507624","137","180802.933312","173086.216966","173852.760592","174619.386458","175385.74829","176153.543759","176919.802327","177686.434067","181569.745918","182336.543066","183085.803601","169252.371281","170019.248505","170786.220336","171553.084884","172319.463721","182347.209233","Mapping"
"Blocked","Male","ball","6","M_cling.wav","None","735.32115214","137","180802.933312","173086.216966","173852.760592","174619.386458","175385.74829","176153.543759","176919.802327","177686.434067","181569.745918","182336.543066","183085.803601","183852.359594","170019.248505","170786.220336","171553.084884","172319.463721","183095.668082","Mapping"
"Blocked","Male","ball","6","M_knife.wav","None","733.97192033","137","180802.933312","173086.216966","173852.760592","174619.386458","175385.74829","176153.543759","176919.802327","177686.434067","181569.745918","182336.543066","183085.803601","183852.359594","184618.897655","170786.220336","171553.084884","172319.463721","183862.516552","Mapping"
"Blocked","Male","ball","6","M_gnash.wav","None","733.642960084","137","180802.933312","173086.216966","173852.760592","174619.386458","175385.74829","176153.543759","176919.802327","177686.434067","181569.745918","182336.543066","183085.803601","183852.359594","184618.897655","185385.502807","171553.084884","172319.463721","184628.579723","Mapping"
"Blocked","Male","ball","6","M_lash.wav","None","733.097578515","137","180802.933312","173086.216966","173852.760592","174619.386458","175385.74829","176153.543759","176919.802327","177686.434067","181569.745918","182336.543066","183085.803601","183852.359594","184618.897655","185385.502807","186152.540182","172319.463721","185394.639493","Mapping"
"Blocked","Male","ball","6","M_ball.wav","None","731.143912999","137","180802.933312","173086.216966","173852.760592","174619.386458","175385.74829","176153.543759","176919.802327","177686.434067","181569.745918","182336.543066","183085.803601","183852.359594","184618.897655","185385.502807","186152.540182","186919.244269","186162.376528","Mapping"
"Blocked","Male","ball","6","M_tile.wav","space","394.898271188","137","180802.933312","187686.279481","173852.760592","174619.386458","175385.74829","176153.543759","176919.802327","177686.434067","181569.745918","182336.543066","183085.803601","183852.359594","184618.897655","185385.502807","186152.540182","186919.244269","186928.658284","Mapping"
"Blocked","Male","ball","6","M_ball.wav","None","728.085571667","137","180802.933312","187686.279481","188452.180645","174619.386458","175385.74829","176153.543759","176919.802327","177686.434067","181569.745918","182336.543066","183085.803601","183852.359594","184618.897655","185385.502807","186152.540182","186919.244269","187696.344305","Mapping"
"Blocked","Male","ball","6","M_cad.wav","space","461.283940705","137","180802.933312","187686.279481","188452.180645","189219.135471","175385.74829","176153.543759","176919.802327","177686.434067","181569.745918","182336.543066","183085.803601","183852.359594","184618.897655","185385.502807","186152.540182","186919.244269","188462.215789","Mapping"
"Blocked","Male","ball","6","M_knife.wav","None","726.244754507","137","180802.933312","187686.279481","188452.180645","189219.135471","189985.879132","176153.543759","176919.802327","177686.434067","181569.745918","182336.543066","183085.803601","183852.359594","184618.897655","185385.502807","186152.540182","186919.244269","189228.773946","Mapping"
"Blocked","Male","ball","6","M_ball.wav","None","726.52517457","137","180802.933312","187686.279481","188452.180645","189219.135471","189985.879132","190752.152541","176919.802327","177686.434067","181569.745918","182336.543066","183085.803601","183852.359594","184618.897655","185385.502807","186152.540182","186919.244269","189995.518225","Mapping"
"Blocked","Male","ball","6","M_done.wav","space","537.801834173","137","180802.933312","187686.279481","188452.180645","189219.135471","189985.879132","190752.152541","191519.448076","177686.434067","181569.745918","182336.543066","183085.803601","183852.359594","184618.897655","185385.502807","186152.540182","186919.244269","190761.682805","Mapping"
"Blocked","Male","ball","6","M_lash.wav","None","722.734711249","137","180802.933312","187686.279481","188452.180645","189219.135471","189985.879132","190752.152541","191519.448076","192286.039933","181569.745918","182336.543066","183085.803601","183852.359594","184618.897655","185385.502807","186152.540182","186919.244269","191529.882981","Mapping"
"Blocked","Male","tile","18","M_gnash.wav","None","721.281287842","137","195402.649552","187686.279481","188452.180645","189219.135471","189985.879132","190752.152541","191519.448076","192286.039933","181569.745918","182336.543066","183085.803601","183852.359594","184618.897655","185385.502807","186152.540182","186919.244269","192296.89284","Mapping"
"Blocked","Male","tile","18","M_bluff.wav","None","721.88386647","137","195402.649552","187686.279481","188452.180645","189219.135471","189985.879132","190752.152541","191519.448076","192286.039933","196169.312829","182336.543066","183085.803601","183852.359594","184618.897655","185385.502807","186152.540182","186919.244269","195412.554534","Mapping"
"Blocked","Male","tile","18","M_tile.wav","None","720.82092904","137","195402.649552","187686.279481","188452.180645","189219.135471","189985.879132","190752.152541","191519.448076","192286.039933","196169.312829","196936.199328","183085.803601","183852.359594","184618.897655","185385.502807","186152.540182","186919.244269","196179.2815","Mapping"
"Blocked","Male","tile","18","M_park.wav","space","368.785502738","137","195402.649552","187686.279481","188452.180645","189219.135471","189985.879132","190752.152541","191519.448076","192286.039933","196169.312829","196936.199328","197685.810774","183852.359594","184618.897655","185385.502807","186152.540182","186919.244269","196946.574253","Mapping"
"Blocked","Male","tile","18","M_bluff.wav","None","735.048770555","137","195402.649552","187686.279481","188452.180645","189219.135471","189985.879132","190752.152541","191519.448076","192286.039933","196169.312829","196936.199328","197685.810774","198452.443133","184618.897655","185385.502807","186152.540182","186919.244269","197695.880855","Mapping"
"Blocked","Male","tile","18","M_tile.wav","None","734.385284828","137","195402.649552","187686.279481","188452.180645","189219.135471","189985.879132","190752.152541","191519.448076","192286.039933","196169.312829","196936.199328","197685.810774","198452.443133","199218.90792","185385.502807","186152.540182","186919.244269","198462.161683","Mapping"
"Blocked","Male","tile","18","M_park.wav","space","462.621423882","137","195402.649552","187686.279481","188452.180645","189219.135471","189985.879132","190752.152541","191519.448076","192286.039933","196169.312829","196936.199328","197685.810774","198452.443133","199218.90792","199985.638596","186152.540182","186919.244269","199228.664499","Mapping"
"Blocked","Male","tile","18","M_depth.wav","None","731.872943463","137","195402.649552","187686.279481","188452.180645","189219.135471","189985.879132","190752.152541","191519.448076","192286.039933","196169.312829","196936.199328","197685.810774","198452.443133","199218.90792","199985.638596","200752.322586","186919.244269","199995.398884","Mapping"
"Blocked","Male","tile","18","M_tile.wav","None","731.873561745","137","195402.649552","187686.279481","188452.180645","189219.135471","189985.879132","190752.152541","191519.448076","192286.039933","196169.312829","196936.199328","197685.810774","198452.443133","199218.90792","199985.638596","200752.322586","201518.692148","200761.643849","Mapping"
"Blocked","Male","tile","18","M_priest.wav","space","475.082649733","137","195402.649552","202285.657486","188452.180645","189219.135471","189985.879132","190752.152541","191519.448076","192286.039933","196169.312829","196936.199328","197685.810774","198452.443133","199218.90792","199985.638596","200752.322586","201518.692148","201528.20819","Mapping"
"Blocked","Male","tile","18","M_cling.wav","None","729.274651851","137","195402.649552","202285.657486","203052.612313","189219.135471","189985.879132","190752.152541","191519.448076","192286.039933","196169.312829","196936.199328","197685.810774","198452.443133","199218.90792","199985.638596","200752.322586","201518.692148","202295.188368","Mapping"
"Blocked","Male","tile","18","M_bluff.wav","None","728.461217135","137","195402.649552","202285.657486","203052.612313","203818.489979","189985.879132","190752.152541","191519.448076","192286.039933","196169.312829","196936.199328","197685.810774","198452.443133","199218.90792","199985.638596","200752.322586","201518.692148","203061.914407","Mapping"
"Blocked","Male","tile","18","M_jolt.wav","None","727.487939876","137","195402.649552","202285.657486","203052.612313","203818.489979","204585.604958","190752.152541","191519.448076","192286.039933","196169.312829","196936.199328","197685.810774","198452.443133","199218.90792","199985.638596","200752.322586","201518.692148","203828.620967","Mapping"
"Blocked","Male","tile","18","M_knife.wav","None","726.779624121","137","195402.649552","202285.657486","203052.612313","203818.489979","204585.604958","205352.071909","191519.448076","192286.039933","196169.312829","196936.199328","197685.810774","198452.443133","199218.90792","199985.638596","200752.322586","201518.692148","204595.143569","Mapping"
"Blocked","Male","tile","18","M_tile.wav","None","726.262377342","137","195402.649552","202285.657486","203052.612313","203818.489979","204585.604958","205352.071909","206118.895027","192286.039933","196169.312829","196936.199328","197685.810774","198452.443133","199218.90792","199985.638596","200752.322586","201518.692148","205361.567545","Mapping"
"Blocked","Male","tile","18","M_cling.wav","space","450.495650992","137","195402.649552","202285.657486","203052.612313","203818.489979","204585.604958","205352.071909","206118.895027","206885.244183","196169.312829","196936.199328","197685.810774","198452.443133","199218.90792","199985.638596","200752.322586","201518.692148","206128.69489","Mapping"
"Blocked","Male","done","19","M_cave.wav","None","725.247052615","137","210019.172448","202285.657486","203052.612313","203818.489979","204585.604958","205352.071909","206118.895027","206885.244183","196169.312829","196936.199328","197685.810774","198452.443133","199218.90792","199985.638596","200752.322586","201518.692148","206894.211443","Mapping"
"Blocked","Male","done","19","M_done.wav","None","722.321655718","137","210019.172448","202285.657486","203052.612313","203818.489979","204585.604958","205352.071909","206118.895027","206885.244183","210785.93095","196936.199328","197685.810774","198452.443133","199218.90792","199985.638596","200752.322586","201518.692148","210029.177912","Mapping"
"Blocked","Male","done","19","M_romp.wav","space","718.895089231","137","210019.172448","202285.657486","203052.612313","203818.489979","204585.604958","205352.071909","206118.895027","206885.244183","210785.93095","211552.859187","197685.810774","198452.443133","199218.90792","199985.638596","200752.322586","201518.692148","210796.21807","Mapping"
"Blocked","Male","done","19","M_done.wav","None","719.227759517","137","210019.172448","202285.657486","203052.612313","203818.489979","204585.604958","205352.071909","206118.895027","206885.244183","210785.93095","211552.859187","212319.163823","198452.443133","199218.90792","199985.638596","200752.322586","201518.692148","211562.866815","Mapping"
"Blocked","Male","done","19","M_jaw.wav","space","465.487150243","137","210019.172448","202285.657486","203052.612313","203818.489979","204585.604958","205352.071909","206118.895027","206885.244183","210785.93095","211552.859187","212319.163823","213068.352629","199218.90792","199985.638596","200752.322586","201518.692148","212329.579558","Mapping"
"Blocked","Male","done","19","M_park.wav","None","734.756292659","137","210019.172448","202285.657486","203052.612313","203818.489979","204585.604958","205352.071909","206118.895027","206885.244183","210785.93095","211552.859187","212319.163823","213068.352629","213835.488322","199985.638596","200752.322586","201518.692148","213077.925868","Mapping"
"Blocked","Male","done","19","M_gnash.wav","None","732.886722311","137","210019.172448","202285.657486","203052.612313","203818.489979","204585.604958","205352.071909","206118.895027","206885.244183","210785.93095","211552.859187","212319.163823","213068.352629","213835.488322","214602.032566","200752.322586","201518.692148","213845.46936","Mapping"
"Blocked","Male","done","19","M_bluff.wav","None","732.679267065","137","210019.172448","202285.657486","203052.612313","203818.489979","204585.604958","205352.071909","206118.895027","206885.244183","210785.93095","211552.859187","212319.163823","213068.352629","213835.488322","214602.032566","215368.708519","201518.692148","214611.580762","Mapping"
"Blocked","Male","done","19","M_done.wav","None","732.02691169","137","210019.172448","202285.657486","203052.612313","203818.489979","204585.604958","205352.071909","206118.895027","206885.244183","210785.93095","211552.859187","212319.163823","213068.352629","213835.488322","214602.032566","215368.708519","216135.513087","215378.261661","Mapping"
"Blocked","Male","done","19","M_park.wav","space","505.718931323","137","210019.172448","216901.761452","203052.612313","203818.489979","204585.604958","205352.071909","206118.895027","206885.244183","210785.93095","211552.859187","212319.163823","213068.352629","213835.488322","214602.032566","215368.708519","216135.513087","216145.221744","Mapping"
"Blocked","Male","done","19","M_cave.wav","None","729.884959757","137","210019.172448","216901.761452","217668.701748","203818.489979","204585.604958","205352.071909","206118.895027","206885.244183","210785.93095","211552.859187","212319.163823","213068.352629","213835.488322","214602.032566","215368.708519","216135.513087","216911.089826","Mapping"
"Blocked","Male","done","19","M_done.wav","None","727.60511667","137","210019.172448","216901.761452","217668.701748","218435.412327","204585.604958","205352.071909","206118.895027","206885.244183","210785.93095","211552.859187","212319.163823","213068.352629","213835.488322","214602.032566","215368.708519","216135.513087","217678.919304","Mapping"
"Blocked","Male","done","19","M_jaw.wav","space","501.962167677","137","210019.172448","216901.761452","217668.701748","218435.412327","219201.861037","205352.071909","206118.895027","206885.244183","210785.93095","211552.859187","212319.163823","213068.352629","213835.488322","214602.032566","215368.708519","216135.513087","218445.024831","Mapping"
"Blocked","Male","done","19","M_romp.wav","None","726.212600479","137","210019.172448","216901.761452","217668.701748","218435.412327","219201.861037","219968.623249","206118.895027","206885.244183","210785.93095","211552.859187","212319.163823","213068.352629","213835.488322","214602.032566","215368.708519","216135.513087","219210.93929","Mapping"
"Blocked","Male","done","19","M_park.wav","None","724.244713085","137","210019.172448","216901.761452","217668.701748","218435.412327","219201.861037","219968.623249","220735.813356","206885.244183","210785.93095","211552.859187","212319.163823","213068.352629","213835.488322","214602.032566","215368.708519","216135.513087","219978.601195","Mapping"
"Blocked","Male","done","19","M_knife.wav","None","722.220556112","137","210019.172448","216901.761452","217668.701748","218435.412327","219201.861037","219968.623249","220735.813356","221502.133759","210785.93095","211552.859187","212319.163823","213068.352629","213835.488322","214602.032566","215368.708519","216135.513087","220746.389244","Mapping"
"Blocked","Male","cave","10","M_reek.wav","None","391.98895148","137","224618.859009","216901.761452","217668.701748","218435.412327","219201.861037","219968.623249","220735.813356","221502.133759","210785.93095","211552.859187","212319.163823","213068.352629","213835.488322","214602.032566","215368.708519","216135.513087","221842.323214","Mapping"
"Blocked","Male","cave","10","M_cave.wav","None","721.516877995","137","224618.859009","216901.761452","217668.701748","218435.412327","219201.861037","219968.623249","220735.813356","221502.133759","225385.72603","211552.859187","212319.163823","213068.352629","213835.488322","214602.032566","215368.708519","216135.513087","224629.403979","Mapping"
"Blocked","Male","cave","10","M_done.wav","space","446.94696099","137","224618.859009","216901.761452","217668.701748","218435.412327","219201.861037","219968.623249","220735.813356","221502.133759","225385.72603","226152.140112","212319.163823","213068.352629","213835.488322","214602.032566","215368.708519","216135.513087","225395.883606","Mapping"
"Blocked","Male","cave","10","M_priest.wav","None","720.116941608","137","224618.859009","216901.761452","217668.701748","218435.412327","219201.861037","219968.623249","220735.813356","221502.133759","225385.72603","226152.140112","226918.867078","213068.352629","213835.488322","214602.032566","215368.708519","216135.513087","226162.280993","Mapping"
"Blocked","Male","cave","10","M_jaw.wav","None","718.70247426","137","224618.859009","216901.761452","217668.701748","218435.412327","219201.861037","219968.623249","220735.813356","221502.133759","225385.72603","226152.140112","226918.867078","227668.486563","213835.488322","214602.032566","215368.708519","216135.513087","226929.424725","Mapping"
"Blocked","Male","cave","10","M_bluff.wav","None","735.520259594","137","224618.859009","216901.761452","217668.701748","218435.412327","219201.861037","219968.623249","220735.813356","221502.133759","225385.72603","226152.140112","226918.867078","227668.486563","228434.798309","214602.032566","215368.708519","216135.513087","227678.343314","Mapping"
"Blocked","Male","cave","10","M_jaw.wav","None","736.002569785","137","224618.859009","216901.761452","217668.701748","218435.412327","219201.861037","219968.623249","220735.813356","221502.133759","225385.72603","226152.140112","226918.867078","227668.486563","228434.798309","229201.65791","215368.708519","216135.513087","228443.557495","Mapping"
"Blocked","Male","cave","10","M_dime.wav","None","734.523485182","137","224618.859009","216901.761452","217668.701748","218435.412327","219201.861037","219968.623249","220735.813356","221502.133759","225385.72603","226152.140112","226918.867078","227668.486563","228434.798309","229201.65791","229968.452585","216135.513087","229210.848393","Mapping"
"Blocked","Male","cave","10","M_cave.wav","None","733.215064276","137","224618.859009","216901.761452","217668.701748","218435.412327","219201.861037","219968.623249","220735.813356","221502.133759","225385.72603","226152.140112","226918.867078","227668.486563","228434.798309","229201.65791","229968.452585","230734.729704","229978.187522","Mapping"
"Blocked","Male","cave","10","M_cling.wav","space","465.772826341","137","224618.859009","231501.791195","217668.701748","218435.412327","219201.861037","219968.623249","220735.813356","221502.133759","225385.72603","226152.140112","226918.867078","227668.486563","228434.798309","229201.65791","229968.452585","230734.729704","230744.957462","Mapping"
"Blocked","Male","cave","10","M_cave.wav","None","731.39341583","137","224618.859009","231501.791195","232268.102014","218435.412327","219201.861037","219968.623249","220735.813356","221502.133759","225385.72603","226152.140112","226918.867078","227668.486563","228434.798309","229201.65791","229968.452585","230734.729704","231510.921698","Mapping"
"Blocked","Male","cave","10","M_park.wav","None","698.955581989","137","224618.859009","231501.791195","232268.102014","233035.276044","219201.861037","219968.623249","220735.813356","221502.133759","225385.72603","226152.140112","226918.867078","227668.486563","228434.798309","229201.65791","229968.452585","230734.729704","232309.080448","Mapping"
"Blocked","Male","cave","10","M_jolt.wav","space","157.961534569","137","224618.859009","231501.791195","232268.102014","233035.276044","233801.654262","219968.623249","220735.813356","221502.133759","225385.72603","226152.140112","226918.867078","227668.486563","228434.798309","229201.65791","229968.452585","230734.729704","233044.765806","Mapping"
"Blocked","Male","cave","10","M_romp.wav","None","727.683955804","137","224618.859009","231501.791195","232268.102014","233035.276044","233801.654262","234568.383392","220735.813356","221502.133759","225385.72603","226152.140112","226918.867078","227668.486563","228434.798309","229201.65791","229968.452585","230734.729704","233811.122073","Mapping"
"Blocked","Male","cave","10","M_cave.wav","None","727.194534615","137","224618.859009","231501.791195","232268.102014","233035.276044","233801.654262","234568.383392","235335.127671","221502.133759","225385.72603","226152.140112","226918.867078","227668.486563","228434.798309","229201.65791","229968.452585","230734.729704","234577.719804","Mapping"
"Blocked","Male","cave","10","M_romp.wav","space","402.089021401","137","224618.859009","231501.791195","232268.102014","233035.276044","233801.654262","234568.383392","235335.127671","236101.462606","225385.72603","226152.140112","226918.867078","227668.486563","228434.798309","229201.65791","229968.452585","230734.729704","235344.593937","Mapping"
"Blocked","Male","ball","2","M_tile.wav","None","725.242724176","137","239235.586577","231501.791195","232268.102014","233035.276044","233801.654262","234568.383392","235335.127671","236101.462606","225385.72603","226152.140112","226918.867078","227668.486563","228434.798309","229201.65791","229968.452585","230734.729704","236110.380088","Mapping"
"Blocked","Male","ball","2","M_cad.wav","None","721.380532486","137","239235.586577","231501.791195","232268.102014","233035.276044","233801.654262","234568.383392","235335.127671","236101.462606","240002.210279","226152.140112","226918.867078","227668.486563","228434.798309","229201.65791","229968.452585","230734.729704","239245.25937","Mapping"
"Blocked","Male","ball","2","M_ball.wav","None","720.452703768","137","239235.586577","231501.791195","232268.102014","233035.276044","233801.654262","234568.383392","235335.127671","236101.462606","240002.210279","240768.849131","226918.867078","227668.486563","228434.798309","229201.65791","229968.452585","230734.729704","240011.991901","Mapping"
"Blocked","Male","ball","2","M_greet.wav","space","343.979918514","137","239235.586577","231501.791195","232268.102014","233035.276044","233801.654262","234568.383392","235335.127671","236101.462606","240002.210279","240768.849131","241518.077202","227668.486563","228434.798309","229201.65791","229968.452585","230734.729704","240778.602308","Mapping"
"Blocked","Male","ball","2","M_ball.wav","None","735.620740918","137","239235.586577","231501.791195","232268.102014","233035.276044","233801.654262","234568.383392","235335.127671","236101.462606","240002.210279","240768.849131","241518.077202","242284.552192","228434.798309","229201.65791","229968.452585","230734.729704","241527.574694","Mapping"
"Blocked","Male","ball","2","M_romp.wav","space","348.65925496","137","239235.586577","231501.791195","232268.102014","233035.276044","233801.654262","234568.383392","235335.127671","236101.462606","240002.210279","240768.849131","241518.077202","242284.552192","243051.501762","229201.65791","229968.452585","230734.729704","242293.891387","Mapping"
"Blocked","Male","ball","2","M_done.wav","None","733.472296386","137","239235.586577","231501.791195","232268.102014","233035.276044","233801.654262","234568.383392","235335.127671","236101.462606","240002.210279","240768.849131","241518.077202","242284.552192","243051.501762","243818.162256","229968.452585","230734.729704","243060.723471","Mapping"
"Blocked","Male","ball","2","M_ball.wav","None","731.954565155","137","239235.586577","231501.791195","232268.102014","233035.276044","233801.654262","234568.383392","235335.127671","236101.462606","240002.210279","240768.849131","241518.077202","242284.552192","243051.501762","243818.162256","244584.506774","230734.729704","243828.157207","Mapping"
"Blocked","Male","ball","2","M_tile.wav","space","377.08834908","137","239235.586577","231501.791195","232268.102014","233035.276044","233801.654262","234568.383392","235335.127671","236101.462606","240002.210279","240768.849131","241518.077202","242284.552192","243051.501762","243818.162256","244584.506774","245351.139442","244593.442189","Mapping"
"Blocked","Male","ball","2","M_park.wav","None","730.831029708","137","239235.586577","246117.850022","232268.102014","233035.276044","233801.654262","234568.383392","235335.127671","236101.462606","240002.210279","240768.849131","241518.077202","242284.552192","243051.501762","243818.162256","244584.506774","245351.139442","245360.364243","Mapping"
"Blocked","Male","ball","2","M_ball.wav","None","731.090735178","137","239235.586577","246117.850022","246884.782588","233035.276044","233801.654262","234568.383392","235335.127671","236101.462606","240002.210279","240768.849131","241518.077202","242284.552192","243051.501762","243818.162256","244584.506774","245351.139442","246126.715563","Mapping"
"Blocked","Male","ball","2","M_lash.wav","space","420.097432914","137","239235.586577","246117.850022","246884.782588","247652.042259","233801.654262","234568.383392","235335.127671","236101.462606","240002.210279","240768.849131","241518.077202","242284.552192","243051.501762","243818.162256","244584.506774","245351.139442","246894.376851","Mapping"
"Blocked","Male","ball","2","M_jaw.wav","None","727.8734789","137","239235.586577","246117.850022","246884.782588","247652.042259","248417.639197","234568.383392","235335.127671","236101.462606","240002.210279","240768.849131","241518.077202","242284.552192","243051.501762","243818.162256","244584.506774","245351.139442","247661.555828","Mapping"
"Blocked","Male","ball","2","M_bluff.wav","None","730.851744418","137","239235.586577","246117.850022","246884.782588","247652.042259","248417.639197","249184.823739","235335.127671","236101.462606","240002.210279","240768.849131","241518.077202","242284.552192","243051.501762","243818.162256","244584.506774","245351.139442","248426.482787","Mapping"
"Blocked","Male","ball","2","M_cad.wav","None","728.769153706","137","239235.586577","246117.850022","246884.782588","247652.042259","248417.639197","249184.823739","249951.510512","236101.462606","240002.210279","240768.849131","241518.077202","242284.552192","243051.501762","243818.162256","244584.506774","245351.139442","249194.480145","Mapping"
"Blocked","Male","ball","2","M_jolt.wav","None","729.058539844","137","239235.586577","246117.850022","246884.782588","247652.042259","248417.639197","249184.823739","249951.510512","250718.070833","240002.210279","240768.849131","241518.077202","242284.552192","243051.501762","243818.162256","244584.506774","245351.139442","249960.387493","Mapping"
"Blocked","Male","cave","11","M_priest.wav","None","726.156949298","137","253851.863062","246117.850022","246884.782588","247652.042259","248417.639197","249184.823739","249951.510512","250718.070833","240002.210279","240768.849131","241518.077202","242284.552192","243051.501762","243818.162256","244584.506774","245351.139442","250729.184682","Mapping"
"Blocked","Male","cave","11","M_dime.wav","None","721.254080767","137","253851.863062","246117.850022","246884.782588","247652.042259","248417.639197","249184.823739","249951.510512","250718.070833","254618.262304","240768.849131","241518.077202","242284.552192","243051.501762","243818.162256","244584.506774","245351.139442","253862.609613","Mapping"
"Blocked","Male","cave","11","M_dime.wav","None","719.363486627","137","253851.863062","246117.850022","246884.782588","247652.042259","248417.639197","249184.823739","249951.510512","250718.070833","254618.262304","255384.853852","241518.077202","242284.552192","243051.501762","243818.162256","244584.506774","245351.139442","254630.320059","Mapping"
"Blocked","Male","cave","11","M_depth.wav","None","721.785240225","137","253851.863062","246117.850022","246884.782588","247652.042259","248417.639197","249184.823739","249951.510512","250718.070833","254618.262304","255384.853852","256151.421594","242284.552192","243051.501762","243818.162256","244584.506774","245351.139442","255393.865633","Mapping"
"Blocked","Male","cave","11","M_dime.wav","None","720.630169148","137","253851.863062","246117.850022","246884.782588","247652.042259","248417.639197","249184.823739","249951.510512","250718.070833","254618.262304","255384.853852","256151.421594","256918.130627","243051.501762","243818.162256","244584.506774","245351.139442","256160.987103","Mapping"
"Blocked","Male","cave","11","M_cave.wav","None","717.199583421","137","253851.863062","246117.850022","246884.782588","247652.042259","248417.639197","249184.823739","249951.510512","250718.070833","254618.262304","255384.853852","256151.421594","256918.130627","257667.991577","243818.162256","244584.506774","245351.139442","256930.349462","Mapping"
"Blocked","Male","cave","11","M_gnash.wav","space","452.724480536","137","253851.863062","246117.850022","246884.782588","247652.042259","248417.639197","249184.823739","249951.510512","250718.070833","254618.262304","255384.853852","256151.421594","256918.130627","257667.991577","258434.596419","244584.506774","245351.139442","257677.542865","Mapping"
"Blocked","Male","cave","11","M_romp.wav","None","734.376318869","137","253851.863062","246117.850022","246884.782588","247652.042259","248417.639197","249184.823739","249951.510512","250718.070833","254618.262304","255384.853852","256151.421594","256918.130627","257667.991577","258434.596419","259200.824689","245351.139442","258443.940561","Mapping"
"Blocked","Male","cave","11","M_done.wav","None","734.455158003","137","253851.863062","246117.850022","246884.782588","247652.042259","248417.639197","249184.823739","249951.510512","250718.070833","254618.262304","255384.853852","256151.421594","256918.130627","257667.991577","258434.596419","259200.824689","259967.957599","259209.90727","Mapping"
"Blocked","Male","cave","11","M_depth.wav","None","732.243951294","137","253851.863062","260734.196689","246884.782588","247652.042259","248417.639197","249184.823739","249951.510512","250718.070833","254618.262304","255384.853852","256151.421594","256918.130627","257667.991577","258434.596419","259200.824689","259967.957599","259978.025824","Mapping"
"Blocked","Male","cave","11","M_cave.wav","None","733.296995168","137","253851.863062","260734.196689","261501.380922","247652.042259","248417.639197","249184.823739","249951.510512","250718.070833","254618.262304","255384.853852","256151.421594","256918.130627","257667.991577","258434.596419","259200.824689","259967.957599","260743.321936","Mapping"
"Blocked","Male","cave","11","M_reek.wav","space","539.438287844","137","253851.863062","260734.196689","261501.380922","262267.861786","248417.639197","249184.823739","249951.510512","250718.070833","254618.262304","255384.853852","256151.421594","256918.130627","257667.991577","258434.596419","259200.824689","259967.957599","261510.765565","Mapping"
"Blocked","Male","cave","11","M_cave.wav","None","730.170017458","137","253851.863062","260734.196689","261501.380922","262267.861786","263034.224855","249184.823739","249951.510512","250718.070833","254618.262304","255384.853852","256151.421594","256918.130627","257667.991577","258434.596419","259200.824689","259967.957599","262277.202836","Mapping"
"Blocked","Male","cave","11","M_park.wav","space","470.931072021","137","253851.863062","260734.196689","261501.380922","262267.861786","263034.224855","263801.236569","249951.510512","250718.070833","254618.262304","255384.853852","256151.421594","256918.130627","257667.991577","258434.596419","259200.824689","259967.957599","263043.23478","Mapping"
"Blocked","Male","cave","11","M_cave.wav","None","727.861421066","137","253851.863062","260734.196689","261501.380922","262267.861786","263034.224855","263801.236569","264567.910357","250718.070833","254618.262304","255384.853852","256151.421594","256918.130627","257667.991577","258434.596419","259200.824689","259967.957599","263810.319459","Mapping"
"Blocked","Male","cave","11","M_depth.wav","space","568.698130432","137","253851.863062","260734.196689","261501.380922","262267.861786","263034.224855","263801.236569","264567.910357","265334.496031","254618.262304","255384.853852","256151.421594","256918.130627","257667.991577","258434.596419","259200.824689","259967.957599","264577.376004","Mapping"
"Blocked","Male","tile","14","M_lash.wav","None","725.518815801","137","268468.153151","260734.196689","261501.380922","262267.861786","263034.224855","263801.236569","264567.910357","265334.496031","254618.262304","255384.853852","256151.421594","256918.130627","257667.991577","258434.596419","259200.824689","259967.957599","265343.816675","Mapping"
"Blocked","Male","tile","14","M_ball.wav","None","721.165348077","137","268468.153151","260734.196689","261501.380922","262267.861786","263034.224855","263801.236569","264567.910357","265334.496031","269235.035012","255384.853852","256151.421594","256918.130627","257667.991577","258434.596419","259200.824689","259967.957599","268477.927352","Mapping"
"Blocked","Male","tile","14","M_romp.wav","None","720.299044624","137","268468.153151","260734.196689","261501.380922","262267.861786","263034.224855","263801.236569","264567.910357","265334.496031","269235.035012","270001.793823","256151.421594","256918.130627","257667.991577","258434.596419","259200.824689","259967.957599","269244.993481","Mapping"
"Blocked","Male","tile","14","M_tile.wav","None","720.117560006","137","268468.153151","260734.196689","261501.380922","262267.861786","263034.224855","263801.236569","264567.910357","265334.496031","269235.035012","270001.793823","270767.896877","256918.130627","257667.991577","258434.596419","259200.824689","259967.957599","270011.451157","Mapping"
"Blocked","Male","tile","14","M_priest.wav","space","384.313726681","137","268468.153151","260734.196689","261501.380922","262267.861786","263034.224855","263801.236569","264567.910357","265334.496031","269235.035012","270001.793823","270767.896877","271517.712069","257667.991577","258434.596419","259200.824689","259967.957599","270777.711271","Mapping"
"Blocked","Male","tile","14","M_tile.wav","None","735.656295903","137","268468.153151","260734.196689","261501.380922","262267.861786","263034.224855","263801.236569","264567.910357","265334.496031","269235.035012","270001.793823","270767.896877","271517.712069","272284.036491","258434.596419","259200.824689","259967.957599","271527.090838","Mapping"
"Blocked","Male","tile","14","M_ball.wav","space","292.408901267","137","268468.153151","260734.196689","261501.380922","262267.861786","263034.224855","263801.236569","264567.910357","265334.496031","269235.035012","270001.793823","270767.896877","271517.712069","272284.036491","273051.014505","259200.824689","259967.957599","272293.593035","Mapping"
"Blocked","Male","tile","14","M_tile.wav","None","734.107028926","137","268468.153151","260734.196689","261501.380922","262267.861786","263034.224855","263801.236569","264567.910357","265334.496031","269235.035012","270001.793823","270767.896877","271517.712069","272284.036491","273051.014505","273817.653048","259967.957599","273059.930133","Mapping"
"Blocked","Male","tile","14","M_lash.wav","space","478.793037357","137","268468.153151","260734.196689","261501.380922","262267.861786","263034.224855","263801.236569","264567.910357","265334.496031","269235.035012","270001.793823","270767.896877","271517.712069","272284.036491","273051.014505","273817.653048","274584.371357","273827.199389","Mapping"
"Blocked","Male","tile","14","M_depth.wav","None","731.529761106","137","268468.153151","275350.935079","261501.380922","262267.861786","263034.224855","263801.236569","264567.910357","265334.496031","269235.035012","270001.793823","270767.896877","271517.712069","272284.036491","273051.014505","273817.653048","274584.371357","274593.755691","Mapping"
"Blocked","Male","tile","14","M_reek.wav","None","731.766587822","137","268468.153151","275350.935079","276117.586606","262267.861786","263034.224855","263801.236569","264567.910357","265334.496031","269235.035012","270001.793823","270767.896877","271517.712069","272284.036491","273051.014505","273817.653048","274584.371357","275360.016423","Mapping"
"Blocked","Male","tile","14","M_reek.wav","None","730.585546233","137","268468.153151","275350.935079","276117.586606","276884.31048","263034.224855","263801.236569","264567.910357","265334.496031","269235.035012","270001.793823","270767.896877","271517.712069","272284.036491","273051.014505","273817.653048","274584.371357","276127.355552","Mapping"
"Blocked","Male","tile","14","M_done.wav","None","731.159062474","137","268468.153151","275350.935079","276117.586606","276884.31048","277650.857816","263801.236569","264567.910357","265334.496031","269235.035012","270001.793823","270767.896877","271517.712069","272284.036491","273051.014505","273817.653048","274584.371357","276893.551667","Mapping"
"Blocked","Male","tile","14","M_priest.wav","None","730.572870118","137","268468.153151","275350.935079","276117.586606","276884.31048","277650.857816","278417.585091","264567.910357","265334.496031","269235.035012","270001.793823","270767.896877","271517.712069","272284.036491","273051.014505","273817.653048","274584.371357","277660.440949","Mapping"
"Blocked","Male","tile","14","M_tile.wav","None","729.924224783","137","268468.153151","275350.935079","276117.586606","276884.31048","277650.857816","278417.585091","279184.271246","265334.496031","269235.035012","270001.793823","270767.896877","271517.712069","272284.036491","273051.014505","273817.653048","274584.371357","278427.537686","Mapping"
"Blocked","Male","tile","14","M_gnash.wav","space","536.30636353","137","268468.153151","275350.935079","276117.586606","276884.31048","277650.857816","278417.585091","279184.271246","279950.18756","269235.035012","270001.793823","270767.896877","271517.712069","272284.036491","273051.014505","273817.653048","274584.371357","279193.586016","Mapping"
"Blocked","Male","tile","15","M_reek.wav","None","731.647246983","137","283084.764161","275350.935079","276117.586606","276884.31048","277650.857816","278417.585091","279184.271246","279950.18756","269235.035012","270001.793823","270767.896877","271517.712069","272284.036491","273051.014505","273817.653048","274584.371357","279958.958494","Mapping"
"Blocked","Male","tile","15","M_priest.wav","None","721.070431755","137","283084.764161","275350.935079","276117.586606","276884.31048","277650.857816","278417.585091","279184.271246","279950.18756","283851.083946","270001.793823","270767.896877","271517.712069","272284.036491","273051.014505","273817.653048","274584.371357","283094.638226","Mapping"
"Blocked","Male","tile","15","M_tile.wav","None","720.924502006","137","283084.764161","275350.935079","276117.586606","276884.31048","277650.857816","278417.585091","279184.271246","279950.18756","283851.083946","284617.274187","270767.896877","271517.712069","272284.036491","273051.014505","273817.653048","274584.371357","283861.078588","Mapping"
"Blocked","Male","tile","15","M_jolt.wav","space","438.679051353","137","283084.764161","275350.935079","276117.586606","276884.31048","277650.857816","278417.585091","279184.271246","279950.18756","283851.083946","284617.274187","285384.53293","271517.712069","272284.036491","273051.014505","273817.653048","274584.371357","284627.164019","Mapping"
"Blocked","Male","tile","15","M_jaw.wav","None","719.07255461","137","283084.764161","275350.935079","276117.586606","276884.31048","277650.857816","278417.585091","279184.271246","279950.18756","283851.083946","284617.274187","285384.53293","286151.14272","272284.036491","273051.014505","273817.653048","274584.371357","285394.433584","Mapping"
"Blocked","Male","tile","15","M_tile.wav","None","718.697218341","137","283084.764161","275350.935079","276117.586606","276884.31048","277650.857816","278417.585091","279184.271246","279950.18756","283851.083946","284617.274187","285384.53293","286151.14272","286901.092093","273051.014505","273817.653048","274584.371357","286161.312972","Mapping"
"Blocked","Male","tile","15","M_greet.wav","space","371.364625636","137","283084.764161","275350.935079","276117.586606","276884.31048","277650.857816","278417.585091","279184.271246","279950.18756","283851.083946","284617.274187","285384.53293","286151.14272","286901.092093","287667.380341","273817.653048","274584.371357","286910.3778","Mapping"
"Blocked","Male","tile","15","M_priest.wav","None","734.229770722","137","283084.764161","275350.935079","276117.586606","276884.31048","277650.857816","278417.585091","279184.271246","279950.18756","283851.083946","284617.274187","285384.53293","286151.14272","286901.092093","287667.380341","288433.958286","274584.371357","287676.932247","Mapping"
"Blocked","Male","tile","15","M_cad.wav","None","733.616680256","137","283084.764161","275350.935079","276117.586606","276884.31048","277650.857816","278417.585091","279184.271246","279950.18756","283851.083946","284617.274187","285384.53293","286151.14272","286901.092093","287667.380341","288433.958286","289200.822215","288443.738671","Mapping"
"Blocked","Male","tile","15","M_tile.wav","None","733.826608863","137","283084.764161","289967.304934","276117.586606","276884.31048","277650.857816","278417.585091","279184.271246","279950.18756","283851.083946","284617.274187","285384.53293","286151.14272","286901.092093","287667.380341","288433.958286","289200.822215","289210.260036","Mapping"
"Blocked","Male","tile","15","M_gnash.wav","space","400.967341149","137","283084.764161","289967.304934","290733.648216","276884.31048","277650.857816","278417.585091","279184.271246","279950.18756","283851.083946","284617.274187","285384.53293","286151.14272","286901.092093","287667.380341","288433.958286","289200.822215","289976.736263","Mapping"
"Blocked","Male","tile","15","M_cave.wav","None","732.695344137","137","283084.764161","289967.304934","290733.648216","291500.624994","277650.857816","278417.585091","279184.271246","279950.18756","283851.083946","284617.274187","285384.53293","286151.14272","286901.092093","287667.380341","288433.958286","289200.822215","290742.75584","Mapping"
"Blocked","Male","tile","15","M_depth.wav","None","731.628387468","137","283084.764161","289967.304934","290733.648216","291500.624994","292267.336501","278417.585091","279184.271246","279950.18756","283851.083946","284617.274187","285384.53293","286151.14272","286901.092093","287667.380341","288433.958286","289200.822215","291510.018603","Mapping"
"Blocked","Male","tile","15","M_tile.wav","None","730.793619761","137","283084.764161","289967.304934","290733.648216","291500.624994","292267.336501","293034.005651","279184.271246","279950.18756","283851.083946","284617.274187","285384.53293","286151.14272","286901.092093","287667.380341","288433.958286","289200.822215","292277.034027","Mapping"
"Blocked","Male","tile","15","M_cad.wav","space","438.332468155","137","283084.764161","289967.304934","290733.648216","291500.624994","292267.336501","293034.005651","293800.592252","279950.18756","283851.083946","284617.274187","285384.53293","286151.14272","286901.092093","287667.380341","288433.958286","289200.822215","293043.308673","Mapping"
"Blocked","Male","tile","15","M_jolt.wav","None","729.067815002","137","283084.764161","289967.304934","290733.648216","291500.624994","292267.336501","293034.005651","293800.592252","294567.291702","283851.083946","284617.274187","285384.53293","286151.14272","286901.092093","287667.380341","288433.958286","289200.822215","293810.140139","Mapping"
"Blocked","Male","tile","13","M_jolt.wav","None","728.715048288","137","297701.313646","289967.304934","290733.648216","291500.624994","292267.336501","293034.005651","293800.592252","294567.291702","283851.083946","284617.274187","285384.53293","286151.14272","286901.092093","287667.380341","288433.958286","289200.822215","294577.032203","Mapping"
"Blocked","Male","tile","13","M_jaw.wav","None","721.730207442","137","297701.313646","289967.304934","290733.648216","291500.624994","292267.336501","293034.005651","293800.592252","294567.291702","298467.504815","284617.274187","285384.53293","286151.14272","286901.092093","287667.380341","288433.958286","289200.822215","297710.868953","Mapping"
"Blocked","Male","tile","13","M_tile.wav","None","722.200459801","137","297701.313646","289967.304934","290733.648216","291500.624994","292267.336501","293034.005651","293800.592252","294567.291702","298467.504815","299233.812851","285384.53293","286151.14272","286901.092093","287667.380341","288433.958286","289200.822215","298476.882656","Mapping"
"Blocked","Male","tile","13","M_cad.wav","space","446.012948756","137","297701.313646","289967.304934","290733.648216","291500.624994","292267.336501","293034.005651","293800.592252","294567.291702","298467.504815","299233.812851","300000.726557","286151.14272","286901.092093","287667.380341","288433.958286","289200.822215","299243.540985","Mapping"
"Blocked","Male","tile","13","M_tile.wav","None","720.123125124","137","297701.313646","289967.304934","290733.648216","291500.624994","292267.336501","293034.005651","293800.592252","294567.291702","298467.504815","299233.812851","300000.726557","300767.33109","286901.092093","287667.380341","288433.958286","289200.822215","300010.889389","Mapping"
"Blocked","Male","tile","13","M_depth.wav","space","376.558426186","137","297701.313646","289967.304934","290733.648216","291500.624994","292267.336501","293034.005651","293800.592252","294567.291702","298467.504815","299233.812851","300000.726557","300767.33109","301517.147828","287667.380341","288433.958286","289200.822215","300776.974821","Mapping"
"Blocked","Male","tile","13","M_bluff.wav","None","735.980927711","137","297701.313646","289967.304934","290733.648216","291500.624994","292267.336501","293034.005651","293800.592252","294567.291702","298467.504815","299233.812851","300000.726557","300767.33109","301517.147828","302283.688671","288433.958286","289200.822215","301526.409111","Mapping"
"Blocked","Male","tile","13","M_tile.wav","None","735.515622073","137","297701.313646","289967.304934","290733.648216","291500.624994","292267.336501","293034.005651","293800.592252","294567.291702","298467.504815","299233.812851","300000.726557","300767.33109","301517.147828","302283.688671","303050.059779","289200.822215","302293.247997","Mapping"
"Blocked","Male","tile","13","M_greet.wav","space","413.828018587","137","297701.313646","289967.304934","290733.648216","291500.624994","292267.336501","293034.005651","293800.592252","294567.291702","298467.504815","299233.812851","300000.726557","300767.33109","301517.147828","302283.688671","303050.059779","303816.857545","303059.631781","Mapping"
"Blocked","Male","tile","13","M_romp.wav","None","734.059416223","137","297701.313646","304583.840506","290733.648216","291500.624994","292267.336501","293034.005651","293800.592252","294567.291702","298467.504815","299233.812851","300000.726557","300767.33109","301517.147828","302283.688671","303050.059779","303816.857545","303826.025767","Mapping"
"Blocked","Male","tile","13","M_jaw.wav","None","733.303796966","137","297701.313646","304583.840506","305350.361872","291500.624994","292267.336501","293034.005651","293800.592252","294567.291702","298467.504815","299233.812851","300000.726557","300767.33109","301517.147828","302283.688671","303050.059779","303816.857545","304593.394267","Mapping"
"Blocked","Male","tile","13","M_tile.wav","None","733.138080104","137","297701.313646","304583.840506","305350.361872","306116.804089","292267.336501","293034.005651","293800.592252","294567.291702","298467.504815","299233.812851","300000.726557","300767.33109","301517.147828","302283.688671","303050.059779","303816.857545","305359.862455","Mapping"
"Blocked","Male","tile","13","M_romp.wav","space","385.310810176","137","297701.313646","304583.840506","305350.361872","306116.804089","306883.785195","293034.005651","293800.592252","294567.291702","298467.504815","299233.812851","300000.726557","300767.33109","301517.147828","302283.688671","303050.059779","303816.857545","306128.133432","Mapping"
"Blocked","Male","tile","13","M_park.wav","None","732.021655655","137","297701.313646","304583.840506","305350.361872","306116.804089","306883.785195","307650.358502","293800.592252","294567.291702","298467.504815","299233.812851","300000.726557","300767.33109","301517.147828","302283.688671","303050.059779","303816.857545","306893.369874","Mapping"
"Blocked","Male","tile","13","M_lash.wav","None","731.933541363","137","297701.313646","304583.840506","305350.361872","306116.804089","306883.785195","307650.358502","308416.732392","294567.291702","298467.504815","299233.812851","300000.726557","300767.33109","301517.147828","302283.688671","303050.059779","303816.857545","307659.847646","Mapping"
"Blocked","Male","tile","13","M_bluff.wav","None","731.998467701","137","297701.313646","304583.840506","305350.361872","306116.804089","306883.785195","307650.358502","308416.732392","309183.784608","298467.504815","299233.812851","300000.726557","300767.33109","301517.147828","302283.688671","303050.059779","303816.857545","308426.113943","Mapping"
"Blocked","Male","tile","17","M_depth.wav","None","731.503790594","137","312317.397516","304583.840506","305350.361872","306116.804089","306883.785195","307650.358502","308416.732392","309183.784608","298467.504815","299233.812851","300000.726557","300767.33109","301517.147828","302283.688671","303050.059779","303816.857545","309193.041872","Mapping"
"Blocked","Male","tile","17","M_gnash.wav","None","722.637321684","137","312317.397516","304583.840506","305350.361872","306116.804089","306883.785195","307650.358502","308416.732392","309183.784608","313084.060174","299233.812851","300000.726557","300767.33109","301517.147828","302283.688671","303050.059779","303816.857545","312327.227369","Mapping"
"Blocked","Male","tile","17","M_ball.wav","None","722.354737227","137","312317.397516","304583.840506","305350.361872","306116.804089","306883.785195","307650.358502","308416.732392","309183.784608","313084.060174","313850.55866","300000.726557","300767.33109","301517.147828","302283.688671","303050.059779","303816.857545","313093.892191","Mapping"
"Blocked","Male","tile","17","M_priest.wav","None","722.195513081","137","312317.397516","304583.840506","305350.361872","306116.804089","306883.785195","307650.358502","308416.732392","309183.784608","313084.060174","313850.55866","314617.093011","300767.33109","301517.147828","302283.688671","303050.059779","303816.857545","313860.381402","Mapping"
"Blocked","Male","tile","17","M_tile.wav","None","721.602209727","137","312317.397516","304583.840506","305350.361872","306116.804089","306883.785195","307650.358502","308416.732392","309183.784608","313084.060174","313850.55866","314617.093011","315383.971781","301517.147828","302283.688671","303050.059779","303816.857545","314627.378894","Mapping"
"Blocked","Male","tile","17","M_greet.wav","space","447.961976635","137","312317.397516","304583.840506","305350.361872","306116.804089","306883.785195","307650.358502","308416.732392","309183.784608","313084.060174","313850.55866","314617.093011","315383.971781","316150.349381","302283.688671","303050.059779","303816.857545","315393.324889","Mapping"
"Blocked","Male","tile","17","M_knife.wav","None","720.4168397","137","312317.397516","304583.840506","305350.361872","306116.804089","306883.785195","307650.358502","308416.732392","309183.784608","313084.060174","313850.55866","314617.093011","315383.971781","316150.349381","316917.209291","303050.059779","303816.857545","316160.075043","Mapping"
"Blocked","Male","tile","17","M_ball.wav","None","719.685954275","137","312317.397516","304583.840506","305350.361872","306116.804089","306883.785195","307650.358502","308416.732392","309183.784608","313084.060174","313850.55866","314617.093011","315383.971781","316150.349381","316917.209291","317683.911214","303816.857545","316927.253092","Mapping"
"Blocked","Male","tile","17","M_tile.wav","None","719.17798277","137","312317.397516","304583.840506","305350.361872","306116.804089","306883.785195","307650.358502","308416.732392","309183.784608","313084.060174","313850.55866","314617.093011","315383.971781","316150.349381","316917.209291","317683.911214","318450.385276","317694.107128","Mapping"
"Blocked","Male","tile","17","M_greet.wav","space","349.327687407","137","312317.397516","319199.942308","305350.361872","306116.804089","306883.785195","307650.358502","308416.732392","309183.784608","313084.060174","313850.55866","314617.093011","315383.971781","316150.349381","316917.209291","317683.911214","318450.385276","318459.841338","Mapping"
"Blocked","Male","tile","17","M_tile.wav","None","735.406793188","137","312317.397516","319199.942308","319966.439868","306116.804089","306883.785195","307650.358502","308416.732392","309183.784608","313084.060174","313850.55866","314617.093011","315383.971781","316150.349381","316917.209291","317683.911214","318450.385276","319209.186587","Mapping"
"Blocked","Male","tile","17","M_park.wav","space","497.508527827","137","312317.397516","319199.942308","319966.439868","320733.472606","306883.785195","307650.358502","308416.732392","309183.784608","313084.060174","313850.55866","314617.093011","315383.971781","316150.349381","316917.209291","317683.911214","318450.385276","319975.673943","Mapping"
"Blocked","Male","tile","17","M_cad.wav","None","732.796443743","137","312317.397516","319199.942308","319966.439868","320733.472606","321499.748178","307650.358502","308416.732392","309183.784608","313084.060174","313850.55866","314617.093011","315383.971781","316150.349381","316917.209291","317683.911214","318450.385276","320743.10366","Mapping"
"Blocked","Male","tile","17","M_cling.wav","None","733.158485615","137","312317.397516","319199.942308","319966.439868","320733.472606","321499.748178","322266.764839","308416.732392","309183.784608","313084.060174","313850.55866","314617.093011","315383.971781","316150.349381","316917.209291","317683.911214","318450.385276","321509.08861","Mapping"
"Blocked","Male","tile","17","M_tile.wav","None","732.675247826","137","312317.397516","319199.942308","319966.439868","320733.472606","321499.748178","322266.764839","323033.091735","309183.784608","313084.060174","313850.55866","314617.093011","315383.971781","316150.349381","316917.209291","317683.911214","318450.385276","322276.214718","Mapping"
"Blocked","Male","tile","17","M_cave.wav","space","447.074649623","137","312317.397516","319199.942308","319966.439868","320733.472606","321499.748178","322266.764839","323033.091735","323800.022446","313084.060174","313850.55866","314617.093011","315383.971781","316150.349381","316917.209291","317683.911214","318450.385276","323042.017256","Mapping"
"Blocked","Male","done","20","M_dime.wav","None","730.8523627","137","326933.793033","319199.942308","319966.439868","320733.472606","321499.748178","322266.764839","323033.091735","323800.022446","313084.060174","313850.55866","314617.093011","315383.971781","316150.349381","316917.209291","317683.911214","318450.385276","323809.508189","Mapping"
"Blocked","Male","done","20","M_cad.wav","None","722.498193616","137","326933.793033","319199.942308","319966.439868","320733.472606","321499.748178","322266.764839","323033.091735","323800.022446","327700.230922","313850.55866","314617.093011","315383.971781","316150.349381","316917.209291","317683.911214","318450.385276","326943.637107","Mapping"
"Blocked","Male","done","20","M_lash.wav","None","722.482735058","137","326933.793033","319199.942308","319966.439868","320733.472606","321499.748178","322266.764839","323033.091735","323800.022446","327700.230922","328466.859879","314617.093011","315383.971781","316150.349381","316917.209291","317683.911214","318450.385276","327710.044079","Mapping"
"Blocked","Male","done","20","M_done.wav","None","722.918669228","137","326933.793033","319199.942308","319966.439868","320733.472606","321499.748178","322266.764839","323033.091735","323800.022446","327700.230922","328466.859879","329233.835729","315383.971781","316150.349381","316917.209291","317683.911214","318450.385276","328476.03985","Mapping"
"Blocked","Male","done","20","M_priest.wav","space","437.038578326","137","326933.793033","319199.942308","319966.439868","320733.472606","321499.748178","322266.764839","323033.091735","323800.022446","327700.230922","328466.859879","329233.835729","330000.23188","316150.349381","316917.209291","317683.911214","318450.385276","329243.90952","Mapping"
"Blocked","Male","done","20","M_bluff.wav","None","720.566788688","137","326933.793033","319199.942308","319966.439868","320733.472606","321499.748178","322266.764839","323033.091735","323800.022446","327700.230922","328466.859879","329233.835729","330000.23188","330766.991309","316917.209291","317683.911214","318450.385276","330010.028651","Mapping"
"Blocked","Male","done","20","M_jaw.wav","None","720.318831853","137","326933.793033","319199.942308","319966.439868","320733.472606","321499.748178","322266.764839","323033.091735","323800.022446","327700.230922","328466.859879","329233.835729","330000.23188","330766.991309","331533.79093","317683.911214","318450.385276","330776.739231","Mapping"
"Blocked","Male","done","20","M_ball.wav","None","719.628757099","137","326933.793033","319199.942308","319966.439868","320733.472606","321499.748178","322266.764839","323033.091735","323800.022446","327700.230922","328466.859879","329233.835729","330000.23188","330766.991309","331533.79093","332299.714664","318450.385276","331543.837823","Mapping"
"Blocked","Male","done","20","M_done.wav","None","720.611309633","137","326933.793033","319199.942308","319966.439868","320733.472606","321499.748178","322266.764839","323033.091735","323800.022446","327700.230922","328466.859879","329233.835729","330000.23188","330766.991309","331533.79093","332299.714664","333066.966915","332309.319129","Mapping"
"Blocked","Male","done","20","M_cad.wav","space","468.271873309","137","326933.793033","333816.671114","319966.439868","320733.472606","321499.748178","322266.764839","323033.091735","323800.022446","327700.230922","328466.859879","329233.835729","330000.23188","330766.991309","331533.79093","332299.714664","333066.966915","333076.622703","Mapping"
"Blocked","Male","done","20","M_depth.wav","None","735.58333097","137","326933.793033","333816.671114","334583.164963","320733.472606","321499.748178","322266.764839","323033.091735","323800.022446","327700.230922","328466.859879","329233.835729","330000.23188","330766.991309","331533.79093","332299.714664","333066.966915","333826.34236","Mapping"
"Blocked","Male","done","20","M_park.wav","None","735.886629904","137","326933.793033","333816.671114","334583.164963","335349.525249","321499.748178","322266.764839","323033.091735","323800.022446","327700.230922","328466.859879","329233.835729","330000.23188","330766.991309","331533.79093","332299.714664","333066.966915","334592.379252","Mapping"
"Blocked","Male","done","20","M_done.wav","None","735.920948093","137","326933.793033","333816.671114","334583.164963","335349.525249","336116.075677","322266.764839","323033.091735","323800.022446","327700.230922","328466.859879","329233.835729","330000.23188","330766.991309","331533.79093","332299.714664","333066.966915","335358.8697","Mapping"
"Blocked","Male","done","20","M_dime.wav","space","691.95126323","137","326933.793033","333816.671114","334583.164963","335349.525249","336116.075677","336882.946717","323033.091735","323800.022446","327700.230922","328466.859879","329233.835729","330000.23188","330766.991309","331533.79093","332299.714664","333066.966915","336124.943692","Mapping"
"Blocked","Male","done","20","M_done.wav","None","734.192051576","137","326933.793033","333816.671114","334583.164963","335349.525249","336116.075677","336882.946717","337649.498073","323800.022446","327700.230922","328466.859879","329233.835729","330000.23188","330766.991309","331533.79093","332299.714664","333066.966915","336892.385775","Mapping"
"Blocked","Male","done","20","M_cling.wav","space","662.039065268","137","326933.793033","333816.671114","334583.164963","335349.525249","336116.075677","336882.946717","337649.498073","338416.433421","327700.230922","328466.859879","329233.835729","330000.23188","330766.991309","331533.79093","332299.714664","333066.966915","337658.801713","Mapping"
"Blocked","Male","done","23","M_reek.wav","None","731.985173305","137","341550.603769","333816.671114","334583.164963","335349.525249","336116.075677","336882.946717","337649.498073","338416.433421","327700.230922","328466.859879","329233.835729","330000.23188","330766.991309","331533.79093","332299.714664","333066.966915","338425.859185","Mapping"
"Blocked","Male","done","23","M_done.wav","None","721.684449818","137","341550.603769","333816.671114","334583.164963","335349.525249","336116.075677","336882.946717","337649.498073","338416.433421","342316.762474","328466.859879","329233.835729","330000.23188","330766.991309","331533.79093","332299.714664","333066.966915","341560.011291","Mapping"
"Blocked","Male","done","23","M_depth.wav","space","497.985272785","137","341550.603769","333816.671114","334583.164963","335349.525249","336116.075677","336882.946717","337649.498073","338416.433421","342316.762474","343083.079786","329233.835729","330000.23188","330766.991309","331533.79093","332299.714664","333066.966915","342326.768247","Mapping"
"Blocked","Male","done","23","M_romp.wav","None","720.755075105","137","341550.603769","333816.671114","334583.164963","335349.525249","336116.075677","336882.946717","337649.498073","338416.433421","342316.762474","343083.079786","343850.045433","330000.23188","330766.991309","331533.79093","332299.714664","333066.966915","343092.315717","Mapping"
"Blocked","Male","done","23","M_jaw.wav","None","719.945350545","137","341550.603769","333816.671114","334583.164963","335349.525249","336116.075677","336882.946717","337649.498073","338416.433421","342316.762474","343083.079786","343850.045433","344616.258553","330766.991309","331533.79093","332299.714664","333066.966915","343859.728428","Mapping"
"Blocked","Male","done","23","M_park.wav","None","720.696641365","137","341550.603769","333816.671114","334583.164963","335349.525249","336116.075677","336882.946717","337649.498073","338416.433421","342316.762474","343083.079786","343850.045433","344616.258553","345383.542649","331533.79093","332299.714664","333066.966915","344625.589709","Mapping"
"Blocked","Male","done","23","M_depth.wav","None","719.429031247","137","341550.603769","333816.671114","334583.164963","335349.525249","336116.075677","336882.946717","337649.498073","338416.433421","342316.762474","343083.079786","343850.045433","344616.258553","345383.542649","346150.517571","332299.714664","333066.966915","345393.358898","Mapping"
"Blocked","Male","done","23","M_gnash.wav","None","719.697393593","137","341550.603769","333816.671114","334583.164963","335349.525249","336116.075677","336882.946717","337649.498073","338416.433421","342316.762474","343083.079786","343850.045433","344616.258553","345383.542649","346150.517571","346916.67133","333066.966915","346159.649929","Mapping"
"Blocked","Male","done","23","M_done.wav","None","718.653934076","137","341550.603769","333816.671114","334583.164963","335349.525249","336116.075677","336882.946717","337649.498073","338416.433421","342316.762474","343083.079786","343850.045433","344616.258553","345383.542649","346150.517571","346916.67133","347683.384692","346927.198059","Mapping"
"Blocked","Male","done","23","M_gnash.wav","space","459.576067864","137","341550.603769","348432.665633","334583.164963","335349.525249","336116.075677","336882.946717","337649.498073","338416.433421","342316.762474","343083.079786","343850.045433","344616.258553","345383.542649","346150.517571","346916.67133","347683.384692","347693.067997","Mapping"
"Blocked","Male","done","23","M_priest.wav","None","735.506655998","137","341550.603769","348432.665633","349199.599744","335349.525249","336116.075677","336882.946717","337649.498073","338416.433421","342316.762474","343083.079786","343850.045433","344616.258553","345383.542649","346150.517571","346916.67133","347683.384692","348441.691017","Mapping"
"Blocked","Male","done","23","M_done.wav","None","735.111223417","137","341550.603769","348432.665633","349199.599744","349966.175524","336116.075677","336882.946717","337649.498073","338416.433421","342316.762474","343083.079786","343850.045433","344616.258553","345383.542649","346150.517571","346916.67133","347683.384692","349208.666558","Mapping"
"Blocked","Male","done","23","M_jolt.wav","space","552.937408211","137","341550.603769","348432.665633","349199.599744","349966.175524","350732.863534","336882.946717","337649.498073","338416.433421","342316.762474","343083.079786","343850.045433","344616.258553","345383.542649","346150.517571","346916.67133","347683.384692","349975.657248","Mapping"
"Blocked","Male","done","23","M_done.wav","None","733.026159462","137","341550.603769","348432.665633","349199.599744","349966.175524","350732.863534","351499.613997","337649.498073","338416.433421","342316.762474","343083.079786","343850.045433","344616.258553","345383.542649","346150.517571","346916.67133","347683.384692","350742.540656","Mapping"
"Blocked","Male","done","23","M_park.wav","None","733.440760756","137","341550.603769","348432.665633","349199.599744","349966.175524","350732.863534","351499.613997","352266.239245","338416.433421","342316.762474","343083.079786","343850.045433","344616.258553","345383.542649","346150.517571","346916.67133","347683.384692","351508.681429","Mapping"
"Blocked","Male","done","23","M_gnash.wav","space","28.5524541978","137","341550.603769","348432.665633","349199.599744","349966.175524","350732.863534","351499.613997","352266.239245","353033.082769","342316.762474","343083.079786","343850.045433","344616.258553","345383.542649","346150.517571","346916.67133","347683.384692","352276.037871","Mapping"
"Blocked","Male","done","21","M_park.wav","None","731.349203968","137","356166.497188","348432.665633","349199.599744","349966.175524","350732.863534","351499.613997","352266.239245","353033.082769","342316.762474","343083.079786","343850.045433","344616.258553","345383.542649","346150.517571","346916.67133","347683.384692","353042.598811","Mapping"
"Blocked","Male","done","21","M_jaw.wav","None","721.203994588","137","356166.497188","348432.665633","349199.599744","349966.175524","350732.863534","351499.613997","352266.239245","353033.082769","356933.349369","343083.079786","343850.045433","344616.258553","345383.542649","346150.517571","346916.67133","347683.384692","356176.306017","Mapping"
"Blocked","Male","done","21","M_done.wav","None","720.566788688","137","356166.497188","348432.665633","349199.599744","349966.175524","350732.863534","351499.613997","352266.239245","353033.082769","356933.349369","357699.79777","343850.045433","344616.258553","345383.542649","346150.517571","346916.67133","347683.384692","356943.144904","Mapping"
"Blocked","Male","done","21","M_jaw.wav","space","554.646208417","137","356166.497188","348432.665633","349199.599744","349966.175524","350732.863534","351499.613997","352266.239245","353033.082769","356933.349369","357699.79777","358466.479905","344616.258553","345383.542649","346150.517571","346916.67133","347683.384692","357709.814363","Mapping"
"Blocked","Male","done","21","M_gnash.wav","None","718.540158356","137","356166.497188","348432.665633","349199.599744","349966.175524","350732.863534","351499.613997","352266.239245","353033.082769","356933.349369","357699.79777","358466.479905","359233.15864","345383.542649","346150.517571","346916.67133","347683.384692","358476.524633","Mapping"
"Blocked","Male","done","21","M_done.wav","None","718.818723341","137","356166.497188","348432.665633","349199.599744","349966.175524","350732.863534","351499.613997","352266.239245","353033.082769","356933.349369","357699.79777","358466.479905","359233.15864","359999.638886","346150.517571","346916.67133","347683.384692","359243.017246","Mapping"
"Blocked","Male","done","21","M_cave.wav","space","567.273151013","137","356166.497188","348432.665633","349199.599744","349966.175524","350732.863534","351499.613997","352266.239245","353033.082769","356933.349369","357699.79777","358466.479905","359233.15864","359999.638886","360749.528588","346916.67133","347683.384692","360009.145034","Mapping"
"Blocked","Male","done","21","M_jolt.wav","None","734.324377729","137","356166.497188","348432.665633","349199.599744","349966.175524","350732.863534","351499.613997","352266.239245","353033.082769","356933.349369","357699.79777","358466.479905","359233.15864","359999.638886","360749.528588","361516.014708","347683.384692","360758.959917","Mapping"
"Blocked","Male","done","21","M_done.wav","None","734.459486441","137","356166.497188","348432.665633","349199.599744","349966.175524","350732.863534","351499.613997","352266.239245","353033.082769","356933.349369","357699.79777","358466.479905","359233.15864","359999.638886","360749.528588","361516.014708","362282.438993","361525.430269","Mapping"
"Blocked","Male","done","21","M_lash.wav","space","612.70337028","137","356166.497188","363049.535112","349199.599744","349966.175524","350732.863534","351499.613997","352266.239245","353033.082769","356933.349369","357699.79777","358466.479905","359233.15864","359999.638886","360749.528588","361516.014708","362282.438993","362291.68389","Mapping"
"Blocked","Male","done","21","M_lash.wav","None","733.443234116","137","356166.497188","363049.535112","363815.996189","349966.175524","350732.863534","351499.613997","352266.239245","353033.082769","356933.349369","357699.79777","358466.479905","359233.15864","359999.638886","360749.528588","361516.014708","362282.438993","363058.647373","Mapping"
"Blocked","Male","done","21","M_priest.wav","None","733.058931772","137","356166.497188","363049.535112","363815.996189","364582.270525","350732.863534","351499.613997","352266.239245","353033.082769","356933.349369","357699.79777","358466.479905","359233.15864","359999.638886","360749.528588","361516.014708","362282.438993","363825.595089","Mapping"
"Blocked","Male","done","21","M_done.wav","None","734.160206746","137","356166.497188","363049.535112","363815.996189","364582.270525","365349.173101","351499.613997","352266.239245","353033.082769","356933.349369","357699.79777","358466.479905","359233.15864","359999.638886","360749.528588","361516.014708","362282.438993","364591.322498","Mapping"
"Blocked","Male","done","21","M_cad.wav","space","593.844732619","137","356166.497188","363049.535112","363815.996189","364582.270525","365349.173101","366115.985398","352266.239245","353033.082769","356933.349369","357699.79777","358466.479905","359233.15864","359999.638886","360749.528588","361516.014708","362282.438993","365358.508276","Mapping"
