"Condition","Talker","Target","Trial","current_stimulus","response_response","response_time_response","subject_nr","time_Audio1","time_Audio10","time_Audio11","time_Audio12","time_Audio13","time_Audio14","time_Audio15","time_Audio16","time_Audio2","time_Audio3","time_Audio4","time_Audio5","time_Audio6","time_Audio7","time_Audio8","time_Audio9","time_response"
"Blocked","Female","ball","6","F_jaw.wav","NA","NA","218","211618.569893","NA","NA","NA","NA","NA","NA","NA","NA","NA","NA","NA","NA","NA","NA","NA","NA"
"Blocked","Female","ball","6","F_jolt.wav","None","716.785305296","218","211618.569893","NA","NA","NA","NA","NA","NA","NA","212385.36738","NA","NA","NA","NA","NA","NA","NA","211633.162383"
"Blocked","Female","ball","6","F_done.wav","None","721.139648129","218","211618.569893","NA","NA","NA","NA","NA","NA","NA","212385.36738","213152.00719","NA","NA","NA","NA","NA","NA","212394.951943"
"Blocked","Female","ball","6","F_park.wav","None","719.450655321","218","211618.569893","NA","NA","NA","NA","NA","NA","NA","212385.36738","213152.00719","213901.190983","NA","NA","NA","NA","NA","213162.023663"
"Blocked","Female","ball","6","F_jaw.wav","None","736.181670465","218","211618.569893","NA","NA","NA","NA","NA","NA","NA","212385.36738","213152.00719","213901.190983","214668.146764","NA","NA","NA","NA","213911.023809"
"Blocked","Female","ball","6","F_priest.wav","None","735.353096272","218","211618.569893","NA","NA","NA","NA","NA","NA","NA","212385.36738","213152.00719","213901.190983","214668.146764","215434.84408","NA","NA","NA","214677.419993"
"Blocked","Female","ball","6","F_ball.wav","None","734.490204268","218","211618.569893","NA","NA","NA","NA","NA","NA","NA","212385.36738","213152.00719","213901.190983","214668.146764","215434.84408","216201.169155","NA","NA","215444.041253"
"Blocked","Female","ball","6","F_park.wav","space","443.819887747","218","211618.569893","NA","NA","NA","NA","NA","NA","NA","212385.36738","213152.00719","213901.190983","214668.146764","215434.84408","216201.169155","216967.744967","NA","216209.862073"
"Blocked","Female","ball","6","F_ball.wav","space","452.787657472","218","211618.569893","NA","NA","NA","NA","NA","NA","NA","212385.36738","213152.00719","213901.190983","214668.146764","215434.84408","216201.169155","216967.744967","217735.072061","216976.851554"
"Blocked","Female","ball","6","F_jaw.wav","None","731.914822565","218","211618.569893","218501.496999","NA","NA","NA","NA","NA","NA","212385.36738","213152.00719","213901.190983","214668.146764","215434.84408","216201.169155","216967.744967","217735.072061","217744.114341"
"Blocked","Female","ball","6","F_ball.wav","None","730.570862885","218","211618.569893","218501.496999","219268.270061","NA","NA","NA","NA","NA","212385.36738","213152.00719","213901.190983","214668.146764","215434.84408","216201.169155","216967.744967","217735.072061","218510.831443"
"Blocked","Female","ball","6","F_depth.wav","space","512.394913298","218","211618.569893","218501.496999","219268.270061","220035.089189","NA","NA","NA","NA","212385.36738","213152.00719","213901.190983","214668.146764","215434.84408","216201.169155","216967.744967","217735.072061","219277.172596"
"Blocked","Female","ball","6","F_ball.wav","None","730.493261333","218","211618.569893","218501.496999","219268.270061","220035.089189","220801.725908","NA","NA","NA","212385.36738","213152.00719","213901.190983","214668.146764","215434.84408","216201.169155","216967.744967","217735.072061","220044.204433"
"Blocked","Female","ball","6","F_knife.wav","space","282.467432087","218","211618.569893","218501.496999","219268.270061","220035.089189","220801.725908","221567.960397","NA","NA","212385.36738","213152.00719","213901.190983","214668.146764","215434.84408","216201.169155","216967.744967","217735.072061","220811.051077"
"Blocked","Female","ball","6","F_romp.wav","None","729.249472555","218","211618.569893","218501.496999","219268.270061","220035.089189","220801.725908","221567.960397","222335.051903","NA","212385.36738","213152.00719","213901.190983","214668.146764","215434.84408","216201.169155","216967.744967","217735.072061","221576.701854"
"Blocked","Female","ball","6","F_depth.wav","None","727.039529171","218","211618.569893","218501.496999","219268.270061","220035.089189","220801.725908","221567.960397","222335.051903","223101.222394","212385.36738","213152.00719","213901.190983","214668.146764","215434.84408","216201.169155","216967.744967","217735.072061","222344.69088"
"Blocked","Female","tile","18","F_cad.wav","None","727.187003009","218","226235.311977","218501.496999","219268.270061","220035.089189","220801.725908","221567.960397","222335.051903","223101.222394","212385.36738","213152.00719","213901.190983","214668.146764","215434.84408","216201.169155","216967.744967","217735.072061","223110.386487"
"Blocked","Female","tile","18","F_tile.wav","None","722.55069761","218","226235.311977","218501.496999","219268.270061","220035.089189","220801.725908","221567.960397","222335.051903","223101.222394","227001.797511","213152.00719","213901.190983","214668.146764","215434.84408","216201.169155","216967.744967","217735.072061","226244.881081"
"Blocked","Female","tile","18","F_lash.wav","space","657.598210775","218","226235.311977","218501.496999","219268.270061","220035.089189","220801.725908","221567.960397","222335.051903","223101.222394","227001.797511","227768.607674","213901.190983","214668.146764","215434.84408","216201.169155","216967.744967","217735.072061","227011.751222"
"Blocked","Female","tile","18","F_cave.wav","None","720.97764333","218","226235.311977","218501.496999","219268.270061","220035.089189","220801.725908","221567.960397","222335.051903","223101.222394","227001.797511","227768.607674","228535.686195","214668.146764","215434.84408","216201.169155","216967.744967","217735.072061","227778.469871"
"Blocked","Female","tile","18","F_tile.wav","None","720.031275574","218","226235.311977","218501.496999","219268.270061","220035.089189","220801.725908","221567.960397","222335.051903","223101.222394","227001.797511","227768.607674","228535.686195","229301.787742","215434.84408","216201.169155","216967.744967","217735.072061","228545.373403"
"Blocked","Female","tile","18","F_gnash.wav","space","365.458720931","218","226235.311977","218501.496999","219268.270061","220035.089189","220801.725908","221567.960397","222335.051903","223101.222394","227001.797511","227768.607674","228535.686195","229301.787742","230068.438682","216201.169155","216967.744967","217735.072061","229311.809161"
"Blocked","Female","tile","18","F_gnash.wav","None","718.639394618","218","226235.311977","218501.496999","219268.270061","220035.089189","220801.725908","221567.960397","222335.051903","223101.222394","227001.797511","227768.607674","228535.686195","229301.787742","230068.438682","230818.191655","216967.744967","217735.072061","230078.420218"
"Blocked","Female","tile","18","F_dime.wav","None","735.850240788","218","226235.311977","218501.496999","219268.270061","220035.089189","220801.725908","221567.960397","222335.051903","223101.222394","227001.797511","227768.607674","228535.686195","229301.787742","230068.438682","230818.191655","231584.369566","217735.072061","230827.186014"
"Blocked","Female","tile","18","F_gnash.wav","None","735.012700679","218","226235.311977","218501.496999","219268.270061","220035.089189","220801.725908","221567.960397","222335.051903","223101.222394","227001.797511","227768.607674","228535.686195","229301.787742","230068.438682","230818.191655","231584.369566","232350.869941","231593.960003"
"Blocked","Female","tile","18","F_tile.wav","None","735.346603717","218","226235.311977","233117.809646","219268.270061","220035.089189","220801.725908","221567.960397","222335.051903","223101.222394","227001.797511","227768.607674","228535.686195","229301.787742","230068.438682","230818.191655","231584.369566","232350.869941","232359.717135"
"Blocked","Female","tile","18","F_cad.wav","space","485.894452009","218","226235.311977","233117.809646","233884.630938","220035.089189","220801.725908","221567.960397","222335.051903","223101.222394","227001.797511","227768.607674","228535.686195","229301.787742","230068.438682","230818.191655","231584.369566","232350.869941","233127.269922"
"Blocked","Female","tile","18","F_bluff.wav","None","732.850369401","218","226235.311977","233117.809646","233884.630938","234651.253744","220801.725908","221567.960397","222335.051903","223101.222394","227001.797511","227768.607674","228535.686195","229301.787742","230068.438682","230818.191655","231584.369566","232350.869941","233893.923954"
"Blocked","Female","tile","18","F_tile.wav","None","731.881123109","218","226235.311977","233117.809646","233884.630938","234651.253744","235418.027115","221567.960397","222335.051903","223101.222394","227001.797511","227768.607674","228535.686195","229301.787742","230068.438682","230818.191655","231584.369566","232350.869941","234660.799042"
"Blocked","Female","tile","18","F_done.wav","space","481.780333852","218","226235.311977","233117.809646","233884.630938","234651.253744","235418.027115","236184.5649","222335.051903","223101.222394","227001.797511","227768.607674","228535.686195","229301.787742","230068.438682","230818.191655","231584.369566","232350.869941","235427.307765"
"Blocked","Female","tile","18","F_lash.wav","None","730.647846081","218","226235.311977","233117.809646","233884.630938","234651.253744","235418.027115","236184.5649","236951.161117","223101.222394","227001.797511","227768.607674","228535.686195","229301.787742","230068.438682","230818.191655","231584.369566","232350.869941","236193.678597"
"Blocked","Female","tile","18","F_jolt.wav","None","729.040474005","218","226235.311977","233117.809646","233884.630938","234651.253744","235418.027115","236184.5649","236951.161117","237717.893987","227001.797511","227768.607674","228535.686195","229301.787742","230068.438682","230818.191655","231584.369566","232350.869941","236960.852961"
"Blocked","Female","ball","2","F_jolt.wav","None","728.526325169","218","240851.508994","233117.809646","233884.630938","234651.253744","235418.027115","236184.5649","236951.161117","237717.893987","227001.797511","227768.607674","228535.686195","229301.787742","230068.438682","230818.191655","231584.369566","232350.869941","237727.548731"
"Blocked","Female","ball","2","F_ball.wav","None","721.689969811","218","240851.508994","233117.809646","233884.630938","234651.253744","235418.027115","236184.5649","236951.161117","237717.893987","241618.289786","227768.607674","228535.686195","229301.787742","230068.438682","230818.191655","231584.369566","232350.869941","240861.160338"
"Blocked","Female","ball","2","F_jaw.wav","space","408.910326005","218","240851.508994","233117.809646","233884.630938","234651.253744","235418.027115","236184.5649","236951.161117","237717.893987","241618.289786","242384.786141","228535.686195","229301.787742","230068.438682","230818.191655","231584.369566","232350.869941","241627.981321"
"Blocked","Female","ball","2","F_ball.wav","None","724.308326069","218","240851.508994","233117.809646","233884.630938","234651.253744","235418.027115","236184.5649","236951.161117","237717.893987","241618.289786","242384.786141","243134.119572","229301.787742","230068.438682","230818.191655","231584.369566","232350.869941","242390.004922"
"Blocked","Female","ball","2","F_reek.wav","space","358.128931082","218","240851.508994","233117.809646","233884.630938","234651.253744","235418.027115","236184.5649","236951.161117","237717.893987","241618.289786","242384.786141","243134.119572","243900.966216","230068.438682","230818.191655","231584.369566","232350.869941","243142.76766"
"Blocked","Female","ball","2","F_tile.wav","None","734.442283007","218","240851.508994","233117.809646","233884.630938","234651.253744","235418.027115","236184.5649","236951.161117","237717.893987","241618.289786","242384.786141","243134.119572","243900.966216","244667.641581","230818.191655","231584.369566","232350.869941","243910.601174"
"Blocked","Female","ball","2","F_ball.wav","None","733.535179781","218","240851.508994","233117.809646","233884.630938","234651.253744","235418.027115","236184.5649","236951.161117","237717.893987","241618.289786","242384.786141","243134.119572","243900.966216","244667.641581","245434.381871","231584.369566","232350.869941","244676.919139"
"Blocked","Female","ball","2","F_romp.wav","space","321.367135039","218","240851.508994","233117.809646","233884.630938","234651.253744","235418.027115","236184.5649","236951.161117","237717.893987","241618.289786","242384.786141","243134.119572","243900.966216","244667.641581","245434.381871","246200.926766","232350.869941","245443.430025"
"Blocked","Female","ball","2","F_tile.wav","None","731.633478354","218","240851.508994","233117.809646","233884.630938","234651.253744","235418.027115","236184.5649","236951.161117","237717.893987","241618.289786","242384.786141","243134.119572","243900.966216","244667.641581","245434.381871","246200.926766","246967.592238","246210.40683"
"Blocked","Female","ball","2","F_priest.wav","None","731.216717919","218","240851.508994","247733.821471","233884.630938","234651.253744","235418.027115","236184.5649","236951.161117","237717.893987","241618.289786","242384.786141","243134.119572","243900.966216","244667.641581","245434.381871","246200.926766","246967.592238","246977.033037"
"Blocked","Female","ball","2","F_greet.wav","None","731.530215751","218","240851.508994","247733.821471","248500.835067","234651.253744","235418.027115","236184.5649","236951.161117","237717.893987","241618.289786","242384.786141","243134.119572","243900.966216","244667.641581","245434.381871","246200.926766","246967.592238","247742.680413"
"Blocked","Female","ball","2","F_ball.wav","None","729.69529494","218","240851.508994","247733.821471","248500.835067","249267.474259","235418.027115","236184.5649","236951.161117","237717.893987","241618.289786","242384.786141","243134.119572","243900.966216","244667.641581","245434.381871","246200.926766","246967.592238","248510.655526"
"Blocked","Female","ball","2","F_cling.wav","space","495.950807424","218","240851.508994","247733.821471","248500.835067","249267.474259","250034.284421","236184.5649","236951.161117","237717.893987","241618.289786","242384.786141","243134.119572","243900.966216","244667.641581","245434.381871","246200.926766","246967.592238","249276.682562"
"Blocked","Female","ball","2","F_park.wav","None","727.677964125","218","240851.508994","247733.821471","248500.835067","249267.474259","250034.284421","250800.733783","236951.161117","237717.893987","241618.289786","242384.786141","243134.119572","243900.966216","244667.641581","245434.381871","246200.926766","246967.592238","250043.802203"
"Blocked","Female","ball","2","F_reek.wav","None","727.90674954","218","240851.508994","247733.821471","248500.835067","249267.474259","250034.284421","250800.733783","251567.004445","237717.893987","241618.289786","242384.786141","243134.119572","243900.966216","244667.641581","245434.381871","246200.926766","246967.592238","250809.585305"
"Blocked","Female","ball","2","F_jaw.wav","None","728.328765865","218","240851.508994","247733.821471","248500.835067","249267.474259","250034.284421","250800.733783","251567.004445","252334.111719","241618.289786","242384.786141","243134.119572","243900.966216","244667.641581","245434.381871","246200.926766","246967.592238","251575.810828"
"Blocked","Female","cave","9","F_priest.wav","None","726.293503234","218","255467.84081","247733.821471","248500.835067","249267.474259","250034.284421","250800.733783","251567.004445","252334.111719","241618.289786","242384.786141","243134.119572","243900.966216","244667.641581","245434.381871","246200.926766","246967.592238","252343.364234"
"Blocked","Female","cave","9","F_cave.wav","None","722.004085983","218","255467.84081","247733.821471","248500.835067","249267.474259","250034.284421","250800.733783","251567.004445","252334.111719","256234.413839","242384.786141","243134.119572","243900.966216","244667.641581","245434.381871","246200.926766","246967.592238","255477.520597"
"Blocked","Female","cave","9","F_lash.wav","space","504.351869487","218","255467.84081","247733.821471","248500.835067","249267.474259","250034.284421","250800.733783","251567.004445","252334.111719","256234.413839","257000.879896","243134.119572","243900.966216","244667.641581","245434.381871","246200.926766","246967.592238","256244.121452"
"Blocked","Female","cave","9","F_cad.wav","None","720.146904961","218","255467.84081","247733.821471","248500.835067","249267.474259","250034.284421","250800.733783","251567.004445","252334.111719","256234.413839","257000.879896","257766.886527","243900.966216","244667.641581","245434.381871","246200.926766","246967.592238","257011.046934"
"Blocked","Female","cave","9","F_bluff.wav","None","721.205192065","218","255467.84081","247733.821471","248500.835067","249267.474259","250034.284421","250800.733783","251567.004445","252334.111719","256234.413839","257000.879896","257766.886527","258533.539941","244667.641581","245434.381871","246200.926766","246967.592238","257775.989713"
"Blocked","Female","cave","9","F_cave.wav","None","720.76864478","218","255467.84081","247733.821471","248500.835067","249267.474259","250034.284421","250800.733783","251567.004445","252334.111719","256234.413839","257000.879896","257766.886527","258533.539941","259300.843538","245434.381871","246200.926766","246967.592238","258542.673116"
"Blocked","Female","cave","9","F_reek.wav","space","541.245371729","218","255467.84081","247733.821471","248500.835067","249267.474259","250034.284421","250800.733783","251567.004445","252334.111719","256234.413839","257000.879896","257766.886527","258533.539941","259300.843538","260050.411319","246200.926766","246967.592238","259311.077357"
"Blocked","Female","cave","9","F_priest.wav","None","734.935408313","218","255467.84081","247733.821471","248500.835067","249267.474259","250034.284421","250800.733783","251567.004445","252334.111719","256234.413839","257000.879896","257766.886527","258533.539941","259300.843538","260050.411319","260817.01001","246967.592238","260060.058334"
"Blocked","Female","cave","9","F_cave.wav","None","734.36097143","218","255467.84081","247733.821471","248500.835067","249267.474259","250034.284421","250800.733783","251567.004445","252334.111719","256234.413839","257000.879896","257766.886527","258533.539941","259300.843538","260050.411319","260817.01001","261583.289019","260826.531811"
"Blocked","Female","cave","9","F_lash.wav","space","724.136118661","218","255467.84081","262350.498629","248500.835067","249267.474259","250034.284421","250800.733783","251567.004445","252334.111719","256234.413839","257000.879896","257766.886527","258533.539941","259300.843538","260050.411319","260817.01001","261583.289019","261592.139614"
"Blocked","Female","cave","9","F_cave.wav","None","732.521413069","218","255467.84081","262350.498629","263117.078769","249267.474259","250034.284421","250800.733783","251567.004445","252334.111719","256234.413839","257000.879896","257766.886527","258533.539941","259300.843538","260050.411319","260817.01001","261583.289019","262359.814832"
"Blocked","Female","cave","9","F_park.wav","space","581.685666155","218","255467.84081","262350.498629","263117.078769","263883.781959","250034.284421","250800.733783","251567.004445","252334.111719","256234.413839","257000.879896","257766.886527","258533.539941","259300.843538","260050.411319","260817.01001","261583.289019","263126.559142"
"Blocked","Female","cave","9","F_knife.wav","None","730.80985088","218","255467.84081","262350.498629","263117.078769","263883.781959","264650.35066","250800.733783","251567.004445","252334.111719","256234.413839","257000.879896","257766.886527","258533.539941","259300.843538","260050.411319","260817.01001","261583.289019","263893.104037"
"Blocked","Female","cave","9","F_done.wav","None","729.753109626","218","255467.84081","262350.498629","263117.078769","263883.781959","264650.35066","265417.015513","251567.004445","252334.111719","256234.413839","257000.879896","257766.886527","258533.539941","259300.843538","260050.411319","260817.01001","261583.289019","264659.741064"
"Blocked","Female","cave","9","F_ball.wav","None","729.083448561","218","255467.84081","262350.498629","263117.078769","263883.781959","264650.35066","265417.015513","266183.177347","252334.111719","256234.413839","257000.879896","257766.886527","258533.539941","259300.843538","260050.411319","260817.01001","261583.289019","265426.365725"
"Blocked","Female","cave","9","F_cling.wav","None","729.624495129","218","255467.84081","262350.498629","263117.078769","263883.781959","264650.35066","265417.015513","266183.177347","266950.304717","256234.413839","257000.879896","257766.886527","258533.539941","259300.843538","260050.411319","260817.01001","261583.289019","266192.133987"
"Blocked","Female","done","22","F_park.wav","None","727.869649199","218","270084.045557","262350.498629","263117.078769","263883.781959","264650.35066","265417.015513","266183.177347","266950.304717","256234.413839","257000.879896","257766.886527","258533.539941","259300.843538","260050.411319","260817.01001","261583.289019","266959.791274"
"Blocked","Female","done","22","F_done.wav","None","722.128681286","218","270084.045557","262350.498629","263117.078769","263883.781959","264650.35066","265417.015513","266183.177347","266950.304717","270850.487189","257000.879896","257766.886527","258533.539941","259300.843538","260050.411319","260817.01001","261583.289019","270093.72287"
"Blocked","Female","done","22","F_knife.wav","space","431.808653768","218","270084.045557","262350.498629","263117.078769","263883.781959","264650.35066","265417.015513","266183.177347","266950.304717","270850.487189","271617.262416","257766.886527","258533.539941","259300.843538","260050.411319","260817.01001","261583.289019","270860.21397"
"Blocked","Female","done","22","F_done.wav","None","720.410317343","218","270084.045557","262350.498629","263117.078769","263883.781959","264650.35066","265417.015513","266183.177347","266950.304717","270850.487189","271617.262416","272383.247714","258533.539941","259300.843538","260050.411319","260817.01001","261583.289019","271627.220146"
"Blocked","Female","done","22","F_jolt.wav","space","419.826172554","218","270084.045557","262350.498629","263117.078769","263883.781959","264650.35066","265417.015513","266183.177347","266950.304717","270850.487189","271617.262416","272383.247714","273150.513592","259300.843538","260050.411319","260817.01001","261583.289019","272392.148085"
"Blocked","Female","done","22","F_reek.wav","None","719.592254944","218","270084.045557","262350.498629","263117.078769","263883.781959","264650.35066","265417.015513","266183.177347","266950.304717","270850.487189","271617.262416","272383.247714","273150.513592","273917.059724","260050.411319","260817.01001","261583.289019","273160.000458"
"Blocked","Female","done","22","F_done.wav","None","718.289723955","218","270084.045557","262350.498629","263117.078769","263883.781959","264650.35066","265417.015513","266183.177347","266950.304717","270850.487189","271617.262416","272383.247714","273150.513592","273917.059724","274683.793213","260817.01001","261583.289019","273927.56994"
"Blocked","Female","done","22","F_gnash.wav","space","350.424737015","218","270084.045557","262350.498629","263117.078769","263883.781959","264650.35066","265417.015513","266183.177347","266950.304717","270850.487189","271617.262416","272383.247714","273150.513592","273917.059724","274683.793213","275433.170854","261583.289019","274693.463725"
"Blocked","Female","done","22","F_done.wav","None","735.376902318","218","270084.045557","262350.498629","263117.078769","263883.781959","264650.35066","265417.015513","266183.177347","266950.304717","270850.487189","271617.262416","272383.247714","273150.513592","273917.059724","274683.793213","275433.170854","276199.900324","275442.487058"
"Blocked","Female","done","22","F_dime.wav","space","498.690358116","218","270084.045557","276966.725326","263117.078769","263883.781959","264650.35066","265417.015513","266183.177347","266950.304717","270850.487189","271617.262416","272383.247714","273150.513592","273917.059724","274683.793213","275433.170854","276199.900324","276209.166751"
"Blocked","Female","done","22","F_park.wav","None","733.361426537","218","270084.045557","276966.725326","277732.857171","263883.781959","264650.35066","265417.015513","266183.177347","266950.304717","270850.487189","271617.262416","272383.247714","273150.513592","273917.059724","274683.793213","275433.170854","276199.900324","276976.237853"
"Blocked","Female","done","22","F_dime.wav","None","733.858261869","218","270084.045557","276966.725326","277732.857171","278499.964136","264650.35066","265417.015513","266183.177347","266950.304717","270850.487189","271617.262416","272383.247714","273150.513592","273917.059724","274683.793213","275433.170854","276199.900324","277741.798352"
"Blocked","Female","done","22","F_knife.wav","None","732.486476918","218","270084.045557","276966.725326","277732.857171","278499.964136","279266.65094","265417.015513","266183.177347","266950.304717","270850.487189","271617.262416","272383.247714","273150.513592","273917.059724","274683.793213","275433.170854","276199.900324","278509.31744"
"Blocked","Female","done","22","F_jolt.wav","None","731.649245994","218","270084.045557","276966.725326","277732.857171","278499.964136","279266.65094","280033.517062","266183.177347","266950.304717","270850.487189","271617.262416","272383.247714","273150.513592","273917.059724","274683.793213","275433.170854","276199.900324","279275.906238"
"Blocked","Female","done","22","F_park.wav","None","730.566534505","218","270084.045557","276966.725326","277732.857171","278499.964136","279266.65094","280033.517062","280799.884494","266950.304717","270850.487189","271617.262416","272383.247714","273150.513592","273917.059724","274683.793213","275433.170854","276199.900324","280042.966827"
"Blocked","Female","done","22","F_priest.wav","None","729.978494172","218","270084.045557","276966.725326","277732.857171","278499.964136","279266.65094","280033.517062","280799.884494","281566.497716","270850.487189","271617.262416","272383.247714","273150.513592","273917.059724","274683.793213","275433.170854","276199.900324","280809.65765"
"Blocked","Female","cave","12","F_park.wav","None","730.231394802","218","284700.053672","276966.725326","277732.857171","278499.964136","279266.65094","280033.517062","280799.884494","281566.497716","270850.487189","271617.262416","272383.247714","273150.513592","273917.059724","274683.793213","275433.170854","276199.900324","281575.82505"
"Blocked","Female","cave","12","F_reek.wav","None","721.515598227","218","284700.053672","276966.725326","277732.857171","278499.964136","279266.65094","280033.517062","280799.884494","281566.497716","285466.733365","271617.262416","272383.247714","273150.513592","273917.059724","274683.793213","275433.170854","276199.900324","284710.160113"
"Blocked","Female","cave","12","F_cave.wav","None","721.305053812","218","284700.053672","276966.725326","277732.857171","278499.964136","279266.65094","280033.517062","280799.884494","281566.497716","285466.733365","286233.452322","272383.247714","273150.513592","273917.059724","274683.793213","275433.170854","276199.900324","285476.612566"
"Blocked","Female","cave","12","F_park.wav","space","432.651140582","218","284700.053672","276966.725326","277732.857171","278499.964136","279266.65094","280033.517062","280799.884494","281566.497716","285466.733365","286233.452322","286999.987015","273150.513592","273917.059724","274683.793213","275433.170854","276199.900324","286242.899923"
"Blocked","Female","cave","12","F_cave.wav","None","719.858449855","218","284700.053672","276966.725326","277732.857171","278499.964136","279266.65094","280033.517062","280799.884494","281566.497716","285466.733365","286233.452322","286999.987015","287766.521089","273917.059724","274683.793213","275433.170854","276199.900324","287009.832826"
"Blocked","Female","cave","12","F_jolt.wav","space","514.95112649","218","284700.053672","276966.725326","277732.857171","278499.964136","279266.65094","280033.517062","280799.884494","281566.497716","285466.733365","286233.452322","286999.987015","287766.521089","288516.322602","274683.793213","275433.170854","276199.900324","287776.532615"
"Blocked","Female","cave","12","F_cling.wav","None","734.990749639","218","284700.053672","276966.725326","277732.857171","278499.964136","279266.65094","280033.517062","280799.884494","281566.497716","285466.733365","286233.452322","286999.987015","287766.521089","288516.322602","289282.609959","275433.170854","276199.900324","288526.148626"
"Blocked","Female","cave","12","F_cave.wav","None","735.149353583","218","284700.053672","276966.725326","277732.857171","278499.964136","279266.65094","280033.517062","280799.884494","281566.497716","285466.733365","286233.452322","286999.987015","287766.521089","288516.322602","289282.609959","290049.575943","276199.900324","289292.14691"
"Blocked","Female","cave","12","F_reek.wav","space","440.165195439","218","284700.053672","276966.725326","277732.857171","278499.964136","279266.65094","280033.517062","280799.884494","281566.497716","285466.733365","286233.452322","286999.987015","287766.521089","288516.322602","289282.609959","290049.575943","290816.302012","290059.297468"
"Blocked","Female","cave","12","F_bluff.wav","None","733.25507222","218","284700.053672","291582.922035","277732.857171","278499.964136","279266.65094","280033.517062","280799.884494","281566.497716","285466.733365","286233.452322","286999.987015","287766.521089","288516.322602","289282.609959","290049.575943","290816.302012","290825.866169"
"Blocked","Female","cave","12","F_done.wav","None","732.688055417","218","284700.053672","291582.922035","292349.555043","278499.964136","279266.65094","280033.517062","280799.884494","281566.497716","285466.733365","286233.452322","286999.987015","287766.521089","288516.322602","289282.609959","290049.575943","290816.302012","291592.620063"
"Blocked","Female","cave","12","F_jaw.wav","space","604.204952149","218","284700.053672","291582.922035","292349.555043","293115.690598","279266.65094","280033.517062","280799.884494","281566.497716","285466.733365","286233.452322","286999.987015","287766.521089","288516.322602","289282.609959","290049.575943","290816.302012","292359.187218"
"Blocked","Female","cave","12","F_cling.wav","None","732.431135591","218","284700.053672","291582.922035","292349.555043","293115.690598","293882.865581","280033.517062","280799.884494","281566.497716","285466.733365","286233.452322","286999.987015","287766.521089","288516.322602","289282.609959","290049.575943","290816.302012","293124.756065"
"Blocked","Female","cave","12","F_cave.wav","None","731.165704943","218","284700.053672","291582.922035","292349.555043","293115.690598","293882.865581","294649.162831","280799.884494","281566.497716","285466.733365","286233.452322","286999.987015","287766.521089","288516.322602","289282.609959","290049.575943","290816.302012","293892.247328"
"Blocked","Female","cave","12","F_jolt.wav","space","649.043800659","218","284700.053672","291582.922035","292349.555043","293115.690598","293882.865581","294649.162831","295415.733078","281566.497716","285466.733365","286233.452322","286999.987015","287766.521089","288516.322602","289282.609959","290049.575943","290816.302012","294658.246848"
"Blocked","Female","cave","12","F_cad.wav","None","730.442866727","218","284700.053672","291582.922035","292349.555043","293115.690598","293882.865581","294649.162831","295415.733078","296182.343517","285466.733365","286233.452322","286999.987015","287766.521089","288516.322602","289282.609959","290049.575943","290816.302012","295424.728364"
"Blocked","Female","done","19","F_romp.wav","None","730.087631004","218","299316.434645","291582.922035","292349.555043","293115.690598","293882.865581","294649.162831","295415.733078","296182.343517","285466.733365","286233.452322","286999.987015","287766.521089","288516.322602","289282.609959","290049.575943","290816.302012","296191.315615"
"Blocked","Female","done","19","F_lash.wav","None","721.137793123","218","299316.434645","291582.922035","292349.555043","293115.690598","293882.865581","294649.162831","295415.733078","296182.343517","300083.026534","286233.452322","286999.987015","287766.521089","288516.322602","289282.609959","290049.575943","290816.302012","299326.274273"
"Blocked","Female","done","19","F_lash.wav","None","720.445253508","218","299316.434645","291582.922035","292349.555043","293115.690598","293882.865581","294649.162831","295415.733078","296182.343517","300083.026534","300849.706227","286999.987015","287766.521089","288516.322602","289282.609959","290049.575943","290816.302012","300093.243349"
"Blocked","Female","done","19","F_reek.wav","None","720.175039387","218","299316.434645","291582.922035","292349.555043","293115.690598","293882.865581","294649.162831","295415.733078","296182.343517","300083.026534","300849.706227","301616.344491","287766.521089","288516.322602","289282.609959","290049.575943","290816.302012","300859.570279"
"Blocked","Female","done","19","F_cad.wav","None","719.901424411","218","299316.434645","291582.922035","292349.555043","293115.690598","293882.865581","294649.162831","295415.733078","296182.343517","300083.026534","300849.706227","301616.344491","302382.966988","288516.322602","289282.609959","290049.575943","290816.302012","301626.037882"
"Blocked","Female","done","19","F_done.wav","None","719.640176205","218","299316.434645","291582.922035","292349.555043","293115.690598","293882.865581","294649.162831","295415.733078","296182.343517","300083.026534","300849.706227","301616.344491","302382.966988","303149.432427","289282.609959","290049.575943","290816.302012","302392.600709"
"Blocked","Female","done","19","F_lash.wav","None","719.283703802","218","299316.434645","291582.922035","292349.555043","293115.690598","293882.865581","294649.162831","295415.733078","296182.343517","300083.026534","300849.706227","301616.344491","302382.966988","303149.432427","303916.454061","290049.575943","290816.302012","303159.339762"
"Blocked","Female","done","19","F_done.wav","None","718.968350935","218","299316.434645","291582.922035","292349.555043","293115.690598","293882.865581","294649.162831","295415.733078","296182.343517","300083.026534","300849.706227","301616.344491","302382.966988","303149.432427","303916.454061","304683.061099","290816.302012","303926.047281"
"Blocked","Female","done","19","F_cad.wav","None","718.805109456","218","299316.434645","291582.922035","292349.555043","293115.690598","293882.865581","294649.162831","295415.733078","296182.343517","300083.026534","300849.706227","301616.344491","302382.966988","303149.432427","303916.454061","304683.061099","305432.605693","304692.645971"
"Blocked","Female","done","19","F_done.wav","None","735.94855667","218","299316.434645","306199.038668","292349.555043","293115.690598","293882.865581","294649.162831","295415.733078","296182.343517","300083.026534","300849.706227","301616.344491","302382.966988","303149.432427","303916.454061","304683.061099","305432.605693","305441.824508"
"Blocked","Female","done","19","F_greet.wav","None","735.043926805","218","299316.434645","306199.038668","306965.471335","293115.690598","293882.865581","294649.162831","295415.733078","296182.343517","300083.026534","300849.706227","301616.344491","302382.966988","303149.432427","303916.454061","304683.061099","305432.605693","306208.912305"
"Blocked","Female","done","19","F_jaw.wav","None","735.490367515","218","299316.434645","306199.038668","306965.471335","307732.113","293882.865581","294649.162831","295415.733078","296182.343517","300083.026534","300849.706227","301616.344491","302382.966988","303149.432427","303916.454061","304683.061099","305432.605693","306974.863904"
"Blocked","Female","done","19","F_bluff.wav","None","735.118436642","218","299316.434645","306199.038668","306965.471335","307732.113","308499.000764","294649.162831","295415.733078","296182.343517","300083.026534","300849.706227","301616.344491","302382.966988","303149.432427","303916.454061","304683.061099","305432.605693","307741.46785"
"Blocked","Female","done","19","F_dime.wav","None","734.420331966","218","299316.434645","306199.038668","306965.471335","307732.113","308499.000764","309265.509177","295415.733078","296182.343517","300083.026534","300849.706227","301616.344491","302382.966988","303149.432427","303916.454061","304683.061099","305432.605693","308508.433834"
"Blocked","Female","done","19","F_done.wav","None","734.636441441","218","299316.434645","306199.038668","306965.471335","307732.113","308499.000764","309265.509177","310031.769327","296182.343517","300083.026534","300849.706227","301616.344491","302382.966988","303149.432427","303916.454061","304683.061099","305432.605693","309275.017375"
"Blocked","Female","done","19","F_knife.wav","None","735.04887351","218","299316.434645","306199.038668","306965.471335","307732.113","308499.000764","309265.509177","310031.769327","310798.452421","300083.026534","300849.706227","301616.344491","302382.966988","303149.432427","303916.454061","304683.061099","305432.605693","310040.923217"
"Blocked","Female","ball","1","F_bluff.wav","None","735.312595076","218","313932.669691","306199.038668","306965.471335","307732.113","308499.000764","309265.509177","310031.769327","310798.452421","300083.026534","300849.706227","301616.344491","302382.966988","303149.432427","303916.454061","304683.061099","305432.605693","310807.034657"
"Blocked","Female","ball","1","F_tile.wav","None","722.517616479","218","313932.669691","306199.038668","306965.471335","307732.113","308499.000764","309265.509177","310031.769327","310798.452421","314698.715586","300849.706227","301616.344491","302382.966988","303149.432427","303916.454061","304683.061099","305432.605693","313942.236322"
"Blocked","Female","ball","1","F_ball.wav","None","723.279719226","218","313932.669691","306199.038668","306965.471335","307732.113","308499.000764","309265.509177","310031.769327","310798.452421","314698.715586","315465.93107","301616.344491","302382.966988","303149.432427","303916.454061","304683.061099","305432.605693","314708.027152"
"Blocked","Female","ball","1","F_jolt.wav","space","486.867408341","218","313932.669691","306199.038668","306965.471335","307732.113","308499.000764","309265.509177","310031.769327","310798.452421","314698.715586","315465.93107","316232.577373","302382.966988","303149.432427","303916.454061","304683.061099","305432.605693","315475.839642"
"Blocked","Female","ball","1","F_priest.wav","None","721.740055247","218","313932.669691","306199.038668","306965.471335","307732.113","308499.000764","309265.509177","310031.769327","310798.452421","314698.715586","315465.93107","316232.577373","316999.141127","303149.432427","303916.454061","304683.061099","305432.605693","316242.136893"
"Blocked","Female","ball","1","F_park.wav","None","721.062664947","218","313932.669691","306199.038668","306965.471335","307732.113","308499.000764","309265.509177","310031.769327","310798.452421","314698.715586","315465.93107","316232.577373","316999.141127","317765.862867","303916.454061","304683.061099","305432.605693","317009.296417"
"Blocked","Female","ball","1","F_ball.wav","None","720.974860815","218","313932.669691","306199.038668","306965.471335","307732.113","308499.000764","309265.509177","310031.769327","310798.452421","314698.715586","315465.93107","316232.577373","316999.141127","317765.862867","318532.785877","304683.061099","305432.605693","317775.80112"
"Blocked","Female","ball","1","F_knife.wav","space","428.519708934","218","313932.669691","306199.038668","306965.471335","307732.113","308499.000764","309265.509177","310031.769327","310798.452421","314698.715586","315465.93107","316232.577373","316999.141127","317765.862867","318532.785877","319298.529714","305432.605693","318542.098061"
"Blocked","Female","ball","1","F_gnash.wav","None","721.348955864","218","313932.669691","306199.038668","306965.471335","307732.113","308499.000764","309265.509177","310031.769327","310798.452421","314698.715586","315465.93107","316232.577373","316999.141127","317765.862867","318532.785877","319298.529714","320065.953578","319307.533965"
"Blocked","Female","ball","1","F_ball.wav","None","718.819331261","218","313932.669691","320832.393355","306965.471335","307732.113","308499.000764","309265.509177","310031.769327","310798.452421","314698.715586","315465.93107","316232.577373","316999.141127","317765.862867","318532.785877","319298.529714","320065.953578","320076.752867"
"Blocked","Female","ball","1","F_gnash.wav","space","648.806667668","218","313932.669691","320832.393355","321581.587659","307732.113","308499.000764","309265.509177","310031.769327","310798.452421","314698.715586","315465.93107","316232.577373","316999.141127","317765.862867","318532.785877","319298.529714","320065.953578","320841.724708"
"Blocked","Female","ball","1","F_greet.wav","None","736.895233596","218","313932.669691","320832.393355","321581.587659","322348.888165","308499.000764","309265.509177","310031.769327","310798.452421","314698.715586","315465.93107","316232.577373","316999.141127","317765.862867","318532.785877","319298.529714","320065.953578","321590.266665"
"Blocked","Female","ball","1","F_ball.wav","None","735.613107798","218","313932.669691","320832.393355","321581.587659","322348.888165","323114.692908","309265.509177","310031.769327","310798.452421","314698.715586","315465.93107","316232.577373","316999.141127","317765.862867","318532.785877","319298.529714","320065.953578","322358.137588"
"Blocked","Female","ball","1","F_reek.wav","space","702.67542894","218","313932.669691","320832.393355","321581.587659","322348.888165","323114.692908","323881.23533","310031.769327","310798.452421","314698.715586","315465.93107","316232.577373","316999.141127","317765.862867","318532.785877","319298.529714","320065.953578","323123.729932"
"Blocked","Female","ball","1","F_jaw.wav","None","735.370100592","218","313932.669691","320832.393355","321581.587659","322348.888165","323114.692908","323881.23533","324648.535835","310798.452421","314698.715586","315465.93107","316232.577373","316999.141127","317765.862867","318532.785877","319298.529714","320065.953578","323890.504849"
"Blocked","Female","ball","1","F_bluff.wav","None","734.221845181","218","313932.669691","320832.393355","321581.587659","322348.888165","323114.692908","323881.23533","324648.535835","325414.800932","314698.715586","315465.93107","316232.577373","316999.141127","317765.862867","318532.785877","319298.529714","320065.953578","324658.096592"
"Blocked","Female","cave","11","F_cad.wav","None","735.163266218","218","328548.747369","320832.393355","321581.587659","322348.888165","323114.692908","323881.23533","324648.535835","325414.800932","314698.715586","315465.93107","316232.577373","316999.141127","317765.862867","318532.785877","319298.529714","320065.953578","325423.713051"
"Blocked","Female","cave","11","F_cave.wav","None","721.988627512","218","328548.747369","320832.393355","321581.587659","322348.888165","323114.692908","323881.23533","324648.535835","325414.800932","329315.723246","315465.93107","316232.577373","316999.141127","317765.862867","318532.785877","319298.529714","320065.953578","328558.484352"
"Blocked","Female","cave","11","F_bluff.wav","space","396.337021943","218","328548.747369","320832.393355","321581.587659","322348.888165","323114.692908","323881.23533","324648.535835","325414.800932","329315.723246","330082.171062","316232.577373","316999.141127","317765.862867","318532.785877","319298.529714","320065.953578","329325.919346"
"Blocked","Female","cave","11","F_greet.wav","None","720.054154124","218","328548.747369","320832.393355","321581.587659","322348.888165","323114.692908","323881.23533","324648.535835","325414.800932","329315.723246","330082.171062","330848.973186","316999.141127","317765.862867","318532.785877","319298.529714","320065.953578","330091.924741"
"Blocked","Female","cave","11","F_jaw.wav","None","719.236091711","218","328548.747369","320832.393355","321581.587659","322348.888165","323114.692908","323881.23533","324648.535835","325414.800932","329315.723246","330082.171062","330848.973186","331615.55951","317765.862867","318532.785877","319298.529714","320065.953578","330858.87403"
"Blocked","Female","cave","11","F_cave.wav","None","719.144886709","218","328548.747369","320832.393355","321581.587659","322348.888165","323114.692908","323881.23533","324648.535835","325414.800932","329315.723246","330082.171062","330848.973186","331615.55951","332382.175514","318532.785877","319298.529714","320065.953578","331625.41336"
"Blocked","Female","cave","11","F_ball.wav","space","570.600085572","218","328548.747369","320832.393355","321581.587659","322348.888165","323114.692908","323881.23533","324648.535835","325414.800932","329315.723246","330082.171062","330848.973186","331615.55951","332382.175514","333131.214616","319298.529714","320065.953578","332391.55417"
"Blocked","Female","cave","11","F_cave.wav","None","736.61481688","218","328548.747369","320832.393355","321581.587659","322348.888165","323114.692908","323881.23533","324648.535835","325414.800932","329315.723246","330082.171062","330848.973186","331615.55951","332382.175514","333131.214616","333898.317252","320065.953578","333140.073248"
"Blocked","Female","cave","11","F_greet.wav","space","638.459383787","218","328548.747369","320832.393355","321581.587659","322348.888165","323114.692908","323881.23533","324648.535835","325414.800932","329315.723246","330082.171062","330848.973186","331615.55951","332382.175514","333131.214616","333898.317252","334664.32883","333907.664991"
"Blocked","Female","cave","11","F_jolt.wav","None","735.615890328","218","328548.747369","335431.24813","321581.587659","322348.888165","323114.692908","323881.23533","324648.535835","325414.800932","329315.723246","330082.171062","330848.973186","331615.55951","332382.175514","333131.214616","333898.317252","334664.32883","334673.160565"
"Blocked","Female","cave","11","F_priest.wav","None","733.842185058","218","328548.747369","335431.24813","336198.244412","322348.888165","323114.692908","323881.23533","324648.535835","325414.800932","329315.723246","330082.171062","330848.973186","331615.55951","332382.175514","333131.214616","333898.317252","334664.32883","335440.923279"
"Blocked","Female","cave","11","F_cave.wav","None","733.648644964","218","328548.747369","335431.24813","336198.244412","336964.908028","323114.692908","323881.23533","324648.535835","325414.800932","329315.723246","330082.171062","330848.973186","331615.55951","332382.175514","333131.214616","333898.317252","334664.32883","336207.615957"
"Blocked","Female","cave","11","F_dime.wav","space","459.58505747","218","328548.747369","335431.24813","336198.244412","336964.908028","337731.470546","323881.23533","324648.535835","325414.800932","329315.723246","330082.171062","330848.973186","331615.55951","332382.175514","333131.214616","333898.317252","334664.32883","336974.452708"
"Blocked","Female","cave","11","F_greet.wav","None","732.691456287","218","328548.747369","335431.24813","336198.244412","336964.908028","337731.470546","338498.125505","324648.535835","325414.800932","329315.723246","330082.171062","330848.973186","331615.55951","332382.175514","333131.214616","333898.317252","334664.32883","337740.705438"
"Blocked","Female","cave","11","F_tile.wav","None","731.991805776","218","328548.747369","335431.24813","336198.244412","336964.908028","337731.470546","338498.125505","339264.813237","325414.800932","329315.723246","330082.171062","330848.973186","331615.55951","332382.175514","333131.214616","333898.317252","334664.32883","338508.073652"
"Blocked","Female","cave","11","F_dime.wav","None","732.084865784","218","328548.747369","335431.24813","336198.244412","336964.908028","337731.470546","338498.125505","339264.813237","340031.430478","329315.723246","330082.171062","330848.973186","331615.55951","332382.175514","333131.214616","333898.317252","334664.32883","339274.13346"
"Blocked","Female","tile","15","F_knife.wav","None","731.796101492","218","343165.112266","335431.24813","336198.244412","336964.908028","337731.470546","338498.125505","339264.813237","340031.430478","329315.723246","330082.171062","330848.973186","331615.55951","332382.175514","333131.214616","333898.317252","334664.32883","340040.836341"
"Blocked","Female","tile","15","F_cave.wav","None","722.31449213","218","343165.112266","335431.24813","336198.244412","336964.908028","337731.470546","338498.125505","339264.813237","340031.430478","343931.044078","330082.171062","330848.973186","331615.55951","332382.175514","333131.214616","333898.317252","334664.32883","343175.061648"
"Blocked","Female","tile","15","F_done.wav","None","724.028218523","218","343165.112266","335431.24813","336198.244412","336964.908028","337731.470546","338498.125505","339264.813237","340031.430478","343931.044078","344697.868771","330848.973186","331615.55951","332382.175514","333131.214616","333898.317252","334664.32883","343940.015248"
"Blocked","Female","tile","15","F_tile.wav","None","723.820765808","218","343165.112266","335431.24813","336198.244412","336964.908028","337731.470546","338498.125505","339264.813237","340031.430478","343931.044078","344697.868771","345465.035097","331615.55951","332382.175514","333131.214616","333898.317252","334664.32883","344706.85911"
"Blocked","Female","tile","15","F_park.wav","space","534.921310173","218","343165.112266","335431.24813","336198.244412","336964.908028","337731.470546","338498.125505","339264.813237","340031.430478","343931.044078","344697.868771","345465.035097","346231.129532","332382.175514","333131.214616","333898.317252","334664.32883","345474.796195"
"Blocked","Female","tile","15","F_dime.wav","None","722.922319314","218","343165.112266","335431.24813","336198.244412","336964.908028","337731.470546","338498.125505","339264.813237","340031.430478","343931.044078","344697.868771","345465.035097","346231.129532","346998.157659","333131.214616","333898.317252","334664.32883","346240.211695"
"Blocked","Female","tile","15","F_tile.wav","None","721.241364896","218","343165.112266","335431.24813","336198.244412","336964.908028","337731.470546","338498.125505","339264.813237","340031.430478","343931.044078","344697.868771","345465.035097","346231.129532","346998.157659","347764.170783","333898.317252","334664.32883","347008.329953"
"Blocked","Female","tile","15","F_ball.wav","space","412.585732687","218","343165.112266","335431.24813","336198.244412","336964.908028","337731.470546","338498.125505","339264.813237","340031.430478","343931.044078","344697.868771","345465.035097","346231.129532","346998.157659","347764.170783","348531.654007","334664.32883","347773.113819"
"Blocked","Female","tile","15","F_tile.wav","None","721.024018756","218","343165.112266","335431.24813","336198.244412","336964.908028","337731.470546","338498.125505","339264.813237","340031.430478","343931.044078","344697.868771","345465.035097","346231.129532","346998.157659","347764.170783","348531.654007","349298.173241","348541.216001"
"Blocked","Female","tile","15","F_cling.wav","space","653.774402759","218","343165.112266","350065.120984","336198.244412","336964.908028","337731.470546","338498.125505","339264.813237","340031.430478","343931.044078","344697.868771","345465.035097","346231.129532","346998.157659","347764.170783","348531.654007","349298.173241","349307.847154"
"Blocked","Female","tile","15","F_romp.wav","None","719.593182454","218","343165.112266","350065.120984","350831.407723","336964.908028","337731.470546","338498.125505","339264.813237","340031.430478","343931.044078","344697.868771","345465.035097","346231.129532","346998.157659","347764.170783","348531.654007","349298.173241","350074.940207"
"Blocked","Female","tile","15","F_greet.wav","None","719.578960649","218","343165.112266","350065.120984","350831.407723","351598.212629","337731.470546","338498.125505","339264.813237","340031.430478","343931.044078","344697.868771","345465.035097","346231.129532","346998.157659","347764.170783","348531.654007","349298.173241","350841.063085"
"Blocked","Female","tile","15","F_greet.wav","None","719.314620743","218","343165.112266","350065.120984","350831.407723","351598.212629","352364.612524","338498.125505","339264.813237","340031.430478","343931.044078","344697.868771","345465.035097","346231.129532","346998.157659","347764.170783","348531.654007","349298.173241","351608.045765"
"Blocked","Female","tile","15","F_ball.wav","None","719.470751341","218","343165.112266","350065.120984","350831.407723","351598.212629","352364.612524","353131.444947","339264.813237","340031.430478","343931.044078","344697.868771","345465.035097","346231.129532","346998.157659","347764.170783","348531.654007","349298.173241","352374.699796"
"Blocked","Female","tile","15","F_tile.wav","None","719.581433994","218","343165.112266","350065.120984","350831.407723","351598.212629","352364.612524","353131.444947","353898.10238","340031.430478","343931.044078","344697.868771","345465.035097","346231.129532","346998.157659","347764.170783","348531.654007","349298.173241","353141.023635"
"Blocked","Female","tile","15","F_greet.wav","space","573.846055864","218","343165.112266","350065.120984","350831.407723","351598.212629","352364.612524","353131.444947","353898.10238","354664.579567","343931.044078","344697.868771","345465.035097","346231.129532","346998.157659","347764.170783","348531.654007","349298.173241","353907.689725"
"Blocked","Female","tile","16","F_jaw.wav","None","718.467805564","218","357781.35906","350065.120984","350831.407723","351598.212629","352364.612524","353131.444947","353898.10238","354664.579567","343931.044078","344697.868771","345465.035097","346231.129532","346998.157659","347764.170783","348531.654007","349298.173241","354674.545026"
"Blocked","Female","tile","16","F_ball.wav","None","722.690442213","218","357781.35906","350065.120984","350831.407723","351598.212629","352364.612524","353131.444947","353898.10238","354664.579567","358547.949712","344697.868771","345465.035097","346231.129532","346998.157659","347764.170783","348531.654007","349298.173241","357790.857673"
"Blocked","Female","tile","16","F_romp.wav","None","722.393639531","218","357781.35906","350065.120984","350831.407723","351598.212629","352364.612524","353131.444947","353898.10238","354664.579567","358547.949712","359314.146482","345465.035097","346231.129532","346998.157659","347764.170783","348531.654007","349298.173241","358557.873743"
"Blocked","Female","tile","16","F_ball.wav","None","723.65103176","218","357781.35906","350065.120984","350831.407723","351598.212629","352364.612524","353131.444947","353898.10238","354664.579567","358547.949712","359314.146482","360081.232424","346231.129532","346998.157659","347764.170783","348531.654007","349298.173241","359323.451556"
"Blocked","Female","tile","16","F_tile.wav","None","723.477896856","218","357781.35906","350065.120984","350831.407723","351598.212629","352364.612524","353131.444947","353898.10238","354664.579567","358547.949712","359314.146482","360081.232424","360847.180003","346998.157659","347764.170783","348531.654007","349298.173241","360090.932307"
"Blocked","Female","tile","16","F_cave.wav","space","513.217304091","218","357781.35906","350065.120984","350831.407723","351598.212629","352364.612524","353131.444947","353898.10238","354664.579567","358547.949712","359314.146482","360081.232424","360847.180003","361613.929569","347764.170783","348531.654007","349298.173241","360856.097688"
"Blocked","Female","tile","16","F_jaw.wav","None","723.978133057","218","357781.35906","350065.120984","350831.407723","351598.212629","352364.612524","353131.444947","353898.10238","354664.579567","358547.949712","359314.146482","360081.232424","360847.180003","361613.929569","362380.544645","348531.654007","349298.173241","361622.91898"
"Blocked","Female","tile","16","F_bluff.wav","None","724.050169549","218","357781.35906","350065.120984","350831.407723","351598.212629","352364.612524","353131.444947","353898.10238","354664.579567","358547.949712","359314.146482","360081.232424","360847.180003","361613.929569","362380.544645","363147.653775","349298.173241","362389.767789"
"Blocked","Female","tile","16","F_lash.wav","None","723.105965983","218","357781.35906","350065.120984","350831.407723","351598.212629","352364.612524","353131.444947","353898.10238","354664.579567","358547.949712","359314.146482","360081.232424","360847.180003","361613.929569","362380.544645","363147.653775","363914.45188","363157.409308"
"Blocked","Female","tile","16","F_tile.wav","None","723.444197385","218","357781.35906","364680.783139","350831.407723","351598.212629","352364.612524","353131.444947","353898.10238","354664.579567","358547.949712","359314.146482","360081.232424","360847.180003","361613.929569","362380.544645","363147.653775","363914.45188","363924.348704"
"Blocked","Female","tile","16","F_romp.wav","None","723.844571839","218","357781.35906","364680.783139","365447.669357","351598.212629","352364.612524","353131.444947","353898.10238","354664.579567","358547.949712","359314.146482","360081.232424","360847.180003","361613.929569","362380.544645","363147.653775","363914.45188","364690.187456"
"Blocked","Female","tile","16","F_knife.wav","space","7.56259444461","218","357781.35906","364680.783139","365447.669357","366214.399444","352364.612524","353131.444947","353898.10238","354664.579567","358547.949712","359314.146482","360081.232424","360847.180003","361613.929569","362380.544645","363147.653775","363914.45188","365457.643782"
"Blocked","Female","tile","16","F_tile.wav","None","722.487008708","218","357781.35906","364680.783139","365447.669357","366214.399444","366980.905075","353131.444947","353898.10238","354664.579567","358547.949712","359314.146482","360081.232424","360847.180003","361613.929569","362380.544645","363147.653775","363914.45188","366224.208773"
"Blocked","Female","tile","16","F_lash.wav","space","490.421311421","218","357781.35906","364680.783139","365447.669357","366214.399444","366980.905075","367747.719257","353898.10238","354664.579567","358547.949712","359314.146482","360081.232424","360847.180003","361613.929569","362380.544645","363147.653775","363914.45188","366990.723988"
"Blocked","Female","tile","16","F_tile.wav","None","721.978424917","218","357781.35906","364680.783139","365447.669357","366214.399444","366980.905075","367747.719257","368514.293523","354664.579567","358547.949712","359314.146482","360081.232424","360847.180003","361613.929569","362380.544645","363147.653775","363914.45188","367757.558575"
"Blocked","Female","tile","16","F_gnash.wav","space","620.74366388","218","357781.35906","364680.783139","365447.669357","366214.399444","366980.905075","367747.719257","368514.293523","369280.959613","358547.949712","359314.146482","360081.232424","360847.180003","361613.929569","362380.544645","363147.653775","363914.45188","368524.336584"
"Blocked","Female","done","24","F_ball.wav","None","720.690424903","218","372414.221858","364680.783139","365447.669357","366214.399444","366980.905075","367747.719257","368514.293523","369280.959613","358547.949712","359314.146482","360081.232424","360847.180003","361613.929569","362380.544645","363147.653775","363914.45188","369290.59457"
"Blocked","Female","done","24","F_done.wav","None","721.393785439","218","372414.221858","364680.783139","365447.669357","366214.399444","366980.905075","367747.719257","368514.293523","369280.959613","373180.842808","359314.146482","360081.232424","360847.180003","361613.929569","362380.544645","363147.653775","363914.45188","372424.643342"
"Blocked","Female","done","24","F_jolt.wav","space","586.370202","218","372414.221858","364680.783139","365447.669357","366214.399444","366980.905075","367747.719257","368514.293523","369280.959613","373180.842808","373947.349366","360081.232424","360847.180003","361613.929569","362380.544645","363147.653775","363914.45188","373190.652137"
"Blocked","Female","done","24","F_ball.wav","None","720.898805128","218","372414.221858","364680.783139","365447.669357","366214.399444","366980.905075","367747.719257","368514.293523","369280.959613","373180.842808","373947.349366","374713.464207","360847.180003","361613.929569","362380.544645","363147.653775","363914.45188","373957.240316"
"Blocked","Female","done","24","F_done.wav","None","722.446198328","218","372414.221858","364680.783139","365447.669357","366214.399444","366980.905075","367747.719257","368514.293523","369280.959613","373180.842808","373947.349366","374713.464207","375480.829019","361613.929569","362380.544645","363147.653775","363914.45188","374722.417136"
"Blocked","Female","done","24","F_priest.wav","space","398.44122935","218","372414.221858","364680.783139","365447.669357","366214.399444","366980.905075","367747.719257","368514.293523","369280.959613","373180.842808","373947.349366","374713.464207","375480.829019","376247.491708","362380.544645","363147.653775","363914.45188","375490.40307"
"Blocked","Female","done","24","F_depth.wav","None","721.029583816","218","372414.221858","364680.783139","365447.669357","366214.399444","366980.905075","367747.719257","368514.293523","369280.959613","373180.842808","373947.349366","374713.464207","375480.829019","376247.491708","377013.963948","363147.653775","363914.45188","376257.013819"
"Blocked","Female","done","24","F_cave.wav","None","720.459784468","218","372414.221858","364680.783139","365447.669357","366214.399444","366980.905075","367747.719257","368514.293523","369280.959613","373180.842808","373947.349366","374713.464207","375480.829019","376247.491708","377013.963948","377779.755088","363914.45188","377024.297938"
"Blocked","Female","done","24","F_reek.wav","None","726.202298247","218","372414.221858","364680.783139","365447.669357","366214.399444","366980.905075","367747.719257","368514.293523","369280.959613","373180.842808","373947.349366","374713.464207","375480.829019","376247.491708","377013.963948","377779.755088","378546.977065","377788.459446"
"Blocked","Female","done","24","F_done.wav","None","724.9884989","218","372414.221858","379313.619039","365447.669357","366214.399444","366980.905075","367747.719257","368514.293523","369280.959613","373180.842808","373947.349366","374713.464207","375480.829019","376247.491708","377013.963948","377779.755088","378546.977065","378556.54957"
"Blocked","Female","done","24","F_tile.wav","space","469.889366796","218","372414.221858","379313.619039","380080.436931","366214.399444","366980.905075","367747.719257","368514.293523","369280.959613","373180.842808","373947.349366","374713.464207","375480.829019","376247.491708","377013.963948","377779.755088","378546.977065","379322.888558"
"Blocked","Female","done","24","F_done.wav","None","723.320529592","218","372414.221858","379313.619039","380080.436931","380847.318511","366980.905075","367747.719257","368514.293523","369280.959613","373180.842808","373947.349366","374713.464207","375480.829019","376247.491708","377013.963948","377779.755088","378546.977065","380090.502561"
"Blocked","Female","done","24","F_depth.wav","space","607.540581594","218","372414.221858","379313.619039","380080.436931","380847.318511","381613.904526","367747.719257","368514.293523","369280.959613","373180.842808","373947.349366","374713.464207","375480.829019","376247.491708","377013.963948","377779.755088","378546.977065","380857.156284"
"Blocked","Female","done","24","F_gnash.wav","None","722.305526215","218","372414.221858","379313.619039","380080.436931","380847.318511","381613.904526","382380.682226","368514.293523","369280.959613","373180.842808","373947.349366","374713.464207","375480.829019","376247.491708","377013.963948","377779.755088","378546.977065","381624.149475"
"Blocked","Female","done","24","F_greet.wav","None","723.498302046","218","372414.221858","379313.619039","380080.436931","380847.318511","381613.904526","382380.682226","383147.54","369280.959613","373180.842808","373947.349366","374713.464207","375480.829019","376247.491708","377013.963948","377779.755088","378546.977065","382389.970295"
"Blocked","Female","done","24","F_jolt.wav","None","722.947980379","218","372414.221858","379313.619039","380080.436931","380847.318511","381613.904526","382380.682226","383147.54","383913.968957","373180.842808","373947.349366","374713.464207","375480.829019","376247.491708","377013.963948","377779.755088","378546.977065","383157.366952"
"Blocked","Female","done","21","F_greet.wav","None","722.712393253","218","387047.096713","379313.619039","380080.436931","380847.318511","381613.904526","382380.682226","383147.54","383913.968957","373180.842808","373947.349366","374713.464207","375480.829019","376247.491708","377013.963948","377779.755088","378546.977065","383923.859288"
"Blocked","Female","done","21","F_done.wav","None","721.86650557","218","387047.096713","379313.619039","380080.436931","380847.318511","381613.904526","382380.682226","383147.54","383913.968957","387813.789082","373947.349366","374713.464207","375480.829019","376247.491708","377013.963948","377779.755088","378546.977065","387056.821948"
"Blocked","Female","done","21","F_cling.wav","space","416.527643465","218","387047.096713","379313.619039","380080.436931","380847.318511","381613.904526","382380.682226","383147.54","383913.968957","387813.789082","388579.891865","374713.464207","375480.829019","376247.491708","377013.963948","377779.755088","378546.977065","387823.97869"
"Blocked","Female","done","21","F_done.wav","None","722.589034631","218","387047.096713","379313.619039","380080.436931","380847.318511","381613.904526","382380.682226","383147.54","383913.968957","387813.789082","388579.891865","389346.502304","375480.829019","376247.491708","377013.963948","377779.755088","378546.977065","388588.642907"
"Blocked","Female","done","21","F_greet.wav","space","346.560736958","218","387047.096713","379313.619039","380080.436931","380847.318511","381613.904526","382380.682226","383147.54","383913.968957","387813.789082","388579.891865","389346.502304","390112.991858","376247.491708","377013.963948","377779.755088","378546.977065","389349.974586"
"Blocked","Female","done","21","F_romp.wav","None","721.400896335","218","387047.096713","379313.619039","380080.436931","380847.318511","381613.904526","382380.682226","383147.54","383913.968957","387813.789082","388579.891865","389346.502304","390112.991858","390880.295146","377013.963948","377779.755088","378546.977065","390122.418126"
"Blocked","Female","done","21","F_greet.wav","None","720.592727346","218","387047.096713","379313.619039","380080.436931","380847.318511","381613.904526","382380.682226","383147.54","383913.968957","387813.789082","388579.891865","389346.502304","390112.991858","390880.295146","391646.844369","377779.755088","378546.977065","390890.095509"
"Blocked","Female","done","21","F_cling.wav","None","720.606639967","218","387047.096713","379313.619039","380080.436931","380847.318511","381613.904526","382380.682226","383147.54","383913.968957","387813.789082","388579.891865","389346.502304","390112.991858","390880.295146","391646.844369","392413.40565","378546.977065","391656.61938"
"Blocked","Female","done","21","F_gnash.wav","None","720.590563156","218","387047.096713","379313.619039","380080.436931","380847.318511","381613.904526","382380.682226","383147.54","383913.968957","387813.789082","388579.891865","389346.502304","390112.991858","390880.295146","391646.844369","392413.40565","393180.087816","392423.555375"
"Blocked","Female","done","21","F_romp.wav","None","720.98568175","218","387047.096713","393946.792552","380080.436931","380847.318511","381613.904526","382380.682226","383147.54","383913.968957","387813.789082","388579.891865","389346.502304","390112.991858","390880.295146","391646.844369","392413.40565","393180.087816","393189.885088"
"Blocked","Female","done","21","F_park.wav","None","721.111822888","218","387047.096713","393946.792552","394713.67166","380847.318511","381613.904526","382380.682226","383147.54","383913.968957","387813.789082","388579.891865","389346.502304","390112.991858","390880.295146","391646.844369","392413.40565","393180.087816","393956.615176"
"Blocked","Female","done","21","F_cad.wav","None","727.585831628","218","387047.096713","393946.792552","394713.67166","395479.485987","381613.904526","382380.682226","383147.54","383913.968957","387813.789082","388579.891865","389346.502304","390112.991858","390880.295146","391646.844369","392413.40565","393180.087816","394717.549263"
"Blocked","Female","done","21","F_done.wav","None","722.618405722","218","387047.096713","393946.792552","394713.67166","395479.485987","396246.699307","382380.682226","383147.54","383913.968957","387813.789082","388579.891865","389346.502304","390112.991858","390880.295146","391646.844369","392413.40565","393180.087816","395489.144751"
"Blocked","Female","done","21","F_gnash.wav","space","479.482895505","218","387047.096713","393946.792552","394713.67166","395479.485987","396246.699307","397013.58738","383147.54","383913.968957","387813.789082","388579.891865","389346.502304","390112.991858","390880.295146","391646.844369","392413.40565","393180.087816","396256.761227"
"Blocked","Female","done","21","F_done.wav","None","721.082760967","218","387047.096713","393946.792552","394713.67166","395479.485987","396246.699307","397013.58738","397780.308811","383913.968957","387813.789082","388579.891865","389346.502304","390112.991858","390880.295146","391646.844369","392413.40565","393180.087816","397023.369811"
"Blocked","Female","done","21","F_cave.wav","None","721.019690391","218","387047.096713","393946.792552","394713.67166","395479.485987","396246.699307","397013.58738","397780.308811","398546.608844","387813.789082","388579.891865","389346.502304","390112.991858","390880.295146","391646.844369","392413.40565","393180.087816","397790.308897"
"Blocked","Female","cave","10","F_ball.wav","space","107.405165356","218","401679.921174","393946.792552","394713.67166","395479.485987","396246.699307","397013.58738","397780.308811","398546.608844","387813.789082","388579.891865","389346.502304","390112.991858","390880.295146","391646.844369","392413.40565","393180.087816","398556.812982"
"Blocked","Female","cave","10","F_cave.wav","None","722.580377871","218","401679.921174","393946.792552","394713.67166","395479.485987","396246.699307","397013.58738","397780.308811","398546.608844","402446.580153","388579.891865","389346.502304","390112.991858","390880.295146","391646.844369","392413.40565","393180.087816","401689.404639"
"Blocked","Female","cave","10","F_gnash.wav","space","415.776052469","218","401679.921174","393946.792552","394713.67166","395479.485987","396246.699307","397013.58738","397780.308811","398546.608844","402446.580153","403213.309931","389346.502304","390112.991858","390880.295146","391646.844369","392413.40565","393180.087816","402456.29704"
"Blocked","Female","cave","10","F_greet.wav","None","721.362868513","218","401679.921174","393946.792552","394713.67166","395479.485987","396246.699307","397013.58738","397780.308811","398546.608844","402446.580153","403213.309931","403980.083612","390112.991858","390880.295146","391646.844369","392413.40565","393180.087816","403223.210774"
"Blocked","Female","cave","10","F_cave.wav","None","721.216013","218","401679.921174","393946.792552","394713.67166","395479.485987","396246.699307","397013.58738","397780.308811","398546.608844","402446.580153","403213.309931","403980.083612","404746.619541","390880.295146","391646.844369","392413.40565","393180.087816","403990.022792"
"Blocked","Female","cave","10","F_cling.wav","space","555.579705135","218","401679.921174","393946.792552","394713.67166","395479.485987","396246.699307","397013.58738","397780.308811","398546.608844","402446.580153","403213.309931","403980.083612","404746.619541","405513.118988","391646.844369","392413.40565","393180.087816","404756.398881"
"Blocked","Female","cave","10","F_cave.wav","None","720.580360576","218","401679.921174","393946.792552","394713.67166","395479.485987","396246.699307","397013.58738","397780.308811","398546.608844","402446.580153","403213.309931","403980.083612","404746.619541","405513.118988","406279.766528","392413.40565","393180.087816","405522.99788"
"Blocked","Female","cave","10","F_reek.wav","space","446.562530138","218","401679.921174","393946.792552","394713.67166","395479.485987","396246.699307","397013.58738","397780.308811","398546.608844","402446.580153","403213.309931","403980.083612","404746.619541","405513.118988","406279.766528","407046.432617","393180.087816","406289.398393"
"Blocked","Female","cave","10","F_park.wav","None","719.747767173","218","401679.921174","393946.792552","394713.67166","395479.485987","396246.699307","397013.58738","397780.308811","398546.608844","402446.580153","403213.309931","403980.083612","404746.619541","405513.118988","406279.766528","407046.432617","407813.071191","407056.407661"
"Blocked","Female","cave","10","F_gnash.wav","None","719.967586672","218","401679.921174","408579.77067","394713.67166","395479.485987","396246.699307","397013.58738","397780.308811","398546.608844","402446.580153","403213.309931","403980.083612","404746.619541","405513.118988","406279.766528","407046.432617","407813.071191","407823.132184"
"Blocked","Female","cave","10","F_cave.wav","None","720.805435936","218","401679.921174","408579.77067","409345.545115","395479.485987","396246.699307","397013.58738","397780.308811","398546.608844","402446.580153","403213.309931","403980.083612","404746.619541","405513.118988","406279.766528","407046.432617","407813.071191","408589.251971"
"Blocked","Female","cave","10","F_ball.wav","space","413.423581966","218","401679.921174","408579.77067","409345.545115","410112.928787","396246.699307","397013.58738","397780.308811","398546.608844","402446.580153","403213.309931","403980.083612","404746.619541","405513.118988","406279.766528","407046.432617","407813.071191","409354.460635"
"Blocked","Female","cave","10","F_romp.wav","None","721.435214145","218","401679.921174","408579.77067","409345.545115","410112.928787","410879.661966","397013.58738","397780.308811","398546.608844","402446.580153","403213.309931","403980.083612","404746.619541","405513.118988","406279.766528","407046.432617","407813.071191","410123.058107"
"Blocked","Female","cave","10","F_greet.wav","None","721.754277038","218","401679.921174","408579.77067","409345.545115","410112.928787","410879.661966","411646.299303","397780.308811","398546.608844","402446.580153","403213.309931","403980.083612","404746.619541","405513.118988","406279.766528","407046.432617","407813.071191","410889.475315"
"Blocked","Female","cave","10","F_bluff.wav","None","722.186495972","218","401679.921174","408579.77067","409345.545115","410112.928787","410879.661966","411646.299303","412413.405341","398546.608844","402446.580153","403213.309931","403980.083612","404746.619541","405513.118988","406279.766528","407046.432617","407813.071191","411656.028557"
"Blocked","Female","cave","10","F_priest.wav","None","722.087252565","218","401679.921174","408579.77067","409345.545115","410112.928787","410879.661966","411646.299303","412413.405341","413179.672293","402446.580153","403213.309931","403980.083612","404746.619541","405513.118988","406279.766528","407046.432617","407813.071191","412422.927761"
"Blocked","Female","ball","4","F_romp.wav","None","721.728925157","218","416313.238142","408579.77067","409345.545115","410112.928787","410879.661966","411646.299303","412413.405341","413179.672293","402446.580153","403213.309931","403980.083612","404746.619541","405513.118988","406279.766528","407046.432617","407813.071191","413189.959907"
"Blocked","Female","ball","4","F_jolt.wav","None","722.74763856","218","416313.238142","408579.77067","409345.545115","410112.928787","410879.661966","411646.299303","412413.405341","413179.672293","417079.621342","403213.309931","403980.083612","404746.619541","405513.118988","406279.766528","407046.432617","407813.071191","416323.262035"
"Blocked","Female","ball","4","F_ball.wav","None","723.735435022","218","416313.238142","408579.77067","409345.545115","410112.928787","410879.661966","411646.299303","412413.405341","413179.672293","417079.621342","417845.823986","403980.083612","404746.619541","405513.118988","406279.766528","407046.432617","407813.071191","417089.306694"
"Blocked","Female","ball","4","F_greet.wav","space","384.38267514","218","416313.238142","408579.77067","409345.545115","410112.928787","410879.661966","411646.299303","412413.405341","413179.672293","417079.621342","417845.823986","418612.968052","404746.619541","405513.118988","406279.766528","407046.432617","407813.071191","417855.24067"
"Blocked","Female","ball","4","F_cling.wav","None","722.958492144","218","416313.238142","408579.77067","409345.545115","410112.928787","410879.661966","411646.299303","412413.405341","413179.672293","417079.621342","417845.823986","418612.968052","419379.062796","405513.118988","406279.766528","407046.432617","407813.071191","418622.803351"
"Blocked","Female","ball","4","F_bluff.wav","None","724.588124431","218","416313.238142","408579.77067","409345.545115","410112.928787","410879.661966","411646.299303","412413.405341","413179.672293","417079.621342","417845.823986","418612.968052","419379.062796","420145.644791","406279.766528","407046.432617","407813.071191","419388.41981"
"Blocked","Female","ball","4","F_ball.wav","None","724.908733173","218","416313.238142","408579.77067","409345.545115","410112.928787","410879.661966","411646.299303","412413.405341","413179.672293","417079.621342","417845.823986","418612.968052","419379.062796","420145.644791","420912.341489","407046.432617","407813.071191","420155.079098"
"Blocked","Female","ball","4","F_knife.wav","space","365.770672928","218","416313.238142","408579.77067","409345.545115","410112.928787","410879.661966","411646.299303","412413.405341","413179.672293","417079.621342","417845.823986","418612.968052","419379.062796","420145.644791","420912.341489","421679.371471","407813.071191","420921.723236"
"Blocked","Female","ball","4","F_ball.wav","None","728.366793715","218","416313.238142","408579.77067","409345.545115","410112.928787","410879.661966","411646.299303","412413.405341","413179.672293","417079.621342","417845.823986","418612.968052","419379.062796","420145.644791","420912.341489","421679.371471","422445.661301","421684.228214"
"Blocked","Female","ball","4","F_done.wav","None","724.073666424","218","416313.238142","423211.805822","409345.545115","410112.928787","410879.661966","411646.299303","412413.405341","413179.672293","417079.621342","417845.823986","418612.968052","419379.062796","420145.644791","420912.341489","421679.371471","422445.661301","422455.646238"
"Blocked","Female","ball","4","F_cling.wav","None","725.799141248","218","416313.238142","423211.805822","423978.938139","410112.928787","410879.661966","411646.299303","412413.405341","413179.672293","417079.621342","417845.823986","418612.968052","419379.062796","420145.644791","420912.341489","421679.371471","422445.661301","423220.892931"
"Blocked","Female","ball","4","F_cave.wav","None","725.472349121","218","416313.238142","423211.805822","423978.938139","424745.112649","410879.661966","411646.299303","412413.405341","413179.672293","417079.621342","417845.823986","418612.968052","419379.062796","420145.644791","420912.341489","421679.371471","422445.661301","423988.35946"
"Blocked","Female","ball","4","F_bluff.wav","None","726.744890664","218","416313.238142","423211.805822","423978.938139","424745.112649","425512.229817","411646.299303","412413.405341","413179.672293","417079.621342","417845.823986","418612.968052","419379.062796","420145.644791","420912.341489","421679.371471","422445.661301","424753.915322"
"Blocked","Female","ball","4","F_jolt.wav","None","725.351463858","218","416313.238142","423211.805822","423978.938139","424745.112649","425512.229817","426278.465852","412413.405341","413179.672293","417079.621342","417845.823986","418612.968052","419379.062796","420145.644791","420912.341489","421679.371471","422445.661301","425522.143954"
"Blocked","Female","ball","4","F_ball.wav","None","727.152685198","218","416313.238142","423211.805822","423978.938139","424745.112649","425512.229817","426278.465852","427045.5048","413179.672293","417079.621342","417845.823986","418612.968052","419379.062796","420145.644791","420912.341489","421679.371471","422445.661301","426287.38941"
"Blocked","Female","ball","4","F_bluff.wav","space","392.277935942","218","416313.238142","423211.805822","423978.938139","424745.112649","425512.229817","426278.465852","427045.5048","427812.155431","417079.621342","417845.823986","418612.968052","419379.062796","420145.644791","420912.341489","421679.371471","422445.661301","427055.032784"
"Blocked","Female","cave","7","F_ball.wav","None","725.733906496","218","430945.601631","423211.805822","423978.938139","424745.112649","425512.229817","426278.465852","427045.5048","427812.155431","417079.621342","417845.823986","418612.968052","419379.062796","420145.644791","420912.341489","421679.371471","422445.661301","427821.520174"
"Blocked","Female","cave","7","F_reek.wav","None","721.336589093","218","430945.601631","423211.805822","423978.938139","424745.112649","425512.229817","426278.465852","427045.5048","427812.155431","431712.453532","417845.823986","418612.968052","419379.062796","420145.644791","420912.341489","421679.371471","422445.661301","430955.874715"
"Blocked","Female","cave","7","F_tile.wav","None","721.514361532","218","430945.601631","423211.805822","423978.938139","424745.112649","425512.229817","426278.465852","427045.5048","427812.155431","431712.453532","432479.130133","418612.968052","419379.062796","420145.644791","420912.341489","421679.371471","422445.661301","431722.776391"
"Blocked","Female","cave","7","F_cave.wav","None","722.503394674","218","430945.601631","423211.805822","423978.938139","424745.112649","425512.229817","426278.465852","427045.5048","427812.155431","431712.453532","432479.130133","433245.049578","419379.062796","420145.644791","420912.341489","421679.371471","422445.661301","432488.747777"
"Blocked","Female","cave","7","F_lash.wav","space","441.213279948","218","430945.601631","423211.805822","423978.938139","424745.112649","425512.229817","426278.465852","427045.5048","427812.155431","431712.453532","432479.130133","433245.049578","434012.311128","420145.644791","420912.341489","421679.371471","422445.661301","433253.93851"
"Blocked","Female","cave","7","F_cave.wav","None","721.287121982","218","430945.601631","423211.805822","423978.938139","424745.112649","425512.229817","426278.465852","427045.5048","427812.155431","431712.453532","432479.130133","433245.049578","434012.311128","434778.949702","420912.341489","421679.371471","422445.661301","434022.338731"
"Blocked","Female","cave","7","F_tile.wav","space","514.458928679","218","430945.601631","423211.805822","423978.938139","424745.112649","425512.229817","426278.465852","427045.5048","427812.155431","431712.453532","432479.130133","433245.049578","434012.311128","434778.949702","435545.178626","421679.371471","422445.661301","434788.638764"
"Blocked","Female","cave","7","F_lash.wav","None","721.804671673","218","430945.601631","423211.805822","423978.938139","424745.112649","425512.229817","426278.465852","427045.5048","427812.155431","431712.453532","432479.130133","433245.049578","434012.311128","434778.949702","435545.178626","436311.815035","422445.661301","435554.366524"
"Blocked","Female","cave","7","F_cad.wav","None","722.516070629","218","430945.601631","423211.805822","423978.938139","424745.112649","425512.229817","426278.465852","427045.5048","427812.155431","431712.453532","432479.130133","433245.049578","434012.311128","434778.949702","435545.178626","436311.815035","437078.891083","436321.037251"
"Blocked","Female","cave","7","F_cave.wav","None","721.41666399","218","430945.601631","437845.441234","423978.938139","424745.112649","425512.229817","426278.465852","427045.5048","427812.155431","431712.453532","432479.130133","433245.049578","434012.311128","434778.949702","435545.178626","436311.815035","437078.891083","437088.908174"
"Blocked","Female","cave","7","F_tile.wav","space","519.950087677","218","430945.601631","437845.441234","438611.780223","424745.112649","425512.229817","426278.465852","427045.5048","427812.155431","431712.453532","432479.130133","433245.049578","434012.311128","434778.949702","435545.178626","436311.815035","437078.891083","437855.104635"
"Blocked","Female","cave","7","F_jolt.wav","None","722.030056219","218","430945.601631","437845.441234","438611.780223","439378.935727","425512.229817","426278.465852","427045.5048","427812.155431","431712.453532","432479.130133","433245.049578","434012.311128","434778.949702","435545.178626","436311.815035","437078.891083","438621.080349"
"Blocked","Female","cave","7","F_cave.wav","None","726.589378421","218","430945.601631","437845.441234","438611.780223","439378.935727","440145.621913","426278.465852","427045.5048","427812.155431","431712.453532","432479.130133","433245.049578","434012.311128","434778.949702","435545.178626","436311.815035","437078.891083","439383.396115"
"Blocked","Female","cave","7","F_depth.wav","space","555.156761286","218","430945.601631","437845.441234","438611.780223","439378.935727","440145.621913","440911.126144","427045.5048","427812.155431","431712.453532","432479.130133","433245.049578","434012.311128","434778.949702","435545.178626","436311.815035","437078.891083","440155.793279"
"Blocked","Female","cave","7","F_park.wav","None","726.390273281","218","430945.601631","437845.441234","438611.780223","439378.935727","440145.621913","440911.126144","441678.386457","427812.155431","431712.453532","432479.130133","433245.049578","434012.311128","434778.949702","435545.178626","436311.815035","437078.891083","440919.995288"
"Blocked","Female","cave","7","F_ball.wav","None","725.248201241","218","430945.601631","437845.441234","438611.780223","439378.935727","440145.621913","440911.126144","441678.386457","442445.09954","431712.453532","432479.130133","433245.049578","434012.311128","434778.949702","435545.178626","436311.815035","437078.891083","441687.612074"
"Blocked","Female","ball","5","F_knife.wav","None","725.107529142","218","445578.681776","437845.441234","438611.780223","439378.935727","440145.621913","440911.126144","441678.386457","442445.09954","431712.453532","432479.130133","433245.049578","434012.311128","434778.949702","435545.178626","436311.815035","437078.891083","442454.833741"
"Blocked","Female","ball","5","F_jaw.wav","None","722.602328911","218","445578.681776","437845.441234","438611.780223","439378.935727","440145.621913","440911.126144","441678.386457","442445.09954","446345.231617","432479.130133","433245.049578","434012.311128","434778.949702","435545.178626","436311.815035","437078.891083","445588.336211"
"Blocked","Female","ball","5","F_greet.wav","None","722.99775666","218","445578.681776","437845.441234","438611.780223","439378.935727","440145.621913","440911.126144","441678.386457","442445.09954","446345.231617","447111.150754","433245.049578","434012.311128","434778.949702","435545.178626","436311.815035","437078.891083","446355.334967"
"Blocked","Female","ball","5","F_greet.wav","None","717.670457496","218","445578.681776","437845.441234","438611.780223","439378.935727","440145.621913","440911.126144","441678.386457","442445.09954","446345.231617","447111.150754","447878.282452","434012.311128","434778.949702","435545.178626","436311.815035","437078.891083","447127.877749"
"Blocked","Female","ball","5","F_bluff.wav","None","724.754148439","218","445578.681776","437845.441234","438611.780223","439378.935727","440145.621913","440911.126144","441678.386457","442445.09954","446345.231617","447111.150754","447878.282452","448644.801377","434778.949702","435545.178626","436311.815035","437078.891083","447887.596801"
"Blocked","Female","ball","5","F_dime.wav","None","725.468948251","218","445578.681776","437845.441234","438611.780223","439378.935727","440145.621913","440911.126144","441678.386457","442445.09954","446345.231617","447111.150754","447878.282452","448644.801377","449411.444588","435545.178626","436311.815035","437078.891083","448654.35255"
"Blocked","Female","ball","5","F_priest.wav","None","726.138300161","218","445578.681776","437845.441234","438611.780223","439378.935727","440145.621913","440911.126144","441678.386457","442445.09954","446345.231617","447111.150754","447878.282452","448644.801377","449411.444588","450178.160145","436311.815035","437078.891083","449420.938873"
"Blocked","Female","ball","5","F_ball.wav","None","726.77364343","218","445578.681776","437845.441234","438611.780223","439378.935727","440145.621913","440911.126144","441678.386457","442445.09954","446345.231617","447111.150754","447878.282452","448644.801377","449411.444588","450178.160145","450944.77955","437078.891083","450187.585485"
"Blocked","Female","ball","5","F_depth.wav","None","726.856810012","218","445578.681776","437845.441234","438611.780223","439378.935727","440145.621913","440911.126144","441678.386457","442445.09954","446345.231617","447111.150754","447878.282452","448644.801377","449411.444588","450178.160145","450944.77955","451711.393699","450954.827248"
"Blocked","Female","ball","5","F_ball.wav","space","61.4752577821","218","445578.681776","452478.094725","438611.780223","439378.935727","440145.621913","440911.126144","441678.386457","442445.09954","446345.231617","447111.150754","447878.282452","448644.801377","449411.444588","450178.160145","450944.77955","451711.393699","451721.132846"
"Blocked","Female","ball","5","F_jaw.wav","space","523.059714236","218","445578.681776","452478.094725","453244.277891","439378.935727","440145.621913","440911.126144","441678.386457","442445.09954","446345.231617","447111.150754","447878.282452","448644.801377","449411.444588","450178.160145","450944.77955","451711.393699","452483.516939"
"Blocked","Female","ball","5","F_ball.wav","None","727.231523415","218","445578.681776","452478.094725","453244.277891","454011.285304","440145.621913","440911.126144","441678.386457","442445.09954","446345.231617","447111.150754","447878.282452","448644.801377","449411.444588","450178.160145","450944.77955","451711.393699","453253.403338"
"Blocked","Female","ball","5","F_cling.wav","space","441.089612155","218","445578.681776","452478.094725","453244.277891","454011.285304","454777.956031","440911.126144","441678.386457","442445.09954","446345.231617","447111.150754","447878.282452","448644.801377","449411.444588","450178.160145","450944.77955","451711.393699","454021.428536"
"Blocked","Female","ball","5","F_ball.wav","None","725.779663582","218","445578.681776","452478.094725","453244.277891","454011.285304","454777.956031","455544.679317","441678.386457","442445.09954","446345.231617","447111.150754","447878.282452","448644.801377","449411.444588","450178.160145","450944.77955","451711.393699","454787.610466"
"Blocked","Female","ball","5","F_greet.wav","space","491.947062765","218","445578.681776","452478.094725","453244.277891","454011.285304","454777.956031","455544.679317","456311.307379","442445.09954","446345.231617","447111.150754","447878.282452","448644.801377","449411.444588","450178.160145","450944.77955","451711.393699","455554.533476"
"Blocked","Female","ball","5","F_dime.wav","None","725.19873413","218","445578.681776","452478.094725","453244.277891","454011.285304","454777.956031","455544.679317","456311.307379","457077.936677","446345.231617","447111.150754","447878.282452","448644.801377","449411.444588","450178.160145","450944.77955","451711.393699","456320.994586"
"Blocked","Female","ball","3","F_romp.wav","None","725.951870976","218","460211.564979","452478.094725","453244.277891","454011.285304","454777.956031","455544.679317","456311.307379","457077.936677","446345.231617","447111.150754","447878.282452","448644.801377","449411.444588","450178.160145","450944.77955","451711.393699","457087.577818"
"Blocked","Female","ball","3","F_reek.wav","None","721.948744656","218","460211.564979","452478.094725","453244.277891","454011.285304","454777.956031","455544.679317","456311.307379","457077.936677","460978.357209","447111.150754","447878.282452","448644.801377","449411.444588","450178.160145","450944.77955","451711.393699","460221.628136"
"Blocked","Female","ball","3","F_ball.wav","None","722.502776349","218","460211.564979","452478.094725","453244.277891","454011.285304","454777.956031","455544.679317","456311.307379","457077.936677","460978.357209","461743.964394","447878.282452","448644.801377","449411.444588","450178.160145","450944.77955","451711.393699","460988.294225"
"Blocked","Female","ball","3","F_cave.wav","space","445.160446587","218","460211.564979","452478.094725","453244.277891","454011.285304","454777.956031","455544.679317","456311.307379","457077.936677","460978.357209","461743.964394","462511.485337","448644.801377","449411.444588","450178.160145","450944.77955","451711.393699","461753.146109"
"Blocked","Female","ball","3","F_knife.wav","None","722.259769129","218","460211.564979","452478.094725","453244.277891","454011.285304","454777.956031","455544.679317","456311.307379","457077.936677","460978.357209","461743.964394","462511.485337","463277.746414","449411.444588","450178.160145","450944.77955","451711.393699","462521.822727"
"Blocked","Female","ball","3","F_cave.wav","None","724.736525779","218","460211.564979","452478.094725","453244.277891","454011.285304","454777.956031","455544.679317","456311.307379","457077.936677","460978.357209","461743.964394","462511.485337","463277.746414","464044.407866","450178.160145","450944.77955","451711.393699","463287.024281"
"Blocked","Female","ball","3","F_cave.wav","None","724.78259202","218","460211.564979","452478.094725","453244.277891","454011.285304","454777.956031","455544.679317","456311.307379","457077.936677","460978.357209","461743.964394","462511.485337","463277.746414","464044.407866","464811.287592","450944.77955","451711.393699","464054.168656"
"Blocked","Female","ball","3","F_reek.wav","None","725.348990498","218","460211.564979","452478.094725","453244.277891","454011.285304","454777.956031","455544.679317","456311.307379","457077.936677","460978.357209","461743.964394","462511.485337","463277.746414","464044.407866","464811.287592","465577.682849","451711.393699","464820.898125"
"Blocked","Female","ball","3","F_ball.wav","None","725.616422089","218","460211.564979","452478.094725","453244.277891","454011.285304","454777.956031","455544.679317","456311.307379","457077.936677","460978.357209","461743.964394","462511.485337","463277.746414","464044.407866","464811.287592","465577.682849","466344.333789","465587.39108"
"Blocked","Female","ball","3","F_knife.wav","space","428.083779989","218","460211.564979","467110.919804","453244.277891","454011.285304","454777.956031","455544.679317","456311.307379","457077.936677","460978.357209","461743.964394","462511.485337","463277.746414","464044.407866","464811.287592","465577.682849","466344.333789","466354.089014"
"Blocked","Female","ball","3","F_ball.wav","None","725.405568504","218","460211.564979","467110.919804","467877.570744","454011.285304","454777.956031","455544.679317","456311.307379","457077.936677","460978.357209","461743.964394","462511.485337","463277.746414","464044.407866","464811.287592","465577.682849","466344.333789","467120.335869"
"Blocked","Female","ball","3","F_done.wav","space","652.734047471","218","460211.564979","467110.919804","467877.570744","468644.24178","454777.956031","455544.679317","456311.307379","457077.936677","460978.357209","461743.964394","462511.485337","463277.746414","464044.407866","464811.287592","465577.682849","466344.333789","467881.408465"
"Blocked","Female","ball","3","F_knife.wav","None","724.837005851","218","460211.564979","467110.919804","467877.570744","468644.24178","469410.944661","455544.679317","456311.307379","457077.936677","460978.357209","461743.964394","462511.485337","463277.746414","464044.407866","464811.287592","465577.682849","466344.333789","468654.246814"
"Blocked","Female","ball","3","F_knife.wav","None","726.253002038","218","460211.564979","467110.919804","467877.570744","468644.24178","469410.944661","470177.596838","456311.307379","457077.936677","460978.357209","461743.964394","462511.485337","463277.746414","464044.407866","464811.287592","465577.682849","466344.333789","469420.26643"
"Blocked","Female","ball","3","F_ball.wav","None","726.667598297","218","460211.564979","467110.919804","467877.570744","468644.24178","469410.944661","470177.596838","470944.158428","457077.936677","460978.357209","461743.964394","462511.485337","463277.746414","464044.407866","464811.287592","465577.682849","466344.333789","470187.199024"
"Blocked","Female","ball","3","F_cave.wav","space","507.258062527","218","460211.564979","467110.919804","467877.570744","468644.24178","469410.944661","470177.596838","470944.158428","471710.35829","460978.357209","461743.964394","462511.485337","463277.746414","464044.407866","464811.287592","465577.682849","466344.333789","470954.741609"
"Blocked","Female","done","20","F_cave.wav","None","726.897929548","218","474843.826133","467110.919804","467877.570744","468644.24178","469410.944661","470177.596838","470944.158428","471710.35829","460978.357209","461743.964394","462511.485337","463277.746414","464044.407866","464811.287592","465577.682849","466344.333789","471719.74282"
"Blocked","Female","done","20","F_done.wav","None","722.833278516","218","474843.826133","467110.919804","467877.570744","468644.24178","469410.944661","470177.596838","470944.158428","471710.35829","475610.540453","461743.964394","462511.485337","463277.746414","464044.407866","464811.287592","465577.682849","466344.333789","474853.083594"
"Blocked","Female","done","20","F_gnash.wav","space","434.103000429","218","474843.826133","467110.919804","467877.570744","468644.24178","469410.944661","470177.596838","470944.158428","471710.35829","475610.540453","476377.712653","462511.485337","463277.746414","464044.407866","464811.287592","465577.682849","466344.333789","475619.758341"
"Blocked","Female","done","20","F_bluff.wav","None","722.125898756","218","474843.826133","467110.919804","467877.570744","468644.24178","469410.944661","470177.596838","470944.158428","471710.35829","475610.540453","476377.712653","477144.267441","463277.746414","464044.407866","464811.287592","465577.682849","466344.333789","476387.583816"
"Blocked","Female","done","20","F_knife.wav","None","722.907479183","218","474843.826133","467110.919804","467877.570744","468644.24178","469410.944661","470177.596838","470944.158428","471710.35829","475610.540453","476377.712653","477144.267441","477910.82594","464044.407866","464811.287592","465577.682849","466344.333789","477154.220225"
