Condition,Talker,Target,Trial,current_stimulus,response_response,response_time_response,subject_nr,time_Audio1,time_Audio10,time_Audio11,time_Audio12,time_Audio13,time_Audio14,time_Audio15,time_Audio16,time_Audio2,time_Audio3,time_Audio4,time_Audio5,time_Audio6,time_Audio7,time_Audio8,time_Audio9,time_response,title
Blocked,Male,done,24,M_reek.wav,NA,NA,101,967275.0755,NA,NA,NA,NA,NA,NA,NA,NA,NA,NA,NA,NA,NA,NA,NA,NA,Mapping
Blocked,Male,done,24,M_done.wav,None,717.9356693,101,967275.0755,NA,NA,NA,NA,NA,NA,NA,968041.5685,NA,NA,NA,NA,NA,NA,NA,967290.0147,Mapping
Blocked,Male,done,24,M_knife.wav,None,722.5924216,101,967275.0755,NA,NA,NA,NA,NA,NA,NA,968041.5685,968808.0761,NA,NA,NA,NA,NA,NA,968051.4385,Mapping
Blocked,Male,done,24,M_done.wav,None,722.8187358,101,967275.0755,NA,NA,NA,NA,NA,NA,NA,968041.5685,968808.0761,969558.0401,NA,NA,NA,NA,NA,968817.2783,Mapping
Blocked,Male,done,24,M_romp.wav,space,533.8313274,101,967275.0755,NA,NA,NA,NA,NA,NA,NA,968041.5685,968808.0761,969558.0401,970324.4794,NA,NA,NA,NA,969567.7101,Mapping
Blocked,Male,done,24,M_ball.wav,space,671.4309079,101,967275.0755,NA,NA,NA,NA,NA,NA,NA,968041.5685,968808.0761,969558.0401,970324.4794,971091.1619,NA,NA,NA,970334.1283,Mapping
Blocked,Male,done,24,M_done.wav,None,734.0438524,101,967275.0755,NA,NA,NA,NA,NA,NA,NA,968041.5685,968808.0761,969558.0401,970324.4794,971091.1619,971858.0841,NA,NA,971101.2459,Mapping
Blocked,Male,done,24,M_cling.wav,space,409.7864764,101,967275.0755,NA,NA,NA,NA,NA,NA,NA,968041.5685,968808.0761,969558.0401,970324.4794,971091.1619,971858.0841,972624.6998,NA,971867.6993,Mapping
Blocked,Male,done,24,M_greet.wav,None,730.4503434,101,967275.0755,NA,NA,NA,NA,NA,NA,NA,968041.5685,968808.0761,969558.0401,970324.4794,971091.1619,971858.0841,972624.6998,973391.5178,972634.3024,Mapping
Blocked,Male,done,24,M_gnash.wav,space,260.3434347,101,967275.0755,974158.1373,NA,NA,NA,NA,NA,NA,968041.5685,968808.0761,969558.0401,970324.4794,971091.1619,971858.0841,972624.6998,973391.5178,973401.1399,Mapping
Blocked,Male,done,24,M_jaw.wav,space,333.5476928,101,967275.0755,974158.1373,974925.0956,NA,NA,NA,NA,NA,968041.5685,968808.0761,969558.0401,970324.4794,971091.1619,971858.0841,972624.6998,973391.5178,974167.939,Mapping
Blocked,Male,done,24,M_romp.wav,None,728.7239256,101,967275.0755,974158.1373,974925.0956,975691.5784,NA,NA,NA,NA,968041.5685,968808.0761,969558.0401,970324.4794,971091.1619,971858.0841,972624.6998,973391.5178,974934.5216,Mapping
Blocked,Male,done,24,M_done.wav,None,726.1117293,101,967275.0755,974158.1373,974925.0956,975691.5784,976458.7878,NA,NA,NA,968041.5685,968808.0761,969558.0401,970324.4794,971091.1619,971858.0841,972624.6998,973391.5178,975700.8545,Mapping
Blocked,Male,done,24,M_reek.wav,space,464.8559273,101,967275.0755,974158.1373,974925.0956,975691.5784,976458.7878,977208.0967,NA,NA,968041.5685,968808.0761,969558.0401,970324.4794,971091.1619,971858.0841,972624.6998,973391.5178,976468.5218,Mapping
Blocked,Male,done,24,M_ball.wav,None,735.2879615,101,967275.0755,974158.1373,974925.0956,975691.5784,976458.7878,977208.0967,977975.0189,NA,968041.5685,968808.0761,969558.0401,970324.4794,971091.1619,971858.0841,972624.6998,973391.5178,977217.8758,Mapping
Blocked,Male,done,24,M_greet.wav,None,731.9015979,101,967275.0755,974158.1373,974925.0956,975691.5784,976458.7878,977208.0967,977975.0189,978741.4705,968041.5685,968808.0761,969558.0401,970324.4794,971091.1619,971858.0841,972624.6998,973391.5178,977984.547,Mapping
Blocked,Male,cave,7,M_park.wav,None,728.5548084,101,981958.6788,974158.1373,974925.0956,975691.5784,976458.7878,977208.0967,977975.0189,978741.4705,968041.5685,968808.0761,969558.0401,970324.4794,971091.1619,971858.0841,972624.6998,973391.5178,978751.0239,Mapping
Blocked,Male,cave,7,M_cave.wav,None,722.0699206,101,981958.6788,974158.1373,974925.0956,975691.5784,976458.7878,977208.0967,977975.0189,978741.4705,982725.2603,968808.0761,969558.0401,970324.4794,971091.1619,971858.0841,972624.6998,973391.5178,981968.4855,Mapping
Blocked,Male,cave,7,M_reek.wav,space,406.1020708,101,981958.6788,974158.1373,974925.0956,975691.5784,976458.7878,977208.0967,977975.0189,978741.4705,982725.2603,983475.2308,969558.0401,970324.4794,971091.1619,971858.0841,972624.6998,973391.5178,982735.1804,Mapping
Blocked,Male,cave,7,M_cave.wav,None,735.2743579,101,981958.6788,974158.1373,974925.0956,975691.5784,976458.7878,977208.0967,977975.0189,978741.4705,982725.2603,983475.2308,984241.8642,970324.4794,971091.1619,971858.0841,972624.6998,973391.5178,983484.5014,Mapping
Blocked,Male,cave,7,M_jaw.wav,space,298.1437608,101,981958.6788,974158.1373,974925.0956,975691.5784,976458.7878,977208.0967,977975.0189,978741.4705,982725.2603,983475.2308,984241.8642,985007.8301,971091.1619,971858.0841,972624.6998,973391.5178,984251.0531,Mapping
Blocked,Male,cave,7,M_cave.wav,None,729.4152347,101,981958.6788,974158.1373,974925.0956,975691.5784,976458.7878,977208.0967,977975.0189,978741.4705,982725.2603,983475.2308,984241.8642,985007.8301,985774.4397,971858.0841,972624.6998,973391.5178,985017.1461,Mapping
Blocked,Male,cave,7,M_park.wav,space,333.9279746,101,981958.6788,974158.1373,974925.0956,975691.5784,976458.7878,977208.0967,977975.0189,978741.4705,982725.2603,983475.2308,984241.8642,985007.8301,985774.4397,986541.6682,972624.6998,973391.5178,985783.2845,Mapping
Blocked,Male,cave,7,M_tile.wav,None,721.7514731,101,981958.6788,974158.1373,974925.0956,975691.5784,976458.7878,977208.0967,977975.0189,978741.4705,982725.2603,983475.2308,984241.8642,985007.8301,985774.4397,986541.6682,987308.5357,973391.5178,986551.1774,Mapping
Blocked,Male,cave,7,M_lash.wav,None,721.1458047,101,981958.6788,974158.1373,974925.0956,975691.5784,976458.7878,977208.0967,977975.0189,978741.4705,982725.2603,983475.2308,984241.8642,985007.8301,985774.4397,986541.6682,987308.5357,988075.2463,987318.3151,Mapping
Blocked,Male,cave,7,M_cling.wav,None,720.0377314,101,981958.6788,988824.3837,974925.0956,975691.5784,976458.7878,977208.0967,977975.0189,978741.4705,982725.2603,983475.2308,984241.8642,985007.8301,985774.4397,986541.6682,987308.5357,988075.2463,988085.646,Mapping
Blocked,Male,cave,7,M_ball.wav,None,735.4345091,101,981958.6788,988824.3837,989591.3998,975691.5784,976458.7878,977208.0967,977975.0189,978741.4705,982725.2603,983475.2308,984241.8642,985007.8301,985774.4397,986541.6682,987308.5357,988075.2463,988833.7352,Mapping
Blocked,Male,cave,7,M_ball.wav,None,731.5800588,101,981958.6788,988824.3837,989591.3998,990358.0465,976458.7878,977208.0967,977975.0189,978741.4705,982725.2603,983475.2308,984241.8642,985007.8301,985774.4397,986541.6682,987308.5357,988075.2463,989600.8073,Mapping
Blocked,Male,cave,7,M_cling.wav,None,728.3000504,101,981958.6788,988824.3837,989591.3998,990358.0465,991124.7331,977208.0967,977975.0189,978741.4705,982725.2603,983475.2308,984241.8642,985007.8301,985774.4397,986541.6682,987308.5357,988075.2463,990367.2762,Mapping
Blocked,Male,cave,7,M_cave.wav,None,724.3274963,101,981958.6788,988824.3837,989591.3998,990358.0465,991124.7331,991891.6772,977975.0189,978741.4705,982725.2603,983475.2308,984241.8642,985007.8301,985774.4397,986541.6682,987308.5357,988075.2463,991134.4275,Mapping
Blocked,Male,cave,7,M_greet.wav,space,351.8373952,101,981958.6788,988824.3837,989591.3998,990358.0465,991124.7331,991891.6772,992641.3438,978741.4705,982725.2603,983475.2308,984241.8642,985007.8301,985774.4397,986541.6682,987308.5357,988075.2463,991901.2705,Mapping
Blocked,Male,cave,7,M_lash.wav,None,734.8606854,101,981958.6788,988824.3837,989591.3998,990358.0465,991124.7331,991891.6772,992641.3438,993407.6121,982725.2603,983475.2308,984241.8642,985007.8301,985774.4397,986541.6682,987308.5357,988075.2463,992650.3318,Mapping
Blocked,Male,cave,8,M_done.wav,None,731.7136211,101,996541.4509,988824.3837,989591.3998,990358.0465,991124.7331,991891.6772,992641.3438,993407.6121,982725.2603,983475.2308,984241.8642,985007.8301,985774.4397,986541.6682,987308.5357,988075.2463,993416.7552,Mapping
Blocked,Male,cave,8,M_cave.wav,None,719.9774428,101,996541.4509,988824.3837,989591.3998,990358.0465,991124.7331,991891.6772,992641.3438,993407.6121,997290.9982,983475.2308,984241.8642,985007.8301,985774.4397,986541.6682,987308.5357,988075.2463,996551.277,Mapping
Blocked,Male,cave,8,M_romp.wav,space,336.2690269,101,996541.4509,988824.3837,989591.3998,990358.0465,991124.7331,991891.6772,992641.3438,993407.6121,997290.9982,998057.8801,984241.8642,985007.8301,985774.4397,986541.6682,987308.5357,988075.2463,997300.6617,Mapping
Blocked,Male,cave,8,M_cave.wav,None,730.3044141,101,996541.4509,988824.3837,989591.3998,990358.0465,991124.7331,991891.6772,992641.3438,993407.6121,997290.9982,998057.8801,998824.5395,985007.8301,985774.4397,986541.6682,987308.5357,988075.2463,998067.4682,Mapping
Blocked,Male,cave,8,M_bluff.wav,space,307.0664717,101,996541.4509,988824.3837,989591.3998,990358.0465,991124.7331,991891.6772,992641.3438,993407.6121,997290.9982,998057.8801,998824.5395,999591.1491,985774.4397,986541.6682,987308.5357,988075.2463,998833.8375,Mapping
Blocked,Male,cave,8,M_dime.wav,None,726.8129319,101,996541.4509,988824.3837,989591.3998,990358.0465,991124.7331,991891.6772,992641.3438,993407.6121,997290.9982,998057.8801,998824.5395,999591.1491,1000357.826,986541.6682,987308.5357,988075.2463,999600.4923,Mapping
Blocked,Male,cave,8,M_cave.wav,None,726.0093932,101,996541.4509,988824.3837,989591.3998,990358.0465,991124.7331,991891.6772,992641.3438,993407.6121,997290.9982,998057.8801,998824.5395,999591.1491,1000357.826,1001124.956,987308.5357,988075.2463,1000367.603,Mapping
Blocked,Male,cave,8,M_greet.wav,space,405.8510229,101,996541.4509,988824.3837,989591.3998,990358.0465,991124.7331,991891.6772,992641.3438,993407.6121,997290.9982,998057.8801,998824.5395,999591.1491,1000357.826,1001124.956,1001891.099,988075.2463,1001135.056,Mapping
Blocked,Male,cave,8,M_done.wav,None,720.1413041,101,996541.4509,988824.3837,989591.3998,990358.0465,991124.7331,991891.6772,992641.3438,993407.6121,997290.9982,998057.8801,998824.5395,999591.1491,1000357.826,1001124.956,1001891.099,1002640.974,1001899.956,Mapping
Blocked,Male,cave,8,M_reek.wav,None,733.1886819,101,996541.4509,1003407.778,989591.3998,990358.0465,991124.7331,991891.6772,992641.3438,993407.6121,997290.9982,998057.8801,998824.5395,999591.1491,1000357.826,1001124.956,1001891.099,1002640.974,1002650.223,Mapping
Blocked,Male,cave,8,M_bluff.wav,None,729.6177425,101,996541.4509,1003407.778,1004174.468,990358.0465,991124.7331,991891.6772,992641.3438,993407.6121,997290.9982,998057.8801,998824.5395,999591.1491,1000357.826,1001124.956,1001891.099,1002640.974,1003417.131,Mapping
Blocked,Male,cave,8,M_gnash.wav,None,726.9594796,101,996541.4509,1003407.778,1004174.468,1004941.274,991124.7331,991891.6772,992641.3438,993407.6121,997290.9982,998057.8801,998824.5395,999591.1491,1000357.826,1001124.956,1001891.099,1002640.974,1004183.91,Mapping
Blocked,Male,cave,8,M_bluff.wav,None,722.9711576,101,996541.4509,1003407.778,1004174.468,1004941.274,1005708.061,991891.6772,992641.3438,993407.6121,997290.9982,998057.8801,998824.5395,999591.1491,1000357.826,1001124.956,1001891.099,1002640.974,1004951.218,Mapping
Blocked,Male,cave,8,M_cave.wav,None,719.5854124,101,996541.4509,1003407.778,1004174.468,1004941.274,1005708.061,1006457.564,992641.3438,993407.6121,997290.9982,998057.8801,998824.5395,999591.1491,1000357.826,1001124.956,1001891.099,1002640.974,1005717.868,Mapping
Blocked,Male,cave,8,M_dime.wav,space,385.300653,101,996541.4509,1003407.778,1004174.468,1004941.274,1005708.061,1006457.564,1007224.446,993407.6121,997290.9982,998057.8801,998824.5395,999591.1491,1000357.826,1001124.956,1001891.099,1002640.974,1006467.423,Mapping
Blocked,Male,cave,8,M_knife.wav,None,729.9160938,101,996541.4509,1003407.778,1004174.468,1004941.274,1005708.061,1006457.564,1007224.446,1007990.845,997290.9982,998057.8801,998824.5395,999591.1491,1000357.826,1001124.956,1001891.099,1002640.974,1007233.962,Mapping
Blocked,Male,done,19,M_ball.wav,None,727.1063364,101,1011108.119,1003407.778,1004174.468,1004941.274,1005708.061,1006457.564,1007224.446,1007990.845,997290.9982,998057.8801,998824.5395,999591.1491,1000357.826,1001124.956,1001891.099,1002640.974,1008000.166,Mapping
Blocked,Male,done,19,M_done.wav,None,719.0953744,101,1011108.119,1003407.778,1004174.468,1004941.274,1005708.061,1006457.564,1007224.446,1007990.845,1011857.498,998057.8801,998824.5395,999591.1491,1000357.826,1001124.956,1001891.099,1002640.974,1011117.836,Mapping
Blocked,Male,done,19,M_ball.wav,space,361.2652936,101,1011108.119,1003407.778,1004174.468,1004941.274,1005708.061,1006457.564,1007224.446,1007990.845,1011857.498,1012624.282,998824.5395,999591.1491,1000357.826,1001124.956,1001891.099,1002640.974,1011867.343,Mapping
Blocked,Male,done,19,M_ball.wav,None,730.088921,101,1011108.119,1003407.778,1004174.468,1004941.274,1005708.061,1006457.564,1007224.446,1007990.845,1011857.498,1012624.282,1013390.859,999591.1491,1000357.826,1001124.956,1001891.099,1002640.974,1012633.827,Mapping
Blocked,Male,done,19,M_cad.wav,None,731.9733259,101,1011108.119,1003407.778,1004174.468,1004941.274,1005708.061,1006457.564,1007224.446,1007990.845,1011857.498,1012624.282,1013390.859,1014157.503,1000357.826,1001124.956,1001891.099,1002640.974,1013395.118,Mapping
Blocked,Male,done,19,M_done.wav,None,726.9505136,101,1011108.119,1003407.778,1004174.468,1004941.274,1005708.061,1006457.564,1007224.446,1007990.845,1011857.498,1012624.282,1013390.859,1014157.503,1014924.91,1001124.956,1001891.099,1002640.974,1014167.283,Mapping
Blocked,Male,done,19,M_romp.wav,space,509.7517564,101,1011108.119,1003407.778,1004174.468,1004941.274,1005708.061,1006457.564,1007224.446,1007990.845,1011857.498,1012624.282,1013390.859,1014157.503,1014924.91,1015691.058,1001891.099,1002640.974,1014942.805,Mapping
Blocked,Male,done,19,M_done.wav,None,719.8002871,101,1011108.119,1003407.778,1004174.468,1004941.274,1005708.061,1006457.564,1007224.446,1007990.845,1011857.498,1012624.282,1013390.859,1014157.503,1014924.91,1015691.058,1016441.097,1002640.974,1015700.987,Mapping
Blocked,Male,done,19,M_greet.wav,space,601.9314608,101,1011108.119,1003407.778,1004174.468,1004941.274,1005708.061,1006457.564,1007224.446,1007990.845,1011857.498,1012624.282,1013390.859,1014157.503,1014924.91,1015691.058,1016441.097,1017207.407,1016450.643,Mapping
Blocked,Male,done,19,M_park.wav,None,729.8728096,101,1011108.119,1017974.148,1004174.468,1004941.274,1005708.061,1006457.564,1007224.446,1007990.845,1011857.498,1012624.282,1013390.859,1014157.503,1014924.91,1015691.058,1016441.097,1017207.407,1017217.338,Mapping
Blocked,Male,done,19,M_park.wav,None,727.173736,101,1011108.119,1017974.148,1018740.992,1004941.274,1005708.061,1006457.564,1007224.446,1007990.845,1011857.498,1012624.282,1013390.859,1014157.503,1014924.91,1015691.058,1016441.097,1017207.407,1017983.597,Mapping
Blocked,Male,done,19,M_jolt.wav,None,722.9866163,101,1011108.119,1017974.148,1018740.992,1019507.346,1005708.061,1006457.564,1007224.446,1007990.845,1011857.498,1012624.282,1013390.859,1014157.503,1014924.91,1015691.058,1016441.097,1017207.407,1018751.107,Mapping
Blocked,Male,done,19,M_done.wav,None,724.3689253,101,1011108.119,1017974.148,1018740.992,1019507.346,1020274.526,1006457.564,1007224.446,1007990.845,1011857.498,1012624.282,1013390.859,1014157.503,1014924.91,1015691.058,1016441.097,1017207.407,1019516.514,Mapping
Blocked,Male,done,19,M_tile.wav,space,383.4855027,101,1011108.119,1017974.148,1018740.992,1019507.346,1020274.526,1021023.589,1007224.446,1007990.845,1011857.498,1012624.282,1013390.859,1014157.503,1014924.91,1015691.058,1016441.097,1017207.407,1020285.005,Mapping
Blocked,Male,done,19,M_dime.wav,None,734.2420318,101,1011108.119,1017974.148,1018740.992,1019507.346,1020274.526,1021023.589,1021790.709,1007990.845,1011857.498,1012624.282,1013390.859,1014157.503,1014924.91,1015691.058,1016441.097,1017207.407,1021033.11,Mapping
Blocked,Male,done,19,M_knife.wav,None,730.4917725,101,1011108.119,1017974.148,1018740.992,1019507.346,1020274.526,1021023.589,1021790.709,1022557.296,1011857.498,1012624.282,1013390.859,1014157.503,1014924.91,1015691.058,1016441.097,1017207.407,1021800.333,Mapping
Blocked,Male,cave,12,M_bluff.wav,None,727.3252303,101,1025690.908,1017974.148,1018740.992,1019507.346,1020274.526,1021023.589,1021790.709,1022557.296,1011857.498,1012624.282,1013390.859,1014157.503,1014924.91,1015691.058,1016441.097,1017207.407,1022566.984,Mapping
Blocked,Male,cave,12,M_cave.wav,None,719.0366316,101,1025690.908,1017974.148,1018740.992,1019507.346,1020274.526,1021023.589,1021790.709,1022557.296,1026440.754,1012624.282,1013390.859,1014157.503,1014924.91,1015691.058,1016441.097,1017207.407,1025701.401,Mapping
Blocked,Male,cave,12,M_jolt.wav,space,338.0993265,101,1025690.908,1017974.148,1018740.992,1019507.346,1020274.526,1021023.589,1021790.709,1022557.296,1026440.754,1027207.315,1013390.859,1014157.503,1014924.91,1015691.058,1016441.097,1017207.407,1026450.275,Mapping
Blocked,Male,cave,12,M_done.wav,None,730.1220025,101,1025690.908,1017974.148,1018740.992,1019507.346,1020274.526,1021023.589,1021790.709,1022557.296,1026440.754,1027207.315,1027973.97,1014157.503,1014924.91,1015691.058,1016441.097,1017207.407,1027216.648,Mapping
Blocked,Male,cave,12,M_cave.wav,None,726.210046,101,1025690.908,1017974.148,1018740.992,1019507.346,1020274.526,1021023.589,1021790.709,1022557.296,1026440.754,1027207.315,1027973.97,1028740.868,1014924.91,1015691.058,1016441.097,1017207.407,1027984.14,Mapping
Blocked,Male,cave,12,M_cad.wav,space,549.3709427,101,1025690.908,1017974.148,1018740.992,1019507.346,1020274.526,1021023.589,1021790.709,1022557.296,1026440.754,1027207.315,1027973.97,1028740.868,1029507.534,1015691.058,1016441.097,1017207.407,1028750.92,Mapping
Blocked,Male,cave,12,M_bluff.wav,None,719.1504071,101,1025690.908,1017974.148,1018740.992,1019507.346,1020274.526,1021023.589,1021790.709,1022557.296,1026440.754,1027207.315,1027973.97,1028740.868,1029507.534,1030257.094,1016441.097,1017207.407,1029517.842,Mapping
Blocked,Male,cave,12,M_lash.wav,None,733.8292868,101,1025690.908,1017974.148,1018740.992,1019507.346,1020274.526,1021023.589,1021790.709,1022557.296,1026440.754,1027207.315,1027973.97,1028740.868,1029507.534,1030257.094,1031023.484,1017207.407,1030266.828,Mapping
Blocked,Male,cave,12,M_depth.wav,None,731.2480078,101,1025690.908,1017974.148,1018740.992,1019507.346,1020274.526,1021023.589,1021790.709,1022557.296,1026440.754,1027207.315,1027973.97,1028740.868,1029507.534,1030257.094,1031023.484,1031790.122,1031032.876,Mapping
Blocked,Male,cave,12,M_jolt.wav,None,731.2257474,101,1025690.908,1032557.091,1018740.992,1019507.346,1020274.526,1021023.589,1021790.709,1022557.296,1026440.754,1027207.315,1027973.97,1028740.868,1029507.534,1030257.094,1031023.484,1031790.122,1031799.471,Mapping
Blocked,Male,cave,12,M_cave.wav,None,726.9743198,101,1025690.908,1032557.091,1033323.387,1019507.346,1020274.526,1021023.589,1021790.709,1022557.296,1026440.754,1027207.315,1027973.97,1028740.868,1029507.534,1030257.094,1031023.484,1031790.122,1032567.238,Mapping
Blocked,Male,cave,12,M_ball.wav,space,375.2092709,101,1025690.908,1032557.091,1033323.387,1034090.84,1020274.526,1021023.589,1021790.709,1022557.296,1026440.754,1027207.315,1027973.97,1028740.868,1029507.534,1030257.094,1031023.484,1031790.122,1033332.975,Mapping
Blocked,Male,cave,12,M_cave.wav,None,719.4407198,101,1025690.908,1032557.091,1033323.387,1034090.84,1034840.247,1021023.589,1021790.709,1022557.296,1026440.754,1027207.315,1027973.97,1028740.868,1029507.534,1030257.094,1031023.484,1031790.122,1034101.246,Mapping
Blocked,Male,cave,12,M_ball.wav,space,434.405553,101,1025690.908,1032557.091,1033323.387,1034090.84,1034840.247,1035607.02,1021790.709,1022557.296,1026440.754,1027207.315,1027973.97,1028740.868,1029507.534,1030257.094,1031023.484,1031790.122,1034849.768,Mapping
Blocked,Male,cave,12,M_ball.wav,None,730.9944865,101,1025690.908,1032557.091,1033323.387,1034090.84,1034840.247,1035607.02,1036373.786,1022557.296,1026440.754,1027207.315,1027973.97,1028740.868,1029507.534,1030257.094,1031023.484,1031790.122,1035616.736,Mapping
Blocked,Male,cave,12,M_jaw.wav,None,728.441033,101,1025690.908,1032557.091,1033323.387,1034090.84,1034840.247,1035607.02,1036373.786,1037140.03,1026440.754,1027207.315,1027973.97,1028740.868,1029507.534,1030257.094,1031023.484,1031790.122,1036383.35,Mapping
Blocked,Male,done,20,M_gnash.wav,None,725.8572805,101,1040257.428,1032557.091,1033323.387,1034090.84,1034840.247,1035607.02,1036373.786,1037140.03,1026440.754,1027207.315,1027973.97,1028740.868,1029507.534,1030257.094,1031023.484,1031790.122,1037149.498,Mapping
Blocked,Male,done,20,M_cad.wav,None,718.8353605,101,1040257.428,1032557.091,1033323.387,1034090.84,1034840.247,1035607.02,1036373.786,1037140.03,1041006.911,1027207.315,1027973.97,1028740.868,1029507.534,1030257.094,1031023.484,1031790.122,1040267.404,Mapping
Blocked,Male,done,20,M_ball.wav,None,732.6553598,101,1040257.428,1032557.091,1033323.387,1034090.84,1034840.247,1035607.02,1036373.786,1037140.03,1041006.911,1041773.304,1027973.97,1028740.868,1029507.534,1030257.094,1031023.484,1031790.122,1041017.228,Mapping
Blocked,Male,done,20,M_romp.wav,None,730.9125559,101,1040257.428,1032557.091,1033323.387,1034090.84,1034840.247,1035607.02,1036373.786,1037140.03,1041006.911,1041773.304,1042540.466,1028740.868,1029507.534,1030257.094,1031023.484,1031790.122,1041782.608,Mapping
Blocked,Male,done,20,M_done.wav,None,727.1363261,101,1040257.428,1032557.091,1033323.387,1034090.84,1034840.247,1035607.02,1036373.786,1037140.03,1041006.911,1041773.304,1042540.466,1043306.584,1029507.534,1030257.094,1031023.484,1031790.122,1042550.087,Mapping
Blocked,Male,done,20,M_lash.wav,space,408.3509896,101,1040257.428,1032557.091,1033323.387,1034090.84,1034840.247,1035607.02,1036373.786,1037140.03,1041006.911,1041773.304,1042540.466,1043306.584,1044073.105,1030257.094,1031023.484,1031790.122,1043315.667,Mapping
Blocked,Male,done,20,M_park.wav,None,722.7049603,101,1040257.428,1032557.091,1033323.387,1034090.84,1034840.247,1035607.02,1036373.786,1037140.03,1041006.911,1041773.304,1042540.466,1043306.584,1044073.105,1044823.774,1031023.484,1031790.122,1044082.188,Mapping
Blocked,Male,done,20,M_done.wav,None,735.2885798,101,1040257.428,1032557.091,1033323.387,1034090.84,1034840.247,1035607.02,1036373.786,1037140.03,1041006.911,1041773.304,1042540.466,1043306.584,1044073.105,1044823.774,1045589.932,1031790.122,1044833.561,Mapping
Blocked,Male,done,20,M_gnash.wav,space,508.5200141,101,1040257.428,1032557.091,1033323.387,1034090.84,1034840.247,1035607.02,1036373.786,1037140.03,1041006.911,1041773.304,1042540.466,1043306.584,1044073.105,1044823.774,1045589.932,1046356.782,1045599.443,Mapping
Blocked,Male,done,20,M_park.wav,None,728.2462544,101,1040257.428,1047123.536,1033323.387,1034090.84,1034840.247,1035607.02,1036373.786,1037140.03,1041006.911,1041773.304,1042540.466,1043306.584,1044073.105,1044823.774,1045589.932,1046356.782,1046367.326,Mapping
Blocked,Male,done,20,M_done.wav,None,725.8980913,101,1040257.428,1047123.536,1047890.601,1034090.84,1034840.247,1035607.02,1036373.786,1037140.03,1041006.911,1041773.304,1042540.466,1043306.584,1044073.105,1044823.774,1045589.932,1046356.782,1047133.208,Mapping
Blocked,Male,done,20,M_cave.wav,space,527.6141827,101,1040257.428,1047123.536,1047890.601,1048657.056,1034840.247,1035607.02,1036373.786,1037140.03,1041006.911,1041773.304,1042540.466,1043306.584,1044073.105,1044823.774,1045589.932,1046356.782,1047900.214,Mapping
Blocked,Male,done,20,M_dime.wav,None,718.34625,101,1040257.428,1047123.536,1047890.601,1048657.056,1049406.735,1035607.02,1036373.786,1037140.03,1041006.911,1041773.304,1042540.466,1043306.584,1044073.105,1044823.774,1045589.932,1046356.782,1048667.579,Mapping
Blocked,Male,done,20,M_done.wav,None,733.4394206,101,1040257.428,1047123.536,1047890.601,1048657.056,1049406.735,1050173.478,1036373.786,1037140.03,1041006.911,1041773.304,1042540.466,1043306.584,1044073.105,1044823.774,1045589.932,1046356.782,1049416.553,Mapping
Blocked,Male,done,20,M_cave.wav,space,540.4800765,101,1040257.428,1047123.536,1047890.601,1048657.056,1049406.735,1050173.478,1050940.022,1037140.03,1041006.911,1041773.304,1042540.466,1043306.584,1044073.105,1044823.774,1045589.932,1046356.782,1050183.391,Mapping
Blocked,Male,done,20,M_lash.wav,None,727.852369,101,1040257.428,1047123.536,1047890.601,1048657.056,1049406.735,1050173.478,1050940.022,1051706.718,1041006.911,1041773.304,1042540.466,1043306.584,1044073.105,1044823.774,1045589.932,1046356.782,1050949.426,Mapping
Blocked,Male,tile,15,M_gnash.wav,None,724.3281146,101,1054823.681,1047123.536,1047890.601,1048657.056,1049406.735,1050173.478,1050940.022,1051706.718,1041006.911,1041773.304,1042540.466,1043306.584,1044073.105,1044823.774,1045589.932,1046356.782,1051716.414,Mapping
Blocked,Male,tile,15,M_greet.wav,None,718.9373873,101,1054823.681,1047123.536,1047890.601,1048657.056,1049406.735,1050173.478,1050940.022,1051706.718,1055573.163,1041773.304,1042540.466,1043306.584,1044073.105,1044823.774,1045589.932,1046356.782,1054834.288,Mapping
Blocked,Male,tile,15,M_tile.wav,None,734.1826707,101,1054823.681,1047123.536,1047890.601,1048657.056,1049406.735,1050173.478,1050940.022,1051706.718,1055573.163,1056339.98,1042540.466,1043306.584,1044073.105,1044823.774,1045589.932,1046356.782,1055582.906,Mapping
Blocked,Male,tile,15,M_park.wav,space,365.7102629,101,1054823.681,1047123.536,1047890.601,1048657.056,1049406.735,1050173.478,1050940.022,1051706.718,1055573.163,1056339.98,1057106.569,1043306.584,1044073.105,1044823.774,1045589.932,1046356.782,1056350.03,Mapping
Blocked,Male,tile,15,M_cad.wav,None,727.5679306,101,1054823.681,1047123.536,1047890.601,1048657.056,1049406.735,1050173.478,1050940.022,1051706.718,1055573.163,1056339.98,1057106.569,1057873.304,1044073.105,1044823.774,1045589.932,1046356.782,1057116.472,Mapping
Blocked,Male,tile,15,M_tile.wav,None,724.5293857,101,1054823.681,1047123.536,1047890.601,1048657.056,1049406.735,1050173.478,1050940.022,1051706.718,1055573.163,1056339.98,1057106.569,1057873.304,1058640.277,1044823.774,1045589.932,1046356.782,1057883.268,Mapping
Blocked,Male,tile,15,M_done.wav,space,529.4812738,101,1054823.681,1047123.536,1047890.601,1048657.056,1049406.735,1050173.478,1050940.022,1051706.718,1055573.163,1056339.98,1057106.569,1057873.304,1058640.277,1059389.914,1045589.932,1046356.782,1058650.177,Mapping
Blocked,Male,tile,15,M_lash.wav,None,735.3253713,101,1054823.681,1047123.536,1047890.601,1048657.056,1049406.735,1050173.478,1050940.022,1051706.718,1055573.163,1056339.98,1057106.569,1057873.304,1058640.277,1059389.914,1060156.498,1046356.782,1059399.418,Mapping
Blocked,Male,tile,15,M_done.wav,None,732.3084685,101,1054823.681,1047123.536,1047890.601,1048657.056,1049406.735,1050173.478,1050940.022,1051706.718,1055573.163,1056339.98,1057106.569,1057873.304,1058640.277,1059389.914,1060156.498,1060923.288,1060166.327,Mapping
Blocked,Male,tile,15,M_tile.wav,None,729.2501367,101,1054823.681,1061690.304,1047890.601,1048657.056,1049406.735,1050173.478,1050940.022,1051706.718,1055573.163,1056339.98,1057106.569,1057873.304,1058640.277,1059389.914,1060156.498,1060923.288,1060933.196,Mapping
Blocked,Male,tile,15,M_lash.wav,space,519.479861,101,1054823.681,1061690.304,1062456.968,1048657.056,1049406.735,1050173.478,1050940.022,1051706.718,1055573.163,1056339.98,1057106.569,1057873.304,1058640.277,1059389.914,1060156.498,1060923.288,1061700.149,Mapping
Blocked,Male,tile,15,M_reek.wav,None,722.1543246,101,1054823.681,1061690.304,1062456.968,1063223.259,1049406.735,1050173.478,1050940.022,1051706.718,1055573.163,1056339.98,1057106.569,1057873.304,1058640.277,1059389.914,1060156.498,1060923.288,1062467.288,Mapping
Blocked,Male,tile,15,M_romp.wav,None,720.2767215,101,1054823.681,1061690.304,1062456.968,1063223.259,1063973.061,1050173.478,1050940.022,1051706.718,1055573.163,1056339.98,1057106.569,1057873.304,1058640.277,1059389.914,1060156.498,1060923.288,1063233.031,Mapping
Blocked,Male,tile,15,M_jaw.wav,None,734.2302832,101,1054823.681,1061690.304,1062456.968,1063223.259,1063973.061,1064739.878,1050940.022,1051706.718,1055573.163,1056339.98,1057106.569,1057873.304,1058640.277,1059389.914,1060156.498,1060923.288,1063982.782,Mapping
Blocked,Male,tile,15,M_tile.wav,None,731.6341639,101,1054823.681,1061690.304,1062456.968,1063223.259,1063973.061,1064739.878,1065506.408,1051706.718,1055573.163,1056339.98,1057106.569,1057873.304,1058640.277,1059389.914,1060156.498,1060923.288,1064749.313,Mapping
Blocked,Male,tile,15,M_cad.wav,space,479.2568612,101,1054823.681,1061690.304,1062456.968,1063223.259,1063973.061,1064739.878,1065506.408,1066273.179,1055573.163,1056339.98,1057106.569,1057873.304,1058640.277,1059389.914,1060156.498,1060923.288,1065516.285,Mapping
Blocked,Male,ball,5,M_jolt.wav,None,725.0002551,101,1069389.933,1061690.304,1062456.968,1063223.259,1063973.061,1064739.878,1065506.408,1066273.179,1055573.163,1056339.98,1057106.569,1057873.304,1058640.277,1059389.914,1060156.498,1060923.288,1066283.004,Mapping
Blocked,Male,ball,5,M_ball.wav,None,719.9091157,101,1069389.933,1061690.304,1062456.968,1063223.259,1063973.061,1064739.878,1065506.408,1066273.179,1070139.358,1056339.98,1057106.569,1057873.304,1058640.277,1059389.914,1060156.498,1060923.288,1069399.898,Mapping
Blocked,Male,ball,5,M_bluff.wav,space,390.2415346,101,1069389.933,1061690.304,1062456.968,1063223.259,1063973.061,1064739.878,1065506.408,1066273.179,1070139.358,1070906.006,1057106.569,1057873.304,1058640.277,1059389.914,1060156.498,1060923.288,1070149.215,Mapping
Blocked,Male,ball,5,M_lash.wav,None,730.9246136,101,1069389.933,1061690.304,1062456.968,1063223.259,1063973.061,1064739.878,1065506.408,1066273.179,1070139.358,1070906.006,1071673.034,1057873.304,1058640.277,1059389.914,1060156.498,1060923.288,1070915.9,Mapping
Blocked,Male,ball,5,M_dime.wav,None,727.9500675,101,1069389.933,1061690.304,1062456.968,1063223.259,1063973.061,1064739.878,1065506.408,1066273.179,1070139.358,1070906.006,1071673.034,1072439.501,1058640.277,1059389.914,1060156.498,1060923.288,1071682.587,Mapping
Blocked,Male,ball,5,M_ball.wav,None,724.510217,101,1069389.933,1061690.304,1062456.968,1063223.259,1063973.061,1064739.878,1065506.408,1066273.179,1070139.358,1070906.006,1071673.034,1072439.501,1073206.637,1059389.914,1060156.498,1060923.288,1072449.624,Mapping
Blocked,Male,ball,5,M_cling.wav,space,378.5004095,101,1069389.933,1061690.304,1062456.968,1063223.259,1063973.061,1064739.878,1065506.408,1066273.179,1070139.358,1070906.006,1071673.034,1072439.501,1073206.637,1073956.034,1060156.498,1060923.288,1073216.882,Mapping
Blocked,Male,ball,5,M_done.wav,None,735.2109776,101,1069389.933,1061690.304,1062456.968,1063223.259,1063973.061,1064739.878,1065506.408,1066273.179,1070139.358,1070906.006,1071673.034,1072439.501,1073206.637,1073956.034,1074722.995,1060923.288,1073965.813,Mapping
Blocked,Male,ball,5,M_ball.wav,None,731.9890936,101,1069389.933,1061690.304,1062456.968,1063223.259,1063973.061,1064739.878,1065506.408,1066273.179,1070139.358,1070906.006,1071673.034,1072439.501,1073206.637,1073956.034,1074722.995,1075489.417,1074732.884,Mapping
Blocked,Male,ball,5,M_depth.wav,space,288.2453022,101,1069389.933,1076256.132,1062456.968,1063223.259,1063973.061,1064739.878,1065506.408,1066273.179,1070139.358,1070906.006,1071673.034,1072439.501,1073206.637,1073956.034,1074722.995,1075489.417,1075499.263,Mapping
Blocked,Male,ball,5,M_ball.wav,None,726.4202832,101,1069389.933,1076256.132,1077022.849,1063223.259,1063973.061,1064739.878,1065506.408,1066273.179,1070139.358,1070906.006,1071673.034,1072439.501,1073206.637,1073956.034,1074722.995,1075489.417,1076265.487,Mapping
Blocked,Male,ball,5,M_tile.wav,space,466.3928225,101,1069389.933,1076256.132,1077022.849,1077789.782,1063973.061,1064739.878,1065506.408,1066273.179,1070139.358,1070906.006,1071673.034,1072439.501,1073206.637,1073956.034,1074722.995,1075489.417,1077032.908,Mapping
Blocked,Male,ball,5,M_done.wav,None,719.0783699,101,1069389.933,1076256.132,1077022.849,1077789.782,1078539.051,1064739.878,1065506.408,1066273.179,1070139.358,1070906.006,1071673.034,1072439.501,1073206.637,1073956.034,1074722.995,1075489.417,1077799.858,Mapping
Blocked,Male,ball,5,M_park.wav,None,734.4352644,101,1069389.933,1076256.132,1077022.849,1077789.782,1078539.051,1079306.098,1065506.408,1066273.179,1070139.358,1070906.006,1071673.034,1072439.501,1073206.637,1073956.034,1074722.995,1075489.417,1078548.613,Mapping
Blocked,Male,ball,5,M_gnash.wav,None,731.0826007,101,1069389.933,1076256.132,1077022.849,1077789.782,1078539.051,1079306.098,1080072.852,1066273.179,1070139.358,1070906.006,1071673.034,1072439.501,1073206.637,1073956.034,1074722.995,1075489.417,1079315.755,Mapping
Blocked,Male,ball,5,M_reek.wav,None,728.2440903,101,1069389.933,1076256.132,1077022.849,1077789.782,1078539.051,1079306.098,1080072.852,1080839.313,1070139.358,1070906.006,1071673.034,1072439.501,1073206.637,1073956.034,1074722.995,1075489.417,1080082.553,Mapping
Blocked,Male,done,22,M_priest.wav,None,726.2505476,101,1083956.5,1076256.132,1077022.849,1077789.782,1078539.051,1079306.098,1080072.852,1080839.313,1070139.358,1070906.006,1071673.034,1072439.501,1073206.637,1073956.034,1074722.995,1075489.417,1080848.43,Mapping
Blocked,Male,done,22,M_lash.wav,None,721.6550114,101,1083956.5,1076256.132,1077022.849,1077789.782,1078539.051,1079306.098,1080072.852,1080839.313,1084723.216,1070906.006,1071673.034,1072439.501,1073206.637,1073956.034,1074722.995,1075489.417,1083966.902,Mapping
Blocked,Male,done,22,M_done.wav,None,719.0134437,101,1083956.5,1076256.132,1077022.849,1077789.782,1078539.051,1079306.098,1080072.852,1080839.313,1084723.216,1085472.639,1071673.034,1072439.501,1073206.637,1073956.034,1074722.995,1075489.417,1084733.183,Mapping
Blocked,Male,done,22,M_priest.wav,space,408.7974344,101,1083956.5,1076256.132,1077022.849,1077789.782,1078539.051,1079306.098,1080072.852,1080839.313,1084723.216,1085472.639,1086239.242,1072439.501,1073206.637,1073956.034,1074722.995,1075489.417,1085482.305,Mapping
Blocked,Male,done,22,M_done.wav,None,730.7128306,101,1083956.5,1076256.132,1077022.849,1077789.782,1078539.051,1079306.098,1080072.852,1080839.313,1084723.216,1085472.639,1086239.242,1087005.946,1073206.637,1073956.034,1074722.995,1075489.417,1086248.438,Mapping
Blocked,Male,done,22,M_cling.wav,None,726.698229,101,1083956.5,1076256.132,1077022.849,1077789.782,1078539.051,1079306.098,1080072.852,1080839.313,1084723.216,1085472.639,1086239.242,1087005.946,1087772.638,1073956.034,1074722.995,1075489.417,1087016.152,Mapping
Blocked,Male,done,22,M_dime.wav,space,60.44471951,101,1083956.5,1076256.132,1077022.849,1077789.782,1078539.051,1079306.098,1080072.852,1080839.313,1084723.216,1085472.639,1086239.242,1087005.946,1087772.638,1088539.477,1074722.995,1075489.417,1087782.603,Mapping
Blocked,Male,done,22,M_done.wav,None,720.2393117,101,1083956.5,1076256.132,1077022.849,1077789.782,1078539.051,1079306.098,1080072.852,1080839.313,1084723.216,1085472.639,1086239.242,1087005.946,1087772.638,1088539.477,1089289.329,1075489.417,1088549.343,Mapping
Blocked,Male,done,22,M_cad.wav,space,351.8253375,101,1083956.5,1076256.132,1077022.849,1077789.782,1078539.051,1079306.098,1080072.852,1080839.313,1084723.216,1085472.639,1086239.242,1087005.946,1087772.638,1088539.477,1089289.329,1090055.861,1089299.207,Mapping
Blocked,Male,done,22,M_gnash.wav,None,730.5922534,101,1083956.5,1090822.607,1077022.849,1077789.782,1078539.051,1079306.098,1080072.852,1080839.313,1084723.216,1085472.639,1086239.242,1087005.946,1087772.638,1088539.477,1089289.329,1090055.861,1090065.715,Mapping
Blocked,Male,done,22,M_park.wav,None,728.0984701,101,1083956.5,1090822.607,1091589.059,1077789.782,1078539.051,1079306.098,1080072.852,1080839.313,1084723.216,1085472.639,1086239.242,1087005.946,1087772.638,1088539.477,1089289.329,1090055.861,1090832.264,Mapping
Blocked,Male,done,22,M_tile.wav,None,725.7704032,101,1083956.5,1090822.607,1091589.059,1092356.017,1078539.051,1079306.098,1080072.852,1080839.313,1084723.216,1085472.639,1086239.242,1087005.946,1087772.638,1088539.477,1089289.329,1090055.861,1091598.606,Mapping
Blocked,Male,done,22,M_park.wav,None,722.0071586,101,1083956.5,1090822.607,1091589.059,1092356.017,1093122.845,1079306.098,1080072.852,1080839.313,1084723.216,1085472.639,1086239.242,1087005.946,1087772.638,1088539.477,1089289.329,1090055.861,1092366.389,Mapping
Blocked,Male,done,22,M_done.wav,None,718.5738008,101,1083956.5,1090822.607,1091589.059,1092356.017,1093122.845,1093872.278,1080072.852,1080839.313,1084723.216,1085472.639,1086239.242,1087005.946,1087772.638,1088539.477,1089289.329,1090055.861,1093133.697,Mapping
Blocked,Male,done,22,M_priest.wav,space,512.6054161,101,1083956.5,1090822.607,1091589.059,1092356.017,1093122.845,1093872.278,1094639.13,1080839.313,1084723.216,1085472.639,1086239.242,1087005.946,1087772.638,1088539.477,1089289.329,1090055.861,1093882.343,Mapping
Blocked,Male,done,22,M_cave.wav,None,730.0935586,101,1083956.5,1090822.607,1091589.059,1092356.017,1093122.845,1093872.278,1094639.13,1095405.771,1084723.216,1085472.639,1086239.242,1087005.946,1087772.638,1088539.477,1089289.329,1090055.861,1094649.219,Mapping
Blocked,Male,tile,14,M_cad.wav,None,727.2646326,101,1098539.283,1090822.607,1091589.059,1092356.017,1093122.845,1093872.278,1094639.13,1095405.771,1084723.216,1085472.639,1086239.242,1087005.946,1087772.638,1088539.477,1089289.329,1090055.861,1095415.976,Mapping
Blocked,Male,tile,14,M_jaw.wav,None,720.3067112,101,1098539.283,1090822.607,1091589.059,1092356.017,1093122.845,1093872.278,1094639.13,1095405.771,1099288.772,1085472.639,1086239.242,1087005.946,1087772.638,1088539.477,1089289.329,1090055.861,1098549.435,Mapping
Blocked,Male,tile,14,M_lash.wav,None,735.3652546,101,1098539.283,1090822.607,1091589.059,1092356.017,1093122.845,1093872.278,1094639.13,1095405.771,1099288.772,1100055.649,1086239.242,1087005.946,1087772.638,1088539.477,1089289.329,1090055.861,1099298.529,Mapping
Blocked,Male,tile,14,M_tile.wav,None,732.5159232,101,1098539.283,1090822.607,1091589.059,1092356.017,1093122.845,1093872.278,1094639.13,1095405.771,1099288.772,1100055.649,1100821.984,1087005.946,1087772.638,1088539.477,1089289.329,1090055.861,1100065.423,Mapping
Blocked,Male,tile,14,M_done.wav,space,315.3739299,101,1098539.283,1090822.607,1091589.059,1092356.017,1093122.845,1093872.278,1094639.13,1095405.771,1099288.772,1100055.649,1100821.984,1101588.892,1087772.638,1088539.477,1089289.329,1090055.861,1100831.398,Mapping
Blocked,Male,tile,14,M_tile.wav,None,726.7792322,101,1098539.283,1090822.607,1091589.059,1092356.017,1093122.845,1093872.278,1094639.13,1095405.771,1099288.772,1100055.649,1100821.984,1101588.892,1102355.301,1088539.477,1089289.329,1090055.861,1101598.428,Mapping
Blocked,Male,tile,14,M_bluff.wav,space,389.8303356,101,1098539.283,1090822.607,1091589.059,1092356.017,1093122.845,1093872.278,1094639.13,1095405.771,1099288.772,1100055.649,1100821.984,1101588.892,1102355.301,1103122.34,1089289.329,1090055.861,1102364.942,Mapping
Blocked,Male,tile,14,M_priest.wav,None,720.1669654,101,1098539.283,1090822.607,1091589.059,1092356.017,1093122.845,1093872.278,1094639.13,1095405.771,1099288.772,1100055.649,1100821.984,1101588.892,1102355.301,1103122.34,1103871.691,1090055.861,1103132.28,Mapping
Blocked,Male,tile,14,M_tile.wav,None,735.3188787,101,1098539.283,1090822.607,1091589.059,1092356.017,1093122.845,1093872.278,1094639.13,1095405.771,1099288.772,1100055.649,1100821.984,1101588.892,1102355.301,1103122.34,1103871.691,1104638.789,1103881.206,Mapping
Blocked,Male,tile,14,M_depth.wav,space,426.7297336,101,1098539.283,1105405.52,1091589.059,1092356.017,1093122.845,1093872.278,1094639.13,1095405.771,1099288.772,1100055.649,1100821.984,1101588.892,1102355.301,1103122.34,1103871.691,1104638.789,1104647.945,Mapping
Blocked,Male,tile,14,M_cad.wav,None,728.1355708,101,1098539.283,1105405.52,1106172.273,1092356.017,1093122.845,1093872.278,1094639.13,1095405.771,1099288.772,1100055.649,1100821.984,1101588.892,1102355.301,1103122.34,1103871.691,1104638.789,1105415.436,Mapping
Blocked,Male,tile,14,M_reek.wav,None,726.3584487,101,1098539.283,1105405.52,1106172.273,1106939.138,1093122.845,1093872.278,1094639.13,1095405.771,1099288.772,1100055.649,1100821.984,1101588.892,1102355.301,1103122.34,1103871.691,1104638.789,1106181.81,Mapping
Blocked,Male,tile,14,M_reek.wav,None,722.9473513,101,1098539.283,1105405.52,1106172.273,1106939.138,1107705.935,1093872.278,1094639.13,1095405.771,1099288.772,1100055.649,1100821.984,1101588.892,1102355.301,1103122.34,1103871.691,1104638.789,1106949.293,Mapping
Blocked,Male,tile,14,M_priest.wav,None,721.3705729,101,1098539.283,1105405.52,1106172.273,1106939.138,1107705.935,1108472.738,1094639.13,1095405.771,1099288.772,1100055.649,1100821.984,1101588.892,1102355.301,1103122.34,1103871.691,1104638.789,1107715.758,Mapping
Blocked,Male,tile,14,M_tile.wav,None,719.261709,101,1098539.283,1105405.52,1106172.273,1106939.138,1107705.935,1108472.738,1109222.106,1095405.771,1099288.772,1100055.649,1100821.984,1101588.892,1102355.301,1103122.34,1103871.691,1104638.789,1108482.472,Mapping
Blocked,Male,tile,14,M_greet.wav,space,330.8817005,101,1098539.283,1105405.52,1106172.273,1106939.138,1107705.935,1108472.738,1109222.106,1109988.791,1099288.772,1100055.649,1100821.984,1101588.892,1102355.301,1103122.34,1103871.691,1104638.789,1109231.726,Mapping
Blocked,Male,ball,3,M_romp.wav,None,730.474768,101,1113122.575,1105405.52,1106172.273,1106939.138,1107705.935,1108472.738,1109222.106,1109988.791,1099288.772,1100055.649,1100821.984,1101588.892,1102355.301,1103122.34,1103871.691,1104638.789,1109998.88,Mapping
Blocked,Male,ball,3,M_depth.wav,None,719.0415784,101,1113122.575,1105405.52,1106172.273,1106939.138,1107705.935,1108472.738,1109222.106,1109988.791,1113871.818,1100055.649,1100821.984,1101588.892,1102355.301,1103122.34,1103871.691,1104638.789,1113132.788,Mapping
Blocked,Male,ball,3,M_priest.wav,None,734.8374975,101,1113122.575,1105405.52,1106172.273,1106939.138,1107705.935,1108472.738,1109222.106,1109988.791,1113871.818,1114638.586,1100821.984,1101588.892,1102355.301,1103122.34,1103871.691,1104638.789,1113881.416,Mapping
Blocked,Male,ball,3,M_ball.wav,None,732.5360194,101,1113122.575,1105405.52,1106172.273,1106939.138,1107705.935,1108472.738,1109222.106,1109988.791,1113871.818,1114638.586,1115405.33,1101588.892,1102355.301,1103122.34,1103871.691,1104638.789,1114647.691,Mapping
Blocked,Male,ball,3,M_done.wav,space,362.7623056,101,1113122.575,1105405.52,1106172.273,1106939.138,1107705.935,1108472.738,1109222.106,1109988.791,1113871.818,1114638.586,1115405.33,1116172.106,1102355.301,1103122.34,1103871.691,1104638.789,1115415.721,Mapping
Blocked,Male,ball,3,M_ball.wav,None,726.5034505,101,1113122.575,1105405.52,1106172.273,1106939.138,1107705.935,1108472.738,1109222.106,1109988.791,1113871.818,1114638.586,1115405.33,1116172.106,1116938.592,1103122.34,1103871.691,1104638.789,1116181.65,Mapping
Blocked,Male,ball,3,M_depth.wav,space,534.6289917,101,1113122.575,1105405.52,1106172.273,1106939.138,1107705.935,1108472.738,1109222.106,1109988.791,1113871.818,1114638.586,1115405.33,1116172.106,1116938.592,1117705.667,1103871.691,1104638.789,1116947.824,Mapping
Blocked,Male,ball,3,M_dime.wav,None,719.2196616,101,1113122.575,1105405.52,1106172.273,1106939.138,1107705.935,1108472.738,1109222.106,1109988.791,1113871.818,1114638.586,1115405.33,1116172.106,1116938.592,1117705.667,1118454.96,1104638.789,1117715.931,Mapping
Blocked,Male,ball,3,M_knife.wav,None,734.798851,101,1113122.575,1105405.52,1106172.273,1106939.138,1107705.935,1108472.738,1109222.106,1109988.791,1113871.818,1114638.586,1115405.33,1116172.106,1116938.592,1117705.667,1118454.96,1119222.019,1118464.477,Mapping
Blocked,Male,ball,3,M_ball.wav,None,731.497819,101,1113122.575,1119988.484,1106172.273,1106939.138,1107705.935,1108472.738,1109222.106,1109988.791,1113871.818,1114638.586,1115405.33,1116172.106,1116938.592,1117705.667,1118454.96,1119222.019,1119231.959,Mapping
Blocked,Male,ball,3,M_jaw.wav,space,411.8752441,101,1113122.575,1119988.484,1120755.06,1106939.138,1107705.935,1108472.738,1109222.106,1109988.791,1113871.818,1114638.586,1115405.33,1116172.106,1116938.592,1117705.667,1118454.96,1119222.019,1119998.466,Mapping
Blocked,Male,ball,3,M_depth.wav,None,726.1472841,101,1113122.575,1119988.484,1120755.06,1121522.241,1107705.935,1108472.738,1109222.106,1109988.791,1113871.818,1114638.586,1115405.33,1116172.106,1116938.592,1117705.667,1118454.96,1119222.019,1120764.956,Mapping
Blocked,Male,ball,3,M_cling.wav,None,722.6956852,101,1113122.575,1119988.484,1120755.06,1121522.241,1122288.814,1108472.738,1109222.106,1109988.791,1113871.818,1114638.586,1115405.33,1116172.106,1116938.592,1117705.667,1118454.96,1119222.019,1121532.547,Mapping
Blocked,Male,ball,3,M_gnash.wav,None,720.5376629,101,1113122.575,1119988.484,1120755.06,1121522.241,1122288.814,1123038.25,1109222.106,1109988.791,1113871.818,1114638.586,1115405.33,1116172.106,1116938.592,1117705.667,1118454.96,1119222.019,1122298.907,Mapping
Blocked,Male,ball,3,M_ball.wav,None,735.4178138,101,1113122.575,1119988.484,1120755.06,1121522.241,1122288.814,1123038.25,1123804.864,1109988.791,1113871.818,1114638.586,1115405.33,1116172.106,1116938.592,1117705.667,1118454.96,1119222.019,1123048.174,Mapping
Blocked,Male,ball,3,M_priest.wav,space,492.1644932,101,1113122.575,1119988.484,1120755.06,1121522.241,1122288.814,1123038.25,1123804.864,1124571.915,1113871.818,1114638.586,1115405.33,1116172.106,1116938.592,1117705.667,1118454.96,1119222.019,1123814.117,Mapping
Blocked,Male,tile,13,M_jolt.wav,None,728.868309,101,1127705.47,1119988.484,1120755.06,1121522.241,1122288.814,1123038.25,1123804.864,1124571.915,1113871.818,1114638.586,1115405.33,1116172.106,1116938.592,1117705.667,1118454.96,1119222.019,1124581.892,Mapping
Blocked,Male,tile,13,M_tile.wav,None,720.4885045,101,1127705.47,1119988.484,1120755.06,1121522.241,1122288.814,1123038.25,1123804.864,1124571.915,1128455.361,1114638.586,1115405.33,1116172.106,1116938.592,1117705.667,1118454.96,1119222.019,1127715.65,Mapping
Blocked,Male,tile,13,M_romp.wav,space,673.6346877,101,1127705.47,1119988.484,1120755.06,1121522.241,1122288.814,1123038.25,1123804.864,1124571.915,1128455.361,1129221.859,1115405.33,1116172.106,1116938.592,1117705.667,1118454.96,1119222.019,1128464.55,Mapping
Blocked,Male,tile,13,M_bluff.wav,None,731.243061,101,1127705.47,1119988.484,1120755.06,1121522.241,1122288.814,1123038.25,1123804.864,1124571.915,1128455.361,1129221.859,1129988.218,1116172.106,1116938.592,1117705.667,1118454.96,1119222.019,1129232.333,Mapping
Blocked,Male,tile,13,M_tile.wav,None,729.0358804,101,1127705.47,1119988.484,1120755.06,1121522.241,1122288.814,1123038.25,1123804.864,1124571.915,1128455.361,1129221.859,1129988.218,1130754.691,1116938.592,1117705.667,1118454.96,1119222.019,1129998.759,Mapping
Blocked,Male,tile,13,M_depth.wav,space,406.3973302,101,1127705.47,1119988.484,1120755.06,1121522.241,1122288.814,1123038.25,1123804.864,1124571.915,1128455.361,1129221.859,1129988.218,1130754.691,1131522.188,1117705.667,1118454.96,1119222.019,1130763.784,Mapping
Blocked,Male,tile,13,M_tile.wav,None,723.2627071,101,1127705.47,1119988.484,1120755.06,1121522.241,1122288.814,1123038.25,1123804.864,1124571.915,1128455.361,1129221.859,1129988.218,1130754.691,1131522.188,1132288.959,1118454.96,1119222.019,1131532.21,Mapping
Blocked,Male,tile,13,M_greet.wav,space,463.2321547,101,1127705.47,1119988.484,1120755.06,1121522.241,1122288.814,1123038.25,1123804.864,1124571.915,1128455.361,1129221.859,1129988.218,1130754.691,1131522.188,1132288.959,1133037.684,1119222.019,1132298.905,Mapping
Blocked,Male,tile,13,M_knife.wav,None,735.7003972,101,1127705.47,1119988.484,1120755.06,1121522.241,1122288.814,1123038.25,1123804.864,1124571.915,1128455.361,1129221.859,1129988.218,1130754.691,1131522.188,1132288.959,1133037.684,1133804.65,1133047.242,Mapping
Blocked,Male,tile,13,M_priest.wav,None,733.1116981,101,1127705.47,1134571.663,1120755.06,1121522.241,1122288.814,1123038.25,1123804.864,1124571.915,1128455.361,1129221.859,1129988.218,1130754.691,1131522.188,1132288.959,1133037.684,1133804.65,1133814.222,Mapping
Blocked,Male,tile,13,M_done.wav,None,730.5066127,101,1127705.47,1134571.663,1135338.452,1121522.241,1122288.814,1123038.25,1123804.864,1124571.915,1128455.361,1129221.859,1129988.218,1130754.691,1131522.188,1132288.959,1133037.684,1133804.65,1134581.296,Mapping
Blocked,Male,tile,13,M_done.wav,None,727.7404487,101,1127705.47,1134571.663,1135338.452,1136104.864,1122288.814,1123038.25,1123804.864,1124571.915,1128455.361,1129221.859,1129988.218,1130754.691,1131522.188,1132288.959,1133037.684,1133804.65,1135348.394,Mapping
Blocked,Male,tile,13,M_cave.wav,None,725.1675173,101,1127705.47,1134571.663,1135338.452,1136104.864,1136871.996,1123038.25,1123804.864,1124571.915,1128455.361,1129221.859,1129988.218,1130754.691,1131522.188,1132288.959,1133037.684,1133804.65,1136115.248,Mapping
Blocked,Male,tile,13,M_tile.wav,None,722.559031,101,1127705.47,1134571.663,1135338.452,1136104.864,1136871.996,1137638.488,1123804.864,1124571.915,1128455.361,1129221.859,1129988.218,1130754.691,1131522.188,1132288.959,1133037.684,1133804.65,1136882.147,Mapping
Blocked,Male,tile,13,M_greet.wav,space,449.589311,101,1127705.47,1134571.663,1135338.452,1136104.864,1136871.996,1137638.488,1138405.059,1124571.915,1128455.361,1129221.859,1129988.218,1130754.691,1131522.188,1132288.959,1133037.684,1133804.65,1137648.433,Mapping
Blocked,Male,tile,13,M_bluff.wav,None,716.3245727,101,1127705.47,1134571.663,1135338.452,1136104.864,1136871.996,1137638.488,1138405.059,1139154.534,1128455.361,1129221.859,1129988.218,1130754.691,1131522.188,1132288.959,1133037.684,1133804.65,1138415.851,Mapping
Blocked,Male,cave,11,M_park.wav,None,736.0942827,101,1142288.328,1134571.663,1135338.452,1136104.864,1136871.996,1137638.488,1138405.059,1139154.534,1128455.361,1129221.859,1129988.218,1130754.691,1131522.188,1132288.959,1133037.684,1133804.65,1139163.804,Mapping
Blocked,Male,cave,11,M_ball.wav,space,0.03895571,101,1142288.328,1134571.663,1135338.452,1136104.864,1136871.996,1137638.488,1138405.059,1139154.534,1143037.764,1129221.859,1129988.218,1130754.691,1131522.188,1132288.959,1133037.684,1133804.65,1142298.484,Mapping
Blocked,Male,cave,11,M_tile.wav,None,734.274804,101,1142288.328,1134571.663,1135338.452,1136104.864,1136871.996,1137638.488,1138405.059,1139154.534,1143037.764,1143804.46,1129988.218,1130754.691,1131522.188,1132288.959,1133037.684,1133804.65,1143047.018,Mapping
Blocked,Male,cave,11,M_cave.wav,None,731.6517867,101,1142288.328,1134571.663,1135338.452,1136104.864,1136871.996,1137638.488,1138405.059,1139154.534,1143037.764,1143804.46,1144571.052,1130754.691,1131522.188,1132288.959,1133037.684,1133804.65,1143813.744,Mapping
Blocked,Male,cave,11,M_done.wav,space,445.8993403,101,1142288.328,1134571.663,1135338.452,1136104.864,1136871.996,1137638.488,1138405.059,1139154.534,1143037.764,1143804.46,1144571.052,1145338.298,1131522.188,1132288.959,1133037.684,1133804.65,1144579.956,Mapping
Blocked,Male,cave,11,M_cave.wav,None,724.3550126,101,1142288.328,1134571.663,1135338.452,1136104.864,1136871.996,1137638.488,1138405.059,1139154.534,1143037.764,1143804.46,1144571.052,1145338.298,1146105.017,1132288.959,1133037.684,1133804.65,1145348.248,Mapping
Blocked,Male,cave,11,M_bluff.wav,space,558.3193149,101,1142288.328,1134571.663,1135338.452,1136104.864,1136871.996,1137638.488,1138405.059,1139154.534,1143037.764,1143804.46,1144571.052,1145338.298,1146105.017,1146854.949,1133037.684,1133804.65,1146115.512,Mapping
Blocked,Male,cave,11,M_cling.wav,None,735.0233101,101,1142288.328,1134571.663,1135338.452,1136104.864,1136871.996,1137638.488,1138405.059,1139154.534,1143037.764,1143804.46,1144571.052,1145338.298,1146105.017,1146854.949,1147621.352,1133804.65,1146864.831,Mapping
Blocked,Male,cave,11,M_lash.wav,None,733.199503,101,1142288.328,1134571.663,1135338.452,1136104.864,1136871.996,1137638.488,1138405.059,1139154.534,1143037.764,1143804.46,1144571.052,1145338.298,1146105.017,1146854.949,1147621.352,1148387.942,1147630.85,Mapping
Blocked,Male,cave,11,M_greet.wav,None,730.7412745,101,1142288.328,1149154.609,1135338.452,1136104.864,1136871.996,1137638.488,1138405.059,1139154.534,1143037.764,1143804.46,1144571.052,1145338.298,1146105.017,1146854.949,1147621.352,1148387.942,1148397.517,Mapping
Blocked,Male,cave,11,M_dime.wav,None,727.8817404,101,1142288.328,1149154.609,1149921.288,1136104.864,1136871.996,1137638.488,1138405.059,1139154.534,1143037.764,1143804.46,1144571.052,1145338.298,1146105.017,1146854.949,1147621.352,1148387.942,1149164.366,Mapping
Blocked,Male,cave,11,M_cave.wav,None,725.2024537,101,1142288.328,1149154.609,1149921.288,1150688.361,1136871.996,1137638.488,1138405.059,1139154.534,1143037.764,1143804.46,1144571.052,1145338.298,1146105.017,1146854.949,1147621.352,1148387.942,1149931.29,Mapping
Blocked,Male,cave,11,M_cling.wav,space,439.5294646,101,1142288.328,1149154.609,1149921.288,1150688.361,1151454.884,1137638.488,1138405.059,1139154.534,1143037.764,1143804.46,1144571.052,1145338.298,1146105.017,1146854.949,1147621.352,1148387.942,1150698.18,Mapping
Blocked,Male,cave,11,M_ball.wav,None,719.0165355,101,1142288.328,1149154.609,1149921.288,1150688.361,1151454.884,1152204.443,1138405.059,1139154.534,1143037.764,1143804.46,1144571.052,1145338.298,1146105.017,1146854.949,1147621.352,1148387.942,1151465.002,Mapping
Blocked,Male,cave,11,M_cave.wav,None,733.9087441,101,1142288.328,1149154.609,1149921.288,1150688.361,1151454.884,1152204.443,1152971.238,1139154.534,1143037.764,1143804.46,1144571.052,1145338.298,1146105.017,1146854.949,1147621.352,1148387.942,1152214.366,Mapping
Blocked,Male,cave,11,M_reek.wav,space,716.7373177,101,1142288.328,1149154.609,1149921.288,1150688.361,1151454.884,1152204.443,1152971.238,1153737.827,1143037.764,1143804.46,1144571.052,1145338.298,1146105.017,1146854.949,1147621.352,1148387.942,1152980.956,Mapping
Blocked,Male,done,21,M_cad.wav,None,728.5186352,101,1156871.426,1149154.609,1149921.288,1150688.361,1151454.884,1152204.443,1152971.238,1153737.827,1143037.764,1143804.46,1144571.052,1145338.298,1146105.017,1146854.949,1147621.352,1148387.942,1153747.061,Mapping
Blocked,Male,done,21,M_jolt.wav,None,725.0317907,101,1156871.426,1149154.609,1149921.288,1150688.361,1151454.884,1152204.443,1152971.238,1153737.827,1157620.802,1143804.46,1144571.052,1145338.298,1146105.017,1146854.949,1147621.352,1148387.942,1156876.313,Mapping
Blocked,Male,done,21,M_tile.wav,None,735.6889579,101,1156871.426,1149154.609,1149921.288,1150688.361,1151454.884,1152204.443,1152971.238,1153737.827,1157620.802,1158387.841,1144571.052,1145338.298,1146105.017,1146854.949,1147621.352,1148387.942,1157630.051,Mapping
Blocked,Male,done,21,M_done.wav,None,732.1956207,101,1156871.426,1149154.609,1149921.288,1150688.361,1151454.884,1152204.443,1152971.238,1153737.827,1157620.802,1158387.841,1159154.472,1145338.298,1146105.017,1146854.949,1147621.352,1148387.942,1158397.753,Mapping
Blocked,Male,done,21,M_cad.wav,space,389.8198237,101,1156871.426,1149154.609,1149921.288,1150688.361,1151454.884,1152204.443,1152971.238,1153737.827,1157620.802,1158387.841,1159154.472,1159921.146,1146105.017,1146854.949,1147621.352,1148387.942,1159163.758,Mapping
Blocked,Male,done,21,M_jaw.wav,None,726.8843507,101,1156871.426,1149154.609,1149921.288,1150688.361,1151454.884,1152204.443,1152971.238,1153737.827,1157620.802,1158387.841,1159154.472,1159921.146,1160688.012,1146854.949,1147621.352,1148387.942,1159930.769,Mapping
Blocked,Male,done,21,M_ball.wav,None,724.4570394,101,1156871.426,1149154.609,1149921.288,1150688.361,1151454.884,1152204.443,1152971.238,1153737.827,1157620.802,1158387.841,1159154.472,1159921.146,1160688.012,1161454.303,1147621.352,1148387.942,1160697.449,Mapping
Blocked,Male,done,21,M_done.wav,None,721.697368,101,1156871.426,1149154.609,1149921.288,1150688.361,1151454.884,1152204.443,1152971.238,1153737.827,1157620.802,1158387.841,1159154.472,1159921.146,1160688.012,1161454.303,1162221.376,1148387.942,1161464.671,Mapping
Blocked,Male,done,21,M_ball.wav,space,354.1425834,101,1156871.426,1149154.609,1149921.288,1150688.361,1151454.884,1152204.443,1152971.238,1153737.827,1157620.802,1158387.841,1159154.472,1159921.146,1160688.012,1161454.303,1162221.376,1162970.649,1162231.34,Mapping
Blocked,Male,done,21,M_reek.wav,None,733.7025263,101,1156871.426,1163737.584,1149921.288,1150688.361,1151454.884,1152204.443,1152971.238,1153737.827,1157620.802,1158387.841,1159154.472,1159921.146,1160688.012,1161454.303,1162221.376,1162970.649,1162979.985,Mapping
Blocked,Male,done,21,M_done.wav,None,731.1744248,101,1156871.426,1163737.584,1164504.246,1150688.361,1151454.884,1152204.443,1152971.238,1153737.827,1157620.802,1158387.841,1159154.472,1159921.146,1160688.012,1161454.303,1162221.376,1162970.649,1163746.889,Mapping
Blocked,Male,done,21,M_knife.wav,space,711.0896683,101,1156871.426,1163737.584,1164504.246,1165271.07,1151454.884,1152204.443,1152971.238,1153737.827,1157620.802,1158387.841,1159154.472,1159921.146,1160688.012,1161454.303,1162221.376,1162970.649,1164514.352,Mapping
Blocked,Male,done,21,M_done.wav,None,724.7368403,101,1156871.426,1163737.584,1164504.246,1165271.07,1166038.034,1152204.443,1152971.238,1153737.827,1157620.802,1158387.841,1159154.472,1159921.146,1160688.012,1161454.303,1162221.376,1162970.649,1165280.598,Mapping
Blocked,Male,done,21,M_dime.wav,space,601.3353768,101,1156871.426,1163737.584,1164504.246,1165271.07,1166038.034,1166787.74,1152971.238,1153737.827,1157620.802,1158387.841,1159154.472,1159921.146,1160688.012,1161454.303,1162221.376,1162970.649,1166048.06,Mapping
Blocked,Male,done,21,M_park.wav,None,736.2961721,101,1156871.426,1163737.584,1164504.246,1165271.07,1166038.034,1166787.74,1167554.173,1153737.827,1157620.802,1158387.841,1159154.472,1159921.146,1160688.012,1161454.303,1162221.376,1162970.649,1166796.63,Mapping
Blocked,Male,done,21,M_park.wav,None,733.0223473,101,1156871.426,1163737.584,1164504.246,1165271.07,1166038.034,1166787.74,1167554.173,1168320.572,1157620.802,1158387.841,1159154.472,1159921.146,1160688.012,1161454.303,1162221.376,1162970.649,1167564.273,Mapping
Blocked,Male,ball,2,M_bluff.wav,None,732.1776887,101,1171454.853,1163737.584,1164504.246,1165271.07,1166038.034,1166787.74,1167554.173,1168320.572,1157620.802,1158387.841,1159154.472,1159921.146,1160688.012,1161454.303,1162221.376,1162970.649,1168329.655,Mapping
Blocked,Male,ball,2,M_ball.wav,None,719.1432961,101,1171454.853,1163737.584,1164504.246,1165271.07,1166038.034,1166787.74,1167554.173,1168320.572,1172204.074,1158387.841,1159154.472,1159921.146,1160688.012,1161454.303,1162221.376,1162970.649,1171464.524,Mapping
Blocked,Male,ball,2,M_greet.wav,space,483.1552141,101,1171454.853,1163737.584,1164504.246,1165271.07,1166038.034,1166787.74,1167554.173,1168320.572,1172204.074,1172970.946,1159154.472,1159921.146,1160688.012,1161454.303,1162221.376,1162970.649,1172214.147,Mapping
Blocked,Male,ball,2,M_bluff.wav,None,730.3925282,101,1171454.853,1163737.584,1164504.246,1165271.07,1166038.034,1166787.74,1167554.173,1168320.572,1172204.074,1172970.946,1173737.666,1159921.146,1160688.012,1161454.303,1162221.376,1162970.649,1172980.847,Mapping
Blocked,Male,ball,2,M_ball.wav,None,728.3454987,101,1171454.853,1163737.584,1164504.246,1165271.07,1166038.034,1166787.74,1167554.173,1168320.572,1172204.074,1172970.946,1173737.666,1174504.024,1160688.012,1161454.303,1162221.376,1162970.649,1173747.447,Mapping
Blocked,Male,ball,2,M_tile.wav,space,463.767641,101,1171454.853,1163737.584,1164504.246,1165271.07,1166038.034,1166787.74,1167554.173,1168320.572,1172204.074,1172970.946,1173737.666,1174504.024,1175270.585,1161454.303,1162221.376,1162970.649,1174513.432,Mapping
Blocked,Male,ball,2,M_park.wav,None,723.8770323,101,1171454.853,1163737.584,1164504.246,1165271.07,1166038.034,1166787.74,1167554.173,1168320.572,1172204.074,1172970.946,1173737.666,1174504.024,1175270.585,1176037.531,1162221.376,1162970.649,1175279.932,Mapping
Blocked,Male,ball,2,M_ball.wav,None,721.20733,101,1171454.853,1163737.584,1164504.246,1165271.07,1166038.034,1166787.74,1167554.173,1168320.572,1172204.074,1172970.946,1173737.666,1174504.024,1175270.585,1176037.531,1176804.778,1162970.649,1176047.28,Mapping
Blocked,Male,ball,2,M_gnash.wav,space,434.4587306,101,1171454.853,1163737.584,1164504.246,1165271.07,1166038.034,1166787.74,1167554.173,1168320.572,1172204.074,1172970.946,1173737.666,1174504.024,1175270.585,1176037.531,1176804.778,1177554.007,1176814.712,Mapping
Blocked,Male,ball,2,M_park.wav,None,732.1971666,101,1171454.853,1178320.332,1164504.246,1165271.07,1166038.034,1166787.74,1167554.173,1168320.572,1172204.074,1172970.946,1173737.666,1174504.024,1175270.585,1176037.531,1176804.778,1177554.007,1177563.666,Mapping
Blocked,Male,ball,2,M_dime.wav,None,730.9508933,101,1171454.853,1178320.332,1179087.408,1165271.07,1166038.034,1166787.74,1167554.173,1168320.572,1172204.074,1172970.946,1173737.666,1174504.024,1175270.585,1176037.531,1176804.778,1177554.007,1178329.443,Mapping
Blocked,Male,ball,2,M_cling.wav,None,727.6241999,101,1171454.853,1178320.332,1179087.408,1179853.936,1166038.034,1166787.74,1167554.173,1168320.572,1172204.074,1172970.946,1173737.666,1174504.024,1175270.585,1176037.531,1176804.778,1177554.007,1179097.301,Mapping
Blocked,Male,ball,2,M_ball.wav,None,725.7923543,101,1171454.853,1178320.332,1179087.408,1179853.936,1180620.474,1166787.74,1167554.173,1168320.572,1172204.074,1172970.946,1173737.666,1174504.024,1175270.585,1176037.531,1176804.778,1177554.007,1179863.614,Mapping
Blocked,Male,ball,2,M_romp.wav,space,435.4069618,101,1171454.853,1178320.332,1179087.408,1179853.936,1180620.474,1181387.298,1167554.173,1168320.572,1172204.074,1172970.946,1173737.666,1174504.024,1175270.585,1176037.531,1176804.778,1177554.007,1180629.688,Mapping
Blocked,Male,ball,2,M_romp.wav,None,720.1094593,101,1171454.853,1178320.332,1179087.408,1179853.936,1180620.474,1181387.298,1182137.01,1168320.572,1172204.074,1172970.946,1173737.666,1174504.024,1175270.585,1176037.531,1176804.778,1177554.007,1181396.686,Mapping
Blocked,Male,ball,2,M_dime.wav,None,734.3236532,101,1171454.853,1178320.332,1179087.408,1179853.936,1180620.474,1181387.298,1182137.01,1182903.597,1172204.074,1172970.946,1173737.666,1174504.024,1175270.585,1176037.531,1176804.778,1177554.007,1182147.014,Mapping
Blocked,Male,ball,6,M_bluff.wav,None,733.1005678,101,1186037.512,1178320.332,1179087.408,1179853.936,1180620.474,1181387.298,1182137.01,1182903.597,1172204.074,1172970.946,1173737.666,1174504.024,1175270.585,1176037.531,1176804.778,1177554.007,1182912.76,Mapping
Blocked,Male,ball,6,M_ball.wav,None,720.3017644,101,1186037.512,1178320.332,1179087.408,1179853.936,1180620.474,1181387.298,1182137.01,1182903.597,1186787.06,1172970.946,1173737.666,1174504.024,1175270.585,1176037.531,1176804.778,1177554.007,1186047.503,Mapping
Blocked,Male,ball,6,M_park.wav,space,404.072355,101,1186037.512,1178320.332,1179087.408,1179853.936,1180620.474,1181387.298,1182137.01,1182903.597,1186787.06,1187553.528,1173737.666,1174504.024,1175270.585,1176037.531,1176804.778,1177554.007,1186796.923,Mapping
Blocked,Male,ball,6,M_cave.wav,None,732.6899871,101,1186037.512,1178320.332,1179087.408,1179853.936,1180620.474,1181387.298,1182137.01,1182903.597,1186787.06,1187553.528,1188320.423,1174504.024,1175270.585,1176037.531,1176804.778,1177554.007,1187562.99,Mapping
Blocked,Male,ball,6,M_cad.wav,None,730.1996046,101,1186037.512,1178320.332,1179087.408,1179853.936,1180620.474,1181387.298,1182137.01,1182903.597,1186787.06,1187553.528,1188320.423,1189087.055,1175270.585,1176037.531,1176804.778,1177554.007,1188330.071,Mapping
Blocked,Male,ball,6,M_ball.wav,None,728.1510294,101,1186037.512,1178320.332,1179087.408,1179853.936,1180620.474,1181387.298,1182137.01,1182903.597,1186787.06,1187553.528,1188320.423,1189087.055,1189853.74,1176037.531,1176804.778,1177554.007,1189096.569,Mapping
Blocked,Male,ball,6,M_knife.wav,space,465.8053952,101,1186037.512,1178320.332,1179087.408,1179853.936,1180620.474,1181387.298,1182137.01,1182903.597,1186787.06,1187553.528,1188320.423,1189087.055,1189853.74,1190620.789,1176804.778,1177554.007,1189863.101,Mapping
Blocked,Male,ball,6,M_ball.wav,None,721.3099752,101,1186037.512,1178320.332,1179087.408,1179853.936,1180620.474,1181387.298,1182137.01,1182903.597,1186787.06,1187553.528,1188320.423,1189087.055,1189853.74,1190620.789,1191387.495,1177554.007,1190631.046,Mapping
Blocked,Male,ball,6,M_cling.wav,None,719.8973672,101,1186037.512,1178320.332,1179087.408,1179853.936,1180620.474,1181387.298,1182137.01,1182903.597,1186787.06,1187553.528,1188320.423,1189087.055,1189853.74,1190620.789,1191387.495,1192136.708,1191397.096,Mapping
Blocked,Male,ball,6,M_dime.wav,space,222.2484675,101,1186037.512,1192903.738,1179087.408,1179853.936,1180620.474,1181387.298,1182137.01,1182903.597,1186787.06,1187553.528,1188320.423,1189087.055,1189853.74,1190620.789,1191387.495,1192136.708,1192146.607,Mapping
Blocked,Male,ball,6,M_ball.wav,None,730.49641,101,1186037.512,1192903.738,1193669.999,1179853.936,1180620.474,1181387.298,1182137.01,1182903.597,1186787.06,1187553.528,1188320.423,1189087.055,1189853.74,1190620.789,1191387.495,1192136.708,1192913.97,Mapping
Blocked,Male,ball,6,M_cling.wav,space,385.2045004,101,1186037.512,1192903.738,1193669.999,1194436.951,1180620.474,1181387.298,1182137.01,1182903.597,1186787.06,1187553.528,1188320.423,1189087.055,1189853.74,1190620.789,1191387.495,1192136.708,1193679.625,Mapping
Blocked,Male,ball,6,M_done.wav,None,725.3205575,101,1186037.512,1192903.738,1193669.999,1194436.951,1195204.025,1181387.298,1182137.01,1182903.597,1186787.06,1187553.528,1188320.423,1189087.055,1189853.74,1190620.789,1191387.495,1192136.708,1194446.709,Mapping
Blocked,Male,ball,6,M_romp.wav,None,723.276929,101,1186037.512,1192903.738,1193669.999,1194436.951,1195204.025,1195970.677,1182137.01,1182903.597,1186787.06,1187553.528,1188320.423,1189087.055,1189853.74,1190620.789,1191387.495,1192136.708,1195213.918,Mapping
Blocked,Male,ball,6,M_dime.wav,None,720.5939323,101,1186037.512,1192903.738,1193669.999,1194436.951,1195204.025,1195970.677,1196738.367,1182903.597,1186787.06,1187553.528,1188320.423,1189087.055,1189853.74,1190620.789,1191387.495,1192136.708,1195981.145,Mapping
Blocked,Male,ball,6,M_reek.wav,None,718.2012483,101,1186037.512,1192903.738,1193669.999,1194436.951,1195204.025,1195970.677,1196738.367,1197486.612,1186787.06,1187553.528,1188320.423,1189087.055,1189853.74,1190620.789,1191387.495,1192136.708,1196748.271,Mapping
Blocked,Male,cave,10,M_knife.wav,None,734.5137941,101,1200620.552,1192903.738,1193669.999,1194436.951,1195204.025,1195970.677,1196738.367,1197486.612,1186787.06,1187553.528,1188320.423,1189087.055,1189853.74,1190620.789,1191387.495,1192136.708,1197496.614,Mapping
Blocked,Male,cave,10,M_cave.wav,None,719.1052678,101,1200620.552,1192903.738,1193669.999,1194436.951,1195204.025,1195970.677,1196738.367,1197486.612,1201369.865,1187553.528,1188320.423,1189087.055,1189853.74,1190620.789,1191387.495,1192136.708,1200630.803,Mapping
Blocked,Male,cave,10,M_park.wav,space,389.3458626,101,1200620.552,1192903.738,1193669.999,1194436.951,1195204.025,1195970.677,1196738.367,1197486.612,1201369.865,1202136.617,1188320.423,1189087.055,1189853.74,1190620.789,1191387.495,1192136.708,1201379.332,Mapping
Blocked,Male,cave,10,M_cave.wav,None,729.780058,101,1200620.552,1192903.738,1193669.999,1194436.951,1195204.025,1195970.677,1196738.367,1197486.612,1201369.865,1202136.617,1202903.166,1189087.055,1189853.74,1190620.789,1191387.495,1192136.708,1202147.791,Mapping
Blocked,Male,cave,10,M_cling.wav,space,368.3886221,101,1200620.552,1192903.738,1193669.999,1194436.951,1195204.025,1195970.677,1196738.367,1197486.612,1201369.865,1202136.617,1202903.166,1203669.82,1189853.74,1190620.789,1191387.495,1192136.708,1202912.269,Mapping
Blocked,Male,cave,10,M_tile.wav,None,726.3256765,101,1200620.552,1192903.738,1193669.999,1194436.951,1195204.025,1195970.677,1196738.367,1197486.612,1201369.865,1202136.617,1202903.166,1203669.82,1204437.175,1190620.789,1191387.495,1192136.708,1203678.902,Mapping
Blocked,Male,cave,10,M_ball.wav,None,722.8669666,101,1200620.552,1192903.738,1193669.999,1194436.951,1195204.025,1195970.677,1196738.367,1197486.612,1201369.865,1202136.617,1202903.166,1203669.82,1204437.175,1205203.914,1191387.495,1192136.708,1204446.906,Mapping
Blocked,Male,cave,10,M_bluff.wav,None,718.8279404,101,1200620.552,1192903.738,1193669.999,1194436.951,1195204.025,1195970.677,1196738.367,1197486.612,1201369.865,1202136.617,1202903.166,1203669.82,1204437.175,1205203.914,1205970.465,1192136.708,1205215.528,Mapping
Blocked,Male,cave,10,M_cave.wav,None,718.662224,101,1200620.552,1192903.738,1193669.999,1194436.951,1195204.025,1195970.677,1196738.367,1197486.612,1201369.865,1202136.617,1202903.166,1203669.82,1204437.175,1205203.914,1205970.465,1206719.74,1205980.521,Mapping
Blocked,Male,cave,10,M_cling.wav,space,343.5664193,101,1200620.552,1207486.68,1193669.999,1194436.951,1195204.025,1195970.677,1196738.367,1197486.612,1201369.865,1202136.617,1202903.166,1203669.82,1204437.175,1205203.914,1205970.465,1206719.74,1206729.02,Mapping
Blocked,Male,cave,10,M_cave.wav,None,730.9354346,101,1200620.552,1207486.68,1208253.315,1194436.951,1195204.025,1195970.677,1196738.367,1197486.612,1201369.865,1202136.617,1202903.166,1203669.82,1204437.175,1205203.914,1205970.465,1206719.74,1207496.229,Mapping
Blocked,Male,cave,10,M_dime.wav,space,551.1440455,101,1200620.552,1207486.68,1208253.315,1209019.997,1195204.025,1195970.677,1196738.367,1197486.612,1201369.865,1202136.617,1202903.166,1203669.82,1204437.175,1205203.914,1205970.465,1206719.74,1208265.44,Mapping
Blocked,Male,cave,10,M_jaw.wav,None,724.5306224,101,1200620.552,1207486.68,1208253.315,1209019.997,1209787.062,1195970.677,1196738.367,1197486.612,1201369.865,1202136.617,1202903.166,1203669.82,1204437.175,1205203.914,1205970.465,1206719.74,1209030.297,Mapping
Blocked,Male,cave,10,M_tile.wav,None,722.5593402,101,1200620.552,1207486.68,1208253.315,1209019.997,1209787.062,1210553.375,1196738.367,1197486.612,1201369.865,1202136.617,1202903.166,1203669.82,1204437.175,1205203.914,1205970.465,1206719.74,1209797.096,Mapping
Blocked,Male,cave,10,M_priest.wav,None,721.4979519,101,1200620.552,1207486.68,1208253.315,1209019.997,1209787.062,1210553.375,1211319.999,1197486.612,1201369.865,1202136.617,1202903.166,1203669.82,1204437.175,1205203.914,1205970.465,1206719.74,1210562.742,Mapping
Blocked,Male,cave,10,M_dime.wav,None,719.7647323,101,1200620.552,1207486.68,1208253.315,1209019.997,1209787.062,1210553.375,1211319.999,1212069.566,1201369.865,1202136.617,1202903.166,1203669.82,1204437.175,1205203.914,1205970.465,1206719.74,1211329.285,Mapping
Blocked,Male,tile,17,M_romp.wav,None,734.7466009,101,1215203.581,1207486.68,1208253.315,1209019.997,1209787.062,1210553.375,1211319.999,1212069.566,1201369.865,1202136.617,1202903.166,1203669.82,1204437.175,1205203.914,1205970.465,1206719.74,1212078.901,Mapping
Blocked,Male,tile,17,M_park.wav,None,718.5852402,101,1215203.581,1207486.68,1208253.315,1209019.997,1209787.062,1210553.375,1211319.999,1212069.566,1215953.07,1202136.617,1202903.166,1203669.82,1204437.175,1205203.914,1205970.465,1206719.74,1215214.078,Mapping
Blocked,Male,tile,17,M_cling.wav,None,734.3820868,101,1215203.581,1207486.68,1208253.315,1209019.997,1209787.062,1210553.375,1211319.999,1212069.566,1215953.07,1216719.975,1202903.166,1203669.82,1204437.175,1205203.914,1205970.465,1206719.74,1215963.156,Mapping
Blocked,Male,tile,17,M_cling.wav,None,732.6049648,101,1215203.581,1207486.68,1208253.315,1209019.997,1209787.062,1210553.375,1211319.999,1212069.566,1215953.07,1216719.975,1217486.455,1203669.82,1204437.175,1205203.914,1205970.465,1206719.74,1216729.592,Mapping
Blocked,Male,tile,17,M_priest.wav,None,730.9802646,101,1215203.581,1207486.68,1208253.315,1209019.997,1209787.062,1210553.375,1211319.999,1212069.566,1215953.07,1216719.975,1217486.455,1218253.13,1204437.175,1205203.914,1205970.465,1206719.74,1217496.046,Mapping
Blocked,Male,tile,17,M_tile.wav,None,728.8346092,101,1215203.581,1207486.68,1208253.315,1209019.997,1209787.062,1210553.375,1211319.999,1212069.566,1215953.07,1216719.975,1217486.455,1218253.13,1219019.886,1205203.914,1205970.465,1206719.74,1218263.154,Mapping
Blocked,Male,tile,17,M_gnash.wav,space,418.6801251,101,1215203.581,1207486.68,1208253.315,1209019.997,1209787.062,1210553.375,1211319.999,1212069.566,1215953.07,1216719.975,1217486.455,1218253.13,1219019.886,1219786.572,1205970.465,1206719.74,1219029.623,Mapping
Blocked,Male,tile,17,M_tile.wav,None,724.3587226,101,1215203.581,1207486.68,1208253.315,1209019.997,1209787.062,1210553.375,1211319.999,1212069.566,1215953.07,1216719.975,1217486.455,1218253.13,1219019.886,1219786.572,1220553.28,1206719.74,1219795.5,Mapping
Blocked,Male,tile,17,M_dime.wav,space,596.4501461,101,1215203.581,1207486.68,1208253.315,1209019.997,1209787.062,1210553.375,1211319.999,1212069.566,1215953.07,1216719.975,1217486.455,1218253.13,1219019.886,1219786.572,1220553.28,1221302.966,1220563.758,Mapping
Blocked,Male,tile,17,M_jaw.wav,None,734.4182599,101,1215203.581,1222069.762,1208253.315,1209019.997,1209787.062,1210553.375,1211319.999,1212069.566,1215953.07,1216719.975,1217486.455,1218253.13,1219019.886,1219786.572,1220553.28,1221302.966,1221313.349,Mapping
Blocked,Male,tile,17,M_jolt.wav,None,733.0959303,101,1215203.581,1222069.762,1222836.375,1209019.997,1209787.062,1210553.375,1211319.999,1212069.566,1215953.07,1216719.975,1217486.455,1218253.13,1219019.886,1219786.572,1220553.28,1221302.966,1222079.596,Mapping
Blocked,Male,tile,17,M_tile.wav,None,730.973772,101,1215203.581,1222069.762,1222836.375,1223602.741,1209787.062,1210553.375,1211319.999,1212069.566,1215953.07,1216719.975,1217486.455,1218253.13,1219019.886,1219786.572,1220553.28,1221302.966,1222846.377,Mapping
Blocked,Male,tile,17,M_gnash.wav,space,467.8487146,101,1215203.581,1222069.762,1222836.375,1223602.741,1224369.658,1210553.375,1211319.999,1212069.566,1215953.07,1216719.975,1217486.455,1218253.13,1219019.886,1219786.572,1220553.28,1221302.966,1223612.34,Mapping
Blocked,Male,tile,17,M_tile.wav,None,736.5249597,101,1215203.581,1222069.762,1222836.375,1223602.741,1224369.658,1225136.599,1211319.999,1212069.566,1215953.07,1216719.975,1217486.455,1218253.13,1219019.886,1219786.572,1220553.28,1221302.966,1224373.8,Mapping
Blocked,Male,tile,17,M_gnash.wav,space,669.4787944,101,1215203.581,1222069.762,1222836.375,1223602.741,1224369.658,1225136.599,1225903.002,1212069.566,1215953.07,1216719.975,1217486.455,1218253.13,1219019.886,1219786.572,1220553.28,1221302.966,1225146.695,Mapping
Blocked,Male,tile,17,M_reek.wav,None,726.3726706,101,1215203.581,1222069.762,1222836.375,1223602.741,1224369.658,1225136.599,1225903.002,1226669.623,1215953.07,1216719.975,1217486.455,1218253.13,1219019.886,1219786.572,1220553.28,1221302.966,1225912.708,Mapping
Blocked,Male,done,23,M_cave.wav,None,724.5179464,101,1229786.647,1222069.762,1222836.375,1223602.741,1224369.658,1225136.599,1225903.002,1226669.623,1215953.07,1216719.975,1217486.455,1218253.13,1219019.886,1219786.572,1220553.28,1221302.966,1226679.361,Mapping
Blocked,Male,done,23,M_gnash.wav,None,719.5319256,101,1229786.647,1222069.762,1222836.375,1223602.741,1224369.658,1225136.599,1225903.002,1226669.623,1230536.15,1216719.975,1217486.455,1218253.13,1219019.886,1219786.572,1220553.28,1221302.966,1229796.853,Mapping
Blocked,Male,done,23,M_greet.wav,None,735.4141037,101,1229786.647,1222069.762,1222836.375,1223602.741,1224369.658,1225136.599,1225903.002,1226669.623,1230536.15,1231302.837,1217486.455,1218253.13,1219019.886,1219786.572,1220553.28,1221302.966,1230545.786,Mapping
Blocked,Male,done,23,M_done.wav,None,733.1246833,101,1229786.647,1222069.762,1222836.375,1223602.741,1224369.658,1225136.599,1225903.002,1226669.623,1230536.15,1231302.837,1232069.244,1218253.13,1219019.886,1219786.572,1220553.28,1221302.966,1231312.851,Mapping
Blocked,Male,done,23,M_priest.wav,space,513.3505213,101,1229786.647,1222069.762,1222836.375,1223602.741,1224369.658,1225136.599,1225903.002,1226669.623,1230536.15,1231302.837,1232069.244,1232836.326,1219019.886,1219786.572,1220553.28,1221302.966,1232078.605,Mapping
Blocked,Male,done,23,M_cling.wav,None,727.6977829,101,1229786.647,1222069.762,1222836.375,1223602.741,1224369.658,1225136.599,1225903.002,1226669.623,1230536.15,1231302.837,1232069.244,1232836.326,1233602.802,1219786.572,1220553.28,1221302.966,1232846.098,Mapping
Blocked,Male,done,23,M_done.wav,None,726.1188403,101,1229786.647,1222069.762,1222836.375,1223602.741,1224369.658,1225136.599,1225903.002,1226669.623,1230536.15,1231302.837,1232069.244,1232836.326,1233602.802,1234368.965,1220553.28,1221302.966,1233612.808,Mapping
Blocked,Male,done,23,M_lash.wav,space,414.2203155,101,1229786.647,1222069.762,1222836.375,1223602.741,1224369.658,1225136.599,1225903.002,1226669.623,1230536.15,1231302.837,1232069.244,1232836.326,1233602.802,1234368.965,1235136.431,1221302.966,1234377.802,Mapping
Blocked,Male,done,23,M_romp.wav,None,721.8361863,101,1229786.647,1222069.762,1222836.375,1223602.741,1224369.658,1225136.599,1225903.002,1226669.623,1230536.15,1231302.837,1232069.244,1232836.326,1233602.802,1234368.965,1235136.431,1235903.033,1235146.692,Mapping
Blocked,Male,done,23,M_priest.wav,None,719.5275971,101,1229786.647,1236669.773,1222836.375,1223602.741,1224369.658,1225136.599,1225903.002,1226669.623,1230536.15,1231302.837,1232069.244,1232836.326,1233602.802,1234368.965,1235136.431,1235903.033,1235913.746,Mapping
Blocked,Male,done,23,M_knife.wav,None,718.0627391,101,1229786.647,1236669.773,1237419.131,1223602.741,1224369.658,1225136.599,1225903.002,1226669.623,1230536.15,1231302.837,1232069.244,1232836.326,1233602.802,1234368.965,1235136.431,1235903.033,1236680.53,Mapping
Blocked,Male,done,23,M_done.wav,None,734.5703727,101,1229786.647,1236669.773,1237419.131,1238186.043,1224369.658,1225136.599,1225903.002,1226669.623,1230536.15,1231302.837,1232069.244,1232836.326,1233602.802,1234368.965,1235136.431,1235903.033,1237428.781,Mapping
Blocked,Male,done,23,M_cad.wav,space,360.9109822,101,1229786.647,1236669.773,1237419.131,1238186.043,1238952.657,1225136.599,1225903.002,1226669.623,1230536.15,1231302.837,1232069.244,1232836.326,1233602.802,1234368.965,1235136.431,1235903.033,1238254.994,Mapping
Blocked,Male,done,23,M_done.wav,None,728.582943,101,1229786.647,1236669.773,1237419.131,1238186.043,1238952.657,1239719.315,1225903.002,1226669.623,1230536.15,1231302.837,1232069.244,1232836.326,1233602.802,1234368.965,1235136.431,1235903.033,1238962.759,Mapping
Blocked,Male,done,23,M_ball.wav,space,574.8501365,101,1229786.647,1236669.773,1237419.131,1238186.043,1238952.657,1239719.315,1240486.512,1226669.623,1230536.15,1231302.837,1232069.244,1232836.326,1233602.802,1234368.965,1235136.431,1235903.033,1239728.979,Mapping
Blocked,Male,done,23,M_depth.wav,None,723.3121746,101,1229786.647,1236669.773,1237419.131,1238186.043,1238952.657,1239719.315,1240486.512,1241252.996,1230536.15,1231302.837,1232069.244,1232836.326,1233602.802,1234368.965,1235136.431,1235903.033,1240496.062,Mapping
Blocked,Male,ball,1,M_cave.wav,None,721.2914248,101,1244369.618,1236669.773,1237419.131,1238186.043,1238952.657,1239719.315,1240486.512,1241252.996,1230536.15,1231302.837,1232069.244,1232836.326,1233602.802,1234368.965,1235136.431,1235903.033,1241262.98,Mapping
Blocked,Male,ball,1,M_dime.wav,None,720.2164329,101,1244369.618,1236669.773,1237419.131,1238186.043,1238952.657,1239719.315,1240486.512,1241252.996,1245119.062,1231302.837,1232069.244,1232836.326,1233602.802,1234368.965,1235136.431,1235903.033,1244378.983,Mapping
Blocked,Male,ball,1,M_cad.wav,None,735.4014277,101,1244369.618,1236669.773,1237419.131,1238186.043,1238952.657,1239719.315,1240486.512,1241252.996,1245119.062,1245886.143,1232069.244,1232836.326,1233602.802,1234368.965,1235136.431,1235903.033,1245128.685,Mapping
Blocked,Male,ball,1,M_ball.wav,None,733.3275002,101,1244369.618,1236669.773,1237419.131,1238186.043,1238952.657,1239719.315,1240486.512,1241252.996,1245119.062,1245886.143,1246652.54,1232836.326,1233602.802,1234368.965,1235136.431,1235903.033,1245895.49,Mapping
Blocked,Male,ball,1,M_tile.wav,space,297.8250042,101,1244369.618,1236669.773,1237419.131,1238186.043,1238952.657,1239719.315,1240486.512,1241252.996,1245119.062,1245886.143,1246652.54,1247419.171,1233602.802,1234368.965,1235136.431,1235903.033,1246661.886,Mapping
Blocked,Male,ball,1,M_ball.wav,None,728.3587932,101,1244369.618,1236669.773,1237419.131,1238186.043,1238952.657,1239719.315,1240486.512,1241252.996,1245119.062,1245886.143,1246652.54,1247419.171,1248185.98,1234368.965,1235136.431,1235903.033,1247428.461,Mapping
Blocked,Male,ball,1,M_cling.wav,space,588.2607917,101,1244369.618,1236669.773,1237419.131,1238186.043,1238952.657,1239719.315,1240486.512,1241252.996,1245119.062,1245886.143,1246652.54,1247419.171,1248185.98,1248952.448,1235136.431,1235903.033,1248195.41,Mapping
Blocked,Male,ball,1,M_tile.wav,None,723.2497219,101,1244369.618,1236669.773,1237419.131,1238186.043,1238952.657,1239719.315,1240486.512,1241252.996,1245119.062,1245886.143,1246652.54,1247419.171,1248185.98,1248952.448,1249719.523,1235903.033,1248962.187,Mapping
Blocked,Male,ball,1,M_ball.wav,None,720.9977112,101,1244369.618,1236669.773,1237419.131,1238186.043,1238952.657,1239719.315,1240486.512,1241252.996,1245119.062,1245886.143,1246652.54,1247419.171,1248185.98,1248952.448,1249719.523,1250485.822,1249729.347,Mapping
Blocked,Male,ball,1,M_cave.wav,space,464.4805922,101,1244369.618,1251235.798,1237419.131,1238186.043,1238952.657,1239719.315,1240486.512,1241252.996,1245119.062,1245886.143,1246652.54,1247419.171,1248185.98,1248952.448,1249719.523,1250485.822,1250495.142,Mapping
Blocked,Male,ball,1,M_reek.wav,None,732.9416533,101,1244369.618,1251235.798,1252002.497,1238186.043,1238952.657,1239719.315,1240486.512,1241252.996,1245119.062,1245886.143,1246652.54,1247419.171,1248185.98,1248952.448,1249719.523,1250485.822,1251245.401,Mapping
Blocked,Male,ball,1,M_done.wav,None,730.9886122,101,1244369.618,1251235.798,1252002.497,1252769.256,1238952.657,1239719.315,1240486.512,1241252.996,1245119.062,1245886.143,1246652.54,1247419.171,1248185.98,1248952.448,1249719.523,1250485.822,1252012.132,Mapping
Blocked,Male,ball,1,M_ball.wav,space,653.0323768,101,1244369.618,1251235.798,1252002.497,1252769.256,1253535.346,1239719.315,1240486.512,1241252.996,1245119.062,1245886.143,1246652.54,1247419.171,1248185.98,1248952.448,1249719.523,1250485.822,1252778.549,Mapping
Blocked,Male,ball,1,M_lash.wav,None,726.6190809,101,1244369.618,1251235.798,1252002.497,1252769.256,1253535.346,1254302.785,1240486.512,1241252.996,1245119.062,1245886.143,1246652.54,1247419.171,1248185.98,1248952.448,1249719.523,1250485.822,1253544.357,Mapping
Blocked,Male,ball,1,M_knife.wav,space,590.4534413,101,1244369.618,1251235.798,1252002.497,1252769.256,1253535.346,1254302.785,1255069.318,1241252.996,1245119.062,1245886.143,1246652.54,1247419.171,1248185.98,1248952.448,1249719.523,1250485.822,1254313.045,Mapping
Blocked,Male,ball,1,M_reek.wav,None,719.6735265,101,1244369.618,1251235.798,1252002.497,1252769.256,1253535.346,1254302.785,1255069.318,1255818.813,1245119.062,1245886.143,1246652.54,1247419.171,1248185.98,1248952.448,1249719.523,1250485.822,1255079.275,Mapping
Blocked,Male,cave,9,M_tile.wav,None,735.8070617,101,1258952.701,1251235.798,1252002.497,1252769.256,1253535.346,1254302.785,1255069.318,1255818.813,1245119.062,1245886.143,1246652.54,1247419.171,1248185.98,1248952.448,1249719.523,1250485.822,1255828.144,Mapping
Blocked,Male,cave,9,M_romp.wav,None,719.5510942,101,1258952.701,1251235.798,1252002.497,1252769.256,1253535.346,1254302.785,1255069.318,1255818.813,1259702.052,1245886.143,1246652.54,1247419.171,1248185.98,1248952.448,1249719.523,1250485.822,1258962.285,Mapping
Blocked,Male,cave,9,M_cling.wav,None,735.4771749,101,1258952.701,1251235.798,1252002.497,1252769.256,1253535.346,1254302.785,1255069.318,1255818.813,1259702.052,1260468.691,1246652.54,1247419.171,1248185.98,1248952.448,1249719.523,1250485.822,1259711.297,Mapping
Blocked,Male,cave,9,M_knife.wav,None,734.0942474,101,1258952.701,1251235.798,1252002.497,1252769.256,1253535.346,1254302.785,1255069.318,1255818.813,1259702.052,1260468.691,1261235.516,1247419.171,1248185.98,1248952.448,1249719.523,1250485.822,1260477.587,Mapping
Blocked,Male,cave,9,M_cave.wav,None,732.0428896,101,1258952.701,1251235.798,1252002.497,1252769.256,1253535.346,1254302.785,1255069.318,1255818.813,1259702.052,1260468.691,1261235.516,1262002.242,1248185.98,1248952.448,1249719.523,1250485.822,1261244.514,Mapping
Blocked,Male,cave,9,M_priest.wav,space,395.6328802,101,1258952.701,1251235.798,1252002.497,1252769.256,1253535.346,1254302.785,1255069.318,1255818.813,1259702.052,1260468.691,1261235.516,1262002.242,1262768.91,1248952.448,1249719.523,1250485.822,1262011.775,Mapping
Blocked,Male,cave,9,M_bluff.wav,None,726.0029006,101,1258952.701,1251235.798,1252002.497,1252769.256,1253535.346,1254302.785,1255069.318,1255818.813,1259702.052,1260468.691,1261235.516,1262002.242,1262768.91,1263535.401,1249719.523,1250485.822,1262778.504,Mapping
Blocked,Male,cave,9,M_priest.wav,None,724.8289736,101,1258952.701,1251235.798,1252002.497,1252769.256,1253535.346,1254302.785,1255069.318,1255818.813,1259702.052,1260468.691,1261235.516,1262002.242,1262768.91,1263535.401,1264302.236,1250485.822,1263544.741,Mapping
Blocked,Male,cave,9,M_cave.wav,None,723.1847956,101,1258952.701,1251235.798,1252002.497,1252769.256,1253535.346,1254302.785,1255069.318,1255818.813,1259702.052,1260468.691,1261235.516,1262002.242,1262768.91,1263535.401,1264302.236,1265068.783,1264311.379,Mapping
Blocked,Male,cave,9,M_knife.wav,space,488.9593046,101,1258952.701,1265818.433,1252002.497,1252769.256,1253535.346,1254302.785,1255069.318,1255818.813,1259702.052,1260468.691,1261235.516,1262002.242,1262768.91,1263535.401,1264302.236,1265068.783,1265078.388,Mapping
Blocked,Male,cave,9,M_cave.wav,None,735.3080576,101,1258952.701,1265818.433,1266586.023,1252769.256,1253535.346,1254302.785,1255069.318,1255818.813,1259702.052,1260468.691,1261235.516,1262002.242,1262768.91,1263535.401,1264302.236,1265068.783,1265827.217,Mapping
Blocked,Male,cave,9,M_ball.wav,space,651.7514762,101,1258952.701,1265818.433,1266586.023,1267352.106,1253535.346,1254302.785,1255069.318,1255818.813,1259702.052,1260468.691,1261235.516,1262002.242,1262768.91,1263535.401,1264302.236,1265068.783,1266595.5,Mapping
Blocked,Male,cave,9,M_cave.wav,None,728.9026271,101,1258952.701,1265818.433,1266586.023,1267352.106,1268118.733,1254302.785,1255069.318,1255818.813,1259702.052,1260468.691,1261235.516,1262002.242,1262768.91,1263535.401,1264302.236,1265068.783,1267361.597,Mapping
Blocked,Male,cave,9,M_romp.wav,space,518.7548521,101,1258952.701,1265818.433,1266586.023,1267352.106,1268118.733,1268885.689,1255069.318,1255818.813,1259702.052,1260468.691,1261235.516,1262002.242,1262768.91,1263535.401,1264302.236,1265068.783,1268128.526,Mapping
Blocked,Male,cave,9,M_cad.wav,None,723.0577258,101,1258952.701,1265818.433,1266586.023,1267352.106,1268118.733,1268885.689,1269652.47,1255818.813,1259702.052,1260468.691,1261235.516,1262002.242,1262768.91,1263535.401,1264302.236,1265068.783,1268895.387,Mapping
Blocked,Male,cave,9,M_park.wav,None,722.3330261,101,1258952.701,1265818.433,1266586.023,1267352.106,1268118.733,1268885.689,1269652.47,1270419.058,1259702.052,1260468.691,1261235.516,1262002.242,1262768.91,1263535.401,1264302.236,1265068.783,1269661.651,Mapping
Blocked,Male,tile,16,M_jolt.wav,None,720.0664844,101,1273535.645,1265818.433,1266586.023,1267352.106,1268118.733,1268885.689,1269652.47,1270419.058,1259702.052,1260468.691,1261235.516,1262002.242,1262768.91,1263535.401,1264302.236,1265068.783,1270429.001,Mapping
Blocked,Male,tile,16,M_gnash.wav,None,720.3277349,101,1273535.645,1265818.433,1266586.023,1267352.106,1268118.733,1268885.689,1269652.47,1270419.058,1274302.032,1260468.691,1261235.516,1262002.242,1262768.91,1263535.401,1264302.236,1265068.783,1273545.33,Mapping
Blocked,Male,tile,16,M_tile.wav,None,719.2935538,101,1273535.645,1265818.433,1266586.023,1267352.106,1268118.733,1268885.689,1269652.47,1270419.058,1274302.032,1275051.937,1261235.516,1262002.242,1262768.91,1263535.401,1264302.236,1265068.783,1274311.525,Mapping
Blocked,Male,tile,16,M_done.wav,space,601.5824054,101,1273535.645,1265818.433,1266586.023,1267352.106,1268118.733,1268885.689,1269652.47,1270419.058,1274302.032,1275051.937,1275818.592,1262002.242,1262768.91,1263535.401,1264302.236,1265068.783,1275061.52,Mapping
Blocked,Male,tile,16,M_dime.wav,None,731.4644284,101,1273535.645,1265818.433,1266586.023,1267352.106,1268118.733,1268885.689,1269652.47,1270419.058,1274302.032,1275051.937,1275818.592,1276585.087,1262768.91,1263535.401,1264302.236,1265068.783,1275827.893,Mapping
Blocked,Male,tile,16,M_tile.wav,None,730.2917381,101,1273535.645,1265818.433,1266586.023,1267352.106,1268118.733,1268885.689,1269652.47,1270419.058,1274302.032,1275051.937,1275818.592,1276585.087,1277351.881,1263535.401,1264302.236,1265068.783,1276594.313,Mapping
Blocked,Male,tile,16,M_knife.wav,space,621.8118545,101,1273535.645,1265818.433,1266586.023,1267352.106,1268118.733,1268885.689,1269652.47,1270419.058,1274302.032,1275051.937,1275818.592,1276585.087,1277351.881,1278118.264,1264302.236,1265068.783,1277361.278,Mapping
Blocked,Male,tile,16,M_reek.wav,None,725.9181875,101,1273535.645,1265818.433,1266586.023,1267352.106,1268118.733,1268885.689,1269652.47,1270419.058,1274302.032,1275051.937,1275818.592,1276585.087,1277351.881,1278118.264,1278885.96,1265068.783,1278127.308,Mapping
Blocked,Male,tile,16,M_tile.wav,None,722.9105599,101,1273535.645,1265818.433,1266586.023,1267352.106,1268118.733,1268885.689,1269652.47,1270419.058,1274302.032,1275051.937,1275818.592,1276585.087,1277351.881,1278118.264,1278885.96,1279652.212,1278895.639,Mapping
Blocked,Male,tile,16,M_ball.wav,space,504.7910876,101,1273535.645,1280401.622,1266586.023,1267352.106,1268118.733,1268885.689,1269652.47,1270419.058,1274302.032,1275051.937,1275818.592,1276585.087,1277351.881,1278118.264,1278885.96,1279652.212,1279662.215,Mapping
Blocked,Male,tile,16,M_tile.wav,None,736.0040044,101,1273535.645,1280401.622,1281168.247,1267352.106,1268118.733,1268885.689,1269652.47,1270419.058,1274302.032,1275051.937,1275818.592,1276585.087,1277351.881,1278118.264,1278885.96,1279652.212,1280410.811,Mapping
Blocked,Male,tile,16,M_romp.wav,space,493.4423021,101,1273535.645,1280401.622,1281168.247,1281935.461,1268118.733,1268885.689,1269652.47,1270419.058,1274302.032,1275051.937,1275818.592,1276585.087,1277351.881,1278118.264,1278885.96,1279652.212,1281177.59,Mapping
Blocked,Male,tile,16,M_romp.wav,None,730.7857953,101,1273535.645,1280401.622,1281168.247,1281935.461,1282701.802,1268885.689,1269652.47,1270419.058,1274302.032,1275051.937,1275818.592,1276585.087,1277351.881,1278118.264,1278885.96,1279652.212,1281945.017,Mapping
Blocked,Male,tile,16,M_knife.wav,None,730.1952763,101,1273535.645,1280401.622,1281168.247,1281935.461,1282701.802,1283468.497,1269652.47,1270419.058,1274302.032,1275051.937,1275818.592,1276585.087,1277351.881,1278118.264,1278885.96,1279652.212,1282711.152,Mapping
Blocked,Male,tile,16,M_jolt.wav,None,728.5112151,101,1273535.645,1280401.622,1281168.247,1281935.461,1282701.802,1283468.497,1284235.077,1270419.058,1274302.032,1275051.937,1275818.592,1276585.087,1277351.881,1278118.264,1278885.96,1279652.212,1283477.967,Mapping
Blocked,Male,tile,16,M_jaw.wav,None,727.435914,101,1273535.645,1280401.622,1281168.247,1281935.461,1282701.802,1283468.497,1284235.077,1285001.759,1274302.032,1275051.937,1275818.592,1276585.087,1277351.881,1278118.264,1278885.96,1279652.212,1284244.078,Mapping
Blocked,Male,tile,18,M_greet.wav,None,725.344673,101,1288135.435,1280401.622,1281168.247,1281935.461,1282701.802,1283468.497,1284235.077,1285001.759,1274302.032,1275051.937,1275818.592,1276585.087,1277351.881,1278118.264,1278885.96,1279652.212,1285011.204,Mapping
Blocked,Male,tile,18,M_jaw.wav,None,719.7823551,101,1288135.435,1280401.622,1281168.247,1281935.461,1282701.802,1283468.497,1284235.077,1285001.759,1288884.781,1275051.937,1275818.592,1276585.087,1277351.881,1278118.264,1278885.96,1279652.212,1288145.483,Mapping
Blocked,Male,tile,18,M_cling.wav,None,736.7630223,101,1288135.435,1280401.622,1281168.247,1281935.461,1282701.802,1283468.497,1284235.077,1285001.759,1288884.781,1289651.75,1275818.592,1276585.087,1277351.881,1278118.264,1278885.96,1279652.212,1288893.66,Mapping
Blocked,Male,tile,18,M_tile.wav,None,734.1672121,101,1288135.435,1280401.622,1281168.247,1281935.461,1282701.802,1283468.497,1284235.077,1285001.759,1288884.781,1289651.75,1290418.281,1276585.087,1277351.881,1278118.264,1278885.96,1279652.212,1289661.455,Mapping
Blocked,Male,tile,18,M_done.wav,space,307.1632427,101,1288135.435,1280401.622,1281168.247,1281935.461,1282701.802,1283468.497,1284235.077,1285001.759,1288884.781,1289651.75,1290418.281,1291185.038,1277351.881,1278118.264,1278885.96,1279652.212,1290427.618,Mapping
Blocked,Male,tile,18,M_cling.wav,None,729.5858978,101,1288135.435,1280401.622,1281168.247,1281935.461,1282701.802,1283468.497,1284235.077,1285001.759,1288884.781,1289651.75,1290418.281,1291185.038,1291951.303,1278118.264,1278885.96,1279652.212,1291194.383,Mapping
Blocked,Male,tile,18,M_tile.wav,None,728.5897448,101,1288135.435,1280401.622,1281168.247,1281935.461,1282701.802,1283468.497,1284235.077,1285001.759,1288884.781,1289651.75,1290418.281,1291185.038,1291951.303,1292718.249,1278885.96,1279652.212,1291960.659,Mapping
Blocked,Male,tile,18,M_jaw.wav,space,479.1471051,101,1288135.435,1280401.622,1281168.247,1281935.461,1282701.802,1283468.497,1284235.077,1285001.759,1288884.781,1289651.75,1290418.281,1291185.038,1291951.303,1292718.249,1293484.887,1279652.212,1292727.619,Mapping
Blocked,Male,tile,18,M_knife.wav,None,723.8504435,101,1288135.435,1280401.622,1281168.247,1281935.461,1282701.802,1283468.497,1284235.077,1285001.759,1288884.781,1289651.75,1290418.281,1291185.038,1291951.303,1292718.249,1293484.887,1294251.866,1293493.732,Mapping
Blocked,Male,tile,18,M_tile.wav,None,721.1971273,101,1288135.435,1295018.654,1281168.247,1281935.461,1282701.802,1283468.497,1284235.077,1285001.759,1288884.781,1289651.75,1290418.281,1291185.038,1291951.303,1292718.249,1293484.887,1294251.866,1294261.67,Mapping
Blocked,Male,tile,18,M_reek.wav,space,513.8467427,101,1288135.435,1295018.654,1295767.831,1281935.461,1282701.802,1283468.497,1284235.077,1285001.759,1288884.781,1289651.75,1290418.281,1291185.038,1291951.303,1292718.249,1293484.887,1294251.866,1295028.868,Mapping
Blocked,Male,tile,18,M_cling.wav,None,734.4745293,101,1288135.435,1295018.654,1295767.831,1296534.798,1282701.802,1283468.497,1284235.077,1285001.759,1288884.781,1289651.75,1290418.281,1291185.038,1291951.303,1292718.249,1293484.887,1294251.866,1295776.778,Mapping
Blocked,Male,tile,18,M_reek.wav,None,732.4828417,101,1288135.435,1295018.654,1295767.831,1296534.798,1297301.474,1283468.497,1284235.077,1285001.759,1288884.781,1289651.75,1290418.281,1291185.038,1291951.303,1292718.249,1293484.887,1294251.866,1296544.023,Mapping
Blocked,Male,tile,18,M_tile.wav,None,730.5464959,101,1288135.435,1295018.654,1295767.831,1296534.798,1297301.474,1298067.745,1284235.077,1285001.759,1288884.781,1289651.75,1290418.281,1291185.038,1291951.303,1292718.249,1293484.887,1294251.866,1297311.263,Mapping
Blocked,Male,tile,18,M_greet.wav,space,409.9843467,101,1288135.435,1295018.654,1295767.831,1296534.798,1297301.474,1298067.745,1298835.032,1285001.759,1288884.781,1289651.75,1290418.281,1291185.038,1291951.303,1292718.249,1293484.887,1294251.866,1298076.601,Mapping
Blocked,Male,tile,18,M_done.wav,None,725.9076756,101,1288135.435,1295018.654,1295767.831,1296534.798,1297301.474,1298067.745,1298835.032,1299601.441,1288884.781,1289651.75,1290418.281,1291185.038,1291951.303,1292718.249,1293484.887,1294251.866,1298844.377,Mapping
Blocked,Male,ball,4,M_reek.wav,None,724.7736318,101,1302735.373,1295018.654,1295767.831,1296534.798,1297301.474,1298067.745,1298835.032,1299601.441,1288884.781,1289651.75,1290418.281,1291185.038,1291951.303,1292718.249,1293484.887,1294251.866,1299610.824,Mapping
Blocked,Male,ball,4,M_greet.wav,None,719.8624307,101,1302735.373,1295018.654,1295767.831,1296534.798,1297301.474,1298067.745,1298835.032,1299601.441,1303484.442,1289651.75,1290418.281,1291185.038,1291951.303,1292718.249,1293484.887,1294251.866,1302745.05,Mapping
Blocked,Male,ball,4,M_romp.wav,None,736.4210777,101,1302735.373,1295018.654,1295767.831,1296534.798,1297301.474,1298067.745,1298835.032,1299601.441,1303484.442,1304251.026,1290418.281,1291185.038,1291951.303,1292718.249,1293484.887,1294251.866,1303493.711,Mapping
Blocked,Male,ball,4,M_ball.wav,None,735.2156152,101,1302735.373,1295018.654,1295767.831,1296534.798,1297301.474,1298067.745,1298835.032,1299601.441,1303484.442,1304251.026,1305018.029,1291185.038,1291951.303,1292718.249,1293484.887,1294251.866,1304260.174,Mapping
Blocked,Male,ball,4,M_reek.wav,space,330.8461457,101,1302735.373,1295018.654,1295767.831,1296534.798,1297301.474,1298067.745,1298835.032,1299601.441,1303484.442,1304251.026,1305018.029,1305784.614,1291951.303,1292718.249,1293484.887,1294251.866,1305027.636,Mapping
Blocked,Male,ball,4,M_ball.wav,None,729.4532629,101,1302735.373,1295018.654,1295767.831,1296534.798,1297301.474,1298067.745,1298835.032,1299601.441,1303484.442,1304251.026,1305018.029,1305784.614,1306551.272,1292718.249,1293484.887,1294251.866,1305794.366,Mapping
Blocked,Male,ball,4,M_depth.wav,space,573.8069893,101,1302735.373,1295018.654,1295767.831,1296534.798,1297301.474,1298067.745,1298835.032,1299601.441,1303484.442,1304251.026,1305018.029,1305784.614,1306551.272,1307317.869,1293484.887,1294251.866,1306560.657,Mapping
Blocked,Male,ball,4,M_done.wav,None,725.041375,101,1302735.373,1295018.654,1295767.831,1296534.798,1297301.474,1298067.745,1298835.032,1299601.441,1303484.442,1304251.026,1305018.029,1305784.614,1306551.272,1307317.869,1308085.053,1294251.866,1307327.166,Mapping
Blocked,Male,ball,4,M_romp.wav,None,722.6440534,101,1302735.373,1295018.654,1295767.831,1296534.798,1297301.474,1298067.745,1298835.032,1299601.441,1303484.442,1304251.026,1305018.029,1305784.614,1306551.272,1307317.869,1308085.053,1308851.207,1308094.94,Mapping
Blocked,Male,ball,4,M_jaw.wav,None,722.5868566,101,1302735.373,1309618.788,1295767.831,1296534.798,1297301.474,1298067.745,1298835.032,1299601.441,1303484.442,1304251.026,1305018.029,1305784.614,1306551.272,1307317.869,1308085.053,1308851.207,1308860.33,Mapping
Blocked,Male,ball,4,M_depth.wav,None,719.6184938,101,1302735.373,1309618.788,1310368.104,1296534.798,1297301.474,1298067.745,1298835.032,1299601.441,1303484.442,1304251.026,1305018.029,1305784.614,1306551.272,1307317.869,1308085.053,1308851.207,1309628.32,Mapping
Blocked,Male,ball,4,M_ball.wav,None,735.6540214,101,1302735.373,1309618.788,1310368.104,1311134.263,1297301.474,1298067.745,1298835.032,1299601.441,1303484.442,1304251.026,1305018.029,1305784.614,1306551.272,1307317.869,1308085.053,1308851.207,1310377.586,Mapping
Blocked,Male,ball,4,M_done.wav,space,358.5275733,101,1302735.373,1309618.788,1310368.104,1311134.263,1311901.126,1298067.745,1298835.032,1299601.441,1303484.442,1304251.026,1305018.029,1305784.614,1306551.272,1307317.869,1308085.053,1308851.207,1311143.858,Mapping
