"Condition","Talker","Target","Trial","current_stimulus","response_response","response_time_response","subject_nr","time_Audio1","time_Audio10","time_Audio11","time_Audio12","time_Audio13","time_Audio14","time_Audio15","time_Audio16","time_Audio2","time_Audio3","time_Audio4","time_Audio5","time_Audio6","time_Audio7","time_Audio8","time_Audio9","time_response"
"Blocked","Male","tile","14","M_cad.wav","NA","NA","213","375327.33364","NA","NA","NA","NA","NA","NA","NA","NA","NA","NA","NA","NA","NA","NA","NA","NA"
"Blocked","Male","tile","14","M_jaw.wav","None","717.550131492","213","375327.33364","NA","NA","NA","NA","NA","NA","NA","376094.098737","NA","NA","NA","NA","NA","NA","NA","375341.964598"
"Blocked","Male","tile","14","M_ball.wav","None","721.288642264","213","375327.33364","NA","NA","NA","NA","NA","NA","NA","376094.098737","376860.462528","NA","NA","NA","NA","NA","NA","376104.331101"
"Blocked","Male","tile","14","M_tile.wav","None","721.887199674","213","375327.33364","NA","NA","NA","NA","NA","NA","NA","376094.098737","376860.462528","377627.253904","NA","NA","NA","NA","NA","376869.98256"
"Blocked","Male","tile","14","M_ball.wav","space","517.241763067","213","375327.33364","NA","NA","NA","NA","NA","NA","NA","376094.098737","376860.462528","377627.253904","378393.594508","NA","NA","NA","NA","377636.980772"
"Blocked","Male","tile","14","M_tile.wav","None","721.73292283","213","375327.33364","NA","NA","NA","NA","NA","NA","NA","376094.098737","376860.462528","377627.253904","378393.594508","379160.176265","NA","NA","NA","378402.541952"
"Blocked","Male","tile","14","M_cave.wav","space","376.943727257","213","375327.33364","NA","NA","NA","NA","NA","NA","NA","376094.098737","376860.462528","377627.253904","378393.594508","379160.176265","379927.143561","NA","NA","379169.235321"
"Blocked","Male","tile","14","M_gnash.wav","None","719.428662094","213","375327.33364","NA","NA","NA","NA","NA","NA","NA","376094.098737","376860.462528","377627.253904","378393.594508","379160.176265","379927.143561","380677.601367","NA","379937.233088"
"Blocked","Male","tile","14","M_ball.wav","None","735.983289895","213","375327.33364","NA","NA","NA","NA","NA","NA","NA","376094.098737","376860.462528","377627.253904","378393.594508","379160.176265","379927.143561","380677.601367","381443.377731","380686.873134"
"Blocked","Male","tile","14","M_tile.wav","None","736.35584244","213","375327.33364","382210.127988","NA","NA","NA","NA","NA","NA","376094.098737","376860.462528","377627.253904","378393.594508","379160.176265","379927.143561","380677.601367","381443.377731","381452.819543"
"Blocked","Male","tile","14","M_reek.wav","space","414.913170622","213","375327.33364","382210.127988","382976.826304","NA","NA","NA","NA","NA","376094.098737","376860.462528","377627.253904","378393.594508","379160.176265","379927.143561","380677.601367","381443.377731","382219.147161"
"Blocked","Male","tile","14","M_ball.wav","None","735.119153513","213","375327.33364","382210.127988","382976.826304","383743.599439","NA","NA","NA","NA","376094.098737","376860.462528","377627.253904","378393.594508","379160.176265","379927.143561","380677.601367","381443.377731","382986.531529"
"Blocked","Male","tile","14","M_tile.wav","None","735.254570842","213","375327.33364","382210.127988","382976.826304","383743.599439","384510.271784","NA","NA","NA","376094.098737","376860.462528","377627.253904","378393.594508","379160.176265","379927.143561","380677.601367","381443.377731","383752.837196"
"Blocked","Male","tile","14","M_gnash.wav","space","450.378936948","213","375327.33364","382210.127988","382976.826304","383743.599439","384510.271784","385276.813968","NA","NA","376094.098737","376860.462528","377627.253904","378393.594508","379160.176265","379927.143561","380677.601367","381443.377731","384519.656398"
"Blocked","Male","tile","14","M_park.wav","None","735.547047923","213","375327.33364","382210.127988","382976.826304","383743.599439","384510.271784","385276.813968","386043.568553","NA","376094.098737","376860.462528","377627.253904","378393.594508","379160.176265","379927.143561","380677.601367","381443.377731","385286.200746"
"Blocked","Male","tile","14","M_dime.wav","None","735.469136387","213","375327.33364","382210.127988","382976.826304","383743.599439","384510.271784","385276.813968","386043.568553","386810.07951","376094.098737","376860.462528","377627.253904","378393.594508","379160.176265","379927.143561","380677.601367","381443.377731","386053.246571"
"Blocked","Male","tile","13","M_dime.wav","None","736.003695289","213","389960.553332","382210.127988","382976.826304","383743.599439","384510.271784","385276.813968","386043.568553","386810.07951","376094.098737","376860.462528","377627.253904","378393.594508","379160.176265","379927.143561","380677.601367","381443.377731","386819.094354"
"Blocked","Male","tile","13","M_tile.wav","None","723.175829626","213","389960.553332","382210.127988","382976.826304","383743.599439","384510.271784","385276.813968","386043.568553","386810.07951","390727.456938","376860.462528","377627.253904","378393.594508","379160.176265","379927.143561","380677.601367","381443.377731","389969.939801"
"Blocked","Male","tile","13","M_priest.wav","space","496.791565092","213","389960.553332","382210.127988","382976.826304","383743.599439","384510.271784","385276.813968","386043.568553","386810.07951","390727.456938","391494.216469","377627.253904","378393.594508","379160.176265","379927.143561","380677.601367","381443.377731","390737.153507"
"Blocked","Male","tile","13","M_priest.wav","None","721.546182758","213","389960.553332","382210.127988","382976.826304","383743.599439","384510.271784","385276.813968","386043.568553","386810.07951","390727.456938","391494.216469","392260.56944","378393.594508","379160.176265","379927.143561","380677.601367","381443.377731","391504.056185"
"Blocked","Male","tile","13","M_jolt.wav","None","722.759065451","213","389960.553332","382210.127988","382976.826304","383743.599439","384510.271784","385276.813968","386043.568553","386810.07951","390727.456938","391494.216469","392260.56944","393027.592386","379160.176265","379927.143561","380677.601367","381443.377731","392269.677654"
"Blocked","Male","tile","13","M_tile.wav","None","721.394997556","213","389960.553332","382210.127988","382976.826304","383743.599439","384510.271784","385276.813968","386043.568553","386810.07951","390727.456938","391494.216469","392260.56944","393027.592386","393794.296267","379927.143561","380677.601367","381443.377731","393037.507849"
"Blocked","Male","tile","13","M_depth.wav","space","357.335096109","213","389960.553332","382210.127988","382976.826304","383743.599439","384510.271784","385276.813968","386043.568553","386810.07951","390727.456938","391494.216469","392260.56944","393027.592386","393794.296267","394560.39417","380677.601367","381443.377731","393804.485966"
"Blocked","Male","tile","13","M_cave.wav","None","721.15260642","213","389960.553332","382210.127988","382976.826304","383743.599439","384510.271784","385276.813968","386043.568553","386810.07951","390727.456938","391494.216469","392260.56944","393027.592386","393794.296267","394560.39417","395327.161431","381443.377731","394570.142062"
"Blocked","Male","tile","13","M_jaw.wav","None","720.888573327","213","389960.553332","382210.127988","382976.826304","383743.599439","384510.271784","385276.813968","386043.568553","386810.07951","390727.456938","391494.216469","392260.56944","393027.592386","393794.296267","394560.39417","395327.161431","396093.839341","395337.006093"
"Blocked","Male","tile","13","M_tile.wav","None","720.579092042","213","389960.553332","396860.374414","382976.826304","383743.599439","384510.271784","385276.813968","386043.568553","386810.07951","390727.456938","391494.216469","392260.56944","393027.592386","393794.296267","394560.39417","395327.161431","396093.839341","396103.574557"
"Blocked","Male","tile","13","M_cad.wav","space","499.953160412","213","389960.553332","396860.374414","397627.167027","383743.599439","384510.271784","385276.813968","386043.568553","386810.07951","390727.456938","391494.216469","392260.56944","393027.592386","393794.296267","394560.39417","395327.161431","396093.839341","396869.84776"
"Blocked","Male","tile","13","M_gnash.wav","None","719.579228899","213","389960.553332","396860.374414","397627.167027","398393.994267","384510.271784","385276.813968","386043.568553","386810.07951","390727.456938","391494.216469","392260.56944","393027.592386","393794.296267","394560.39417","395327.161431","396093.839341","397637.117426"
"Blocked","Male","tile","13","M_tile.wav","None","719.222444226","213","389960.553332","396860.374414","397627.167027","398393.994267","399160.323431","385276.813968","386043.568553","386810.07951","390727.456938","391494.216469","392260.56944","393027.592386","393794.296267","394560.39417","395327.161431","396093.839341","398403.762873"
"Blocked","Male","tile","13","M_cad.wav","space","647.863326129","213","389960.553332","396860.374414","397627.167027","398393.994267","399160.323431","399910.305113","386043.568553","386810.07951","390727.456938","391494.216469","392260.56944","393027.592386","393794.296267","394560.39417","395327.161431","396093.839341","399169.889839"
"Blocked","Male","tile","13","M_park.wav","None","735.986999935","213","389960.553332","396860.374414","397627.167027","398393.994267","399160.323431","399910.305113","400676.681889","386810.07951","390727.456938","391494.216469","392260.56944","393027.592386","393794.296267","394560.39417","395327.161431","396093.839341","399919.462176"
"Blocked","Male","tile","13","M_park.wav","None","735.167693463","213","389960.553332","396860.374414","397627.167027","398393.994267","399160.323431","399910.305113","400676.681889","401443.279415","390727.456938","391494.216469","392260.56944","393027.592386","393794.296267","394560.39417","395327.161431","396093.839341","400686.402265"
"Blocked","Male","tile","16","M_greet.wav","None","735.587858595","213","404577.112041","396860.374414","397627.167027","398393.994267","399160.323431","399910.305113","400676.681889","401443.279415","390727.456938","391494.216469","392260.56944","393027.592386","393794.296267","394560.39417","395327.161431","396093.839341","401452.430295"
"Blocked","Male","tile","16","M_tile.wav","None","723.032373702","213","404577.112041","396860.374414","397627.167027","398393.994267","399160.323431","399910.305113","400676.681889","401443.279415","405343.378133","391494.216469","392260.56944","393027.592386","393794.296267","394560.39417","395327.161431","396093.839341","404586.85313"
"Blocked","Male","tile","16","M_reek.wav","space","377.073270385","213","404577.112041","396860.374414","397627.167027","398393.994267","399160.323431","399910.305113","400676.681889","401443.279415","405343.378133","406110.053261","392260.56944","393027.592386","393794.296267","394560.39417","395327.161431","396093.839341","405352.533651"
"Blocked","Male","tile","16","M_priest.wav","None","722.683318309","213","404577.112041","396860.374414","397627.167027","398393.994267","399160.323431","399910.305113","400676.681889","401443.279415","405343.378133","406110.053261","406877.128767","393027.592386","393794.296267","394560.39417","395327.161431","396093.839341","406119.473739"
"Blocked","Male","tile","16","M_jolt.wav","None","721.727357712","213","404577.112041","396860.374414","397627.167027","398393.994267","399160.323431","399910.305113","400676.681889","401443.279415","405343.378133","406110.053261","406877.128767","407643.741133","393794.296267","394560.39417","395327.161431","396093.839341","406886.802457"
"Blocked","Male","tile","16","M_greet.wav","None","721.379229682","213","404577.112041","396860.374414","397627.167027","398393.994267","399160.323431","399910.305113","400676.681889","401443.279415","405343.378133","406110.053261","406877.128767","407643.741133","408410.162121","394560.39417","395327.161431","396093.839341","407653.542202"
"Blocked","Male","tile","16","M_knife.wav","None","721.449102741","213","404577.112041","396860.374414","397627.167027","398393.994267","399160.323431","399910.305113","400676.681889","401443.279415","405343.378133","406110.053261","406877.128767","407643.741133","408410.162121","409176.785617","395327.161431","396093.839341","408419.71678"
"Blocked","Male","tile","16","M_tile.wav","None","721.313376096","213","404577.112041","396860.374414","397627.167027","398393.994267","399160.323431","399910.305113","400676.681889","401443.279415","405343.378133","406110.053261","406877.128767","407643.741133","408410.162121","409176.785617","409943.898841","396093.839341","409186.565353"
"Blocked","Male","tile","16","M_priest.wav","space","415.29963573","213","404577.112041","396860.374414","397627.167027","398393.994267","399160.323431","399910.305113","400676.681889","401443.279415","405343.378133","406110.053261","406877.128767","407643.741133","408410.162121","409176.785617","409943.898841","410710.010348","409954.259822"
"Blocked","Male","tile","16","M_tile.wav","None","720.386786736","213","404577.112041","411476.411549","397627.167027","398393.994267","399160.323431","399910.305113","400676.681889","401443.279415","405343.378133","406110.053261","406877.128767","407643.741133","408410.162121","409176.785617","409943.898841","410710.010348","410719.853465"
"Blocked","Male","tile","16","M_ball.wav","space","555.986610358","213","404577.112041","411476.411549","412243.831164","398393.994267","399160.323431","399910.305113","400676.681889","401443.279415","405343.378133","406110.053261","406877.128767","407643.741133","408410.162121","409176.785617","409943.898841","410710.010348","411485.526874"
"Blocked","Male","tile","16","M_tile.wav","None","719.389706268","213","404577.112041","411476.411549","412243.831164","413010.070049","399160.323431","399910.305113","400676.681889","401443.279415","405343.378133","406110.053261","406877.128767","407643.741133","408410.162121","409176.785617","409943.898841","410710.010348","412253.600697"
"Blocked","Male","tile","16","M_jolt.wav","space","557.650884613","213","404577.112041","411476.411549","412243.831164","413010.070049","413777.116802","399910.305113","400676.681889","401443.279415","405343.378133","406110.053261","406877.128767","407643.741133","408410.162121","409176.785617","409943.898841","410710.010348","413019.809902"
"Blocked","Male","tile","16","M_romp.wav","None","719.185961876","213","404577.112041","411476.411549","412243.831164","413010.070049","413777.116802","414543.610136","400676.681889","401443.279415","405343.378133","406110.053261","406877.128767","407643.741133","408410.162121","409176.785617","409943.898841","410710.010348","413786.541299"
"Blocked","Male","tile","16","M_ball.wav","None","718.684793683","213","404577.112041","411476.411549","412243.831164","413010.070049","413777.116802","414543.610136","415309.78255","401443.279415","405343.378133","406110.053261","406877.128767","407643.741133","408410.162121","409176.785617","409943.898841","410710.010348","414553.479223"
"Blocked","Male","tile","16","M_lash.wav","None","719.508119277","213","404577.112041","411476.411549","412243.831164","413010.070049","413777.116802","414543.610136","415309.78255","416076.769323","405343.378133","406110.053261","406877.128767","407643.741133","408410.162121","409176.785617","409943.898841","410710.010348","415319.338755"
"Blocked","Male","ball","4","M_dime.wav","None","718.805061653","213","419193.395586","411476.411549","412243.831164","413010.070049","413777.116802","414543.610136","415309.78255","416076.769323","405343.378133","406110.053261","406877.128767","407643.741133","408410.162121","409176.785617","409943.898841","410710.010348","416086.524635"
"Blocked","Male","ball","4","M_ball.wav","None","722.415884258","213","419193.395586","411476.411549","412243.831164","413010.070049","413777.116802","414543.610136","415309.78255","416076.769323","419959.968687","406110.053261","406877.128767","407643.741133","408410.162121","409176.785617","409943.898841","410710.010348","419203.038668"
"Blocked","Male","ball","4","M_jolt.wav","space","263.936016127","213","419193.395586","411476.411549","412243.831164","413010.070049","413777.116802","414543.610136","415309.78255","416076.769323","419959.968687","420726.716779","406877.128767","407643.741133","408410.162121","409176.785617","409943.898841","410710.010348","419969.366596"
"Blocked","Male","ball","4","M_jaw.wav","None","721.76693182","213","419193.395586","411476.411549","412243.831164","413010.070049","413777.116802","414543.610136","415309.78255","416076.769323","419959.968687","420726.716779","421493.529798","407643.741133","408410.162121","409176.785617","409943.898841","410710.010348","420736.205894"
"Blocked","Male","ball","4","M_jaw.wav","None","720.677408739","213","419193.395586","411476.411549","412243.831164","413010.070049","413777.116802","414543.610136","415309.78255","416076.769323","419959.968687","420726.716779","421493.529798","422259.831755","408410.162121","409176.785617","409943.898841","410710.010348","421503.802046"
"Blocked","Male","ball","4","M_ball.wav","None","721.706643119","213","419193.395586","411476.411549","412243.831164","413010.070049","413777.116802","414543.610136","415309.78255","416076.769323","419959.968687","420726.716779","421493.529798","422259.831755","423026.919009","409176.785617","409943.898841","410710.010348","422269.314067"
"Blocked","Male","ball","4","M_greet.wav","space","276.383290766","213","419193.395586","411476.411549","412243.831164","413010.070049","413777.116802","414543.610136","415309.78255","416076.769323","419959.968687","420726.716779","421493.529798","422259.831755","423026.919009","423793.558273","409943.898841","410710.010348","423036.884558"
"Blocked","Male","ball","4","M_done.wav","None","719.792557764","213","419193.395586","411476.411549","412243.831164","413010.070049","413777.116802","414543.610136","415309.78255","416076.769323","419959.968687","420726.716779","421493.529798","422259.831755","423026.919009","423793.558273","424560.4053","410710.010348","423803.635742"
"Blocked","Male","ball","4","M_knife.wav","None","719.346113037","213","419193.395586","411476.411549","412243.831164","413010.070049","413777.116802","414543.610136","415309.78255","416076.769323","419959.968687","420726.716779","421493.529798","422259.831755","423026.919009","423793.558273","424560.4053","425326.78455","424570.518324"
"Blocked","Male","ball","4","M_reek.wav","None","719.477820443","213","419193.395586","426093.400935","412243.831164","413010.070049","413777.116802","414543.610136","415309.78255","416076.769323","419959.968687","420726.716779","421493.529798","422259.831755","423026.919009","423793.558273","424560.4053","425326.78455","425336.885207"
"Blocked","Male","ball","4","M_ball.wav","None","719.282114413","213","419193.395586","426093.400935","426859.995369","413010.070049","413777.116802","414543.610136","415309.78255","416076.769323","419959.968687","420726.716779","421493.529798","422259.831755","423026.919009","423793.558273","424560.4053","425326.78455","426103.369266"
"Blocked","Male","ball","4","M_bluff.wav","space","395.532708499","213","419193.395586","426093.400935","426859.995369","427626.53075","413777.116802","414543.610136","415309.78255","416076.769323","419959.968687","420726.716779","421493.529798","422259.831755","423026.919009","423793.558273","424560.4053","425326.78455","426869.611862"
"Blocked","Male","ball","4","M_jolt.wav","None","719.124745694","213","419193.395586","426093.400935","426859.995369","427626.53075","428393.267713","414543.610136","415309.78255","416076.769323","419959.968687","420726.716779","421493.529798","422259.831755","423026.919009","423793.558273","424560.4053","425326.78455","427636.20475"
"Blocked","Male","ball","4","M_ball.wav","None","718.518149806","213","419193.395586","426093.400935","426859.995369","427626.53075","428393.267713","429143.162517","415309.78255","416076.769323","419959.968687","420726.716779","421493.529798","422259.831755","423026.919009","423793.558273","424560.4053","425326.78455","428403.24872"
"Blocked","Male","ball","4","M_cad.wav","space","536.722706165","213","419193.395586","426093.400935","426859.995369","427626.53075","428393.267713","429143.162517","429909.315452","416076.769323","419959.968687","420726.716779","421493.529798","422259.831755","423026.919009","423793.558273","424560.4053","425326.78455","429152.413878"
"Blocked","Male","ball","4","M_dime.wav","None","736.217642436","213","419193.395586","426093.400935","426859.995369","427626.53075","428393.267713","429143.162517","429909.315452","430676.111776","419959.968687","420726.716779","421493.529798","422259.831755","423026.919009","423793.558273","424560.4053","425326.78455","429918.274646"
"Blocked","Male","ball","6","M_dime.wav","None","735.570854158","213","433809.641103","426093.400935","426859.995369","427626.53075","428393.267713","429143.162517","429909.315452","430676.111776","419959.968687","420726.716779","421493.529798","422259.831755","423026.919009","423793.558273","424560.4053","425326.78455","430685.196493"
"Blocked","Male","ball","6","M_depth.wav","None","722.820590716","213","433809.641103","426093.400935","426859.995369","427626.53075","428393.267713","429143.162517","429909.315452","430676.111776","434576.911697","420726.716779","421493.529798","422259.831755","423026.919009","423793.558273","424560.4053","425326.78455","433819.434444"
"Blocked","Male","ball","6","M_ball.wav","None","722.418357618","213","433809.641103","426093.400935","426859.995369","427626.53075","428393.267713","429143.162517","429909.315452","430676.111776","434576.911697","435343.358656","421493.529798","422259.831755","423026.919009","423793.558273","424560.4053","425326.78455","434586.407922"
"Blocked","Male","ball","6","M_cave.wav","space","335.911314585","213","433809.641103","426093.400935","426859.995369","427626.53075","428393.267713","429143.162517","429909.315452","430676.111776","434576.911697","435343.358656","436109.590739","422259.831755","423026.919009","423793.558273","424560.4053","425326.78455","435353.109021"
"Blocked","Male","ball","6","M_gnash.wav","None","722.466897685","213","433809.641103","426093.400935","426859.995369","427626.53075","428393.267713","429143.162517","429909.315452","430676.111776","434576.911697","435343.358656","436109.590739","436876.509804","423026.919009","423793.558273","424560.4053","425326.78455","436118.943509"
"Blocked","Male","ball","6","M_cave.wav","None","721.996337641","213","433809.641103","426093.400935","426859.995369","427626.53075","428393.267713","429143.162517","429909.315452","430676.111776","434576.911697","435343.358656","436109.590739","436876.509804","437643.332407","423793.558273","424560.4053","425326.78455","436886.031072"
"Blocked","Male","ball","6","M_ball.wav","None","720.810043626","213","433809.641103","426093.400935","426859.995369","427626.53075","428393.267713","429143.162517","429909.315452","430676.111776","434576.911697","435343.358656","436109.590739","436876.509804","437643.332407","438409.387644","424560.4053","425326.78455","437653.561061"
"Blocked","Male","ball","6","M_romp.wav","space","349.711526767","213","433809.641103","426093.400935","426859.995369","427626.53075","428393.267713","429143.162517","429909.315452","430676.111776","434576.911697","435343.358656","436109.590739","436876.509804","437643.332407","438409.387644","439176.372562","425326.78455","438419.192114"
"Blocked","Male","ball","6","M_ball.wav","None","721.322960337","213","433809.641103","426093.400935","426859.995369","427626.53075","428393.267713","429143.162517","429909.315452","430676.111776","434576.911697","435343.358656","436109.590739","436876.509804","437643.332407","438409.387644","439176.372562","439943.037797","439186.040069"
"Blocked","Male","ball","6","M_gnash.wav","space","591.917681042","213","433809.641103","440709.467442","426859.995369","427626.53075","428393.267713","429143.162517","429909.315452","430676.111776","434576.911697","435343.358656","436109.590739","436876.509804","437643.332407","438409.387644","439176.372562","439943.037797","439952.982013"
"Blocked","Male","ball","6","M_cad.wav","None","720.362980617","213","433809.641103","440709.467442","441475.707564","427626.53075","428393.267713","429143.162517","429909.315452","430676.111776","434576.911697","435343.358656","436109.590739","436876.509804","437643.332407","438409.387644","439176.372562","439943.037797","440719.41444"
"Blocked","Male","ball","6","M_ball.wav","None","721.883180551","213","433809.641103","440709.467442","441475.707564","442243.077402","428393.267713","429143.162517","429909.315452","430676.111776","434576.911697","435343.358656","436109.590739","436876.509804","437643.332407","438409.387644","439176.372562","439943.037797","441484.683452"
"Blocked","Male","ball","6","M_park.wav","space","427.762678126","213","433809.641103","440709.467442","441475.707564","442243.077402","443009.497771","429143.162517","429909.315452","430676.111776","434576.911697","435343.358656","436109.590739","436876.509804","437643.332407","438409.387644","439176.372562","439943.037797","442253.113751"
"Blocked","Male","ball","6","M_jolt.wav","None","719.894275418","213","433809.641103","440709.467442","441475.707564","442243.077402","443009.497771","443776.496912","429909.315452","430676.111776","434576.911697","435343.358656","436109.590739","436876.509804","437643.332407","438409.387644","439176.372562","439943.037797","443019.204543"
"Blocked","Male","ball","6","M_lash.wav","None","719.556041062","213","433809.641103","440709.467442","441475.707564","442243.077402","443009.497771","443776.496912","444542.833496","430676.111776","434576.911697","435343.358656","436109.590739","436876.509804","437643.332407","438409.387644","439176.372562","439943.037797","443786.203374"
"Blocked","Male","ball","6","M_done.wav","None","719.202347915","213","433809.641103","440709.467442","441475.707564","442243.077402","443009.497771","443776.496912","444542.833496","445309.472759","434576.911697","435343.358656","436109.590739","436876.509804","437643.332407","438409.387644","439176.372562","439943.037797","444553.114091"
"Blocked","Male","tile","17","M_cling.wav","None","719.96662172","213","448426.402629","440709.467442","441475.707564","442243.077402","443009.497771","443776.496912","444542.833496","445309.472759","434576.911697","435343.358656","436109.590739","436876.509804","437643.332407","438409.387644","439176.372562","439943.037797","445319.088325"
"Blocked","Male","tile","17","M_tile.wav","None","723.290532595","213","448426.402629","440709.467442","441475.707564","442243.077402","443009.497771","443776.496912","444542.833496","445309.472759","449192.947596","435343.358656","436109.590739","436876.509804","437643.332407","438409.387644","439176.372562","439943.037797","448435.598649"
"Blocked","Male","tile","17","M_lash.wav","space","341.826398042","213","448426.402629","440709.467442","441475.707564","442243.077402","443009.497771","443776.496912","444542.833496","445309.472759","449192.947596","449959.486997","436109.590739","436876.509804","437643.332407","438409.387644","439176.372562","439943.037797","449202.912835"
"Blocked","Male","tile","17","M_tile.wav","None","722.131136688","213","448426.402629","440709.467442","441475.707564","442243.077402","443009.497771","443776.496912","444542.833496","445309.472759","449192.947596","449959.486997","450726.144501","436876.509804","437643.332407","438409.387644","439176.372562","439943.037797","449969.365977"
"Blocked","Male","tile","17","M_reek.wav","space","392.988530104","213","448426.402629","440709.467442","441475.707564","442243.077402","443009.497771","443776.496912","444542.833496","445309.472759","449192.947596","449959.486997","450726.144501","451491.89675","437643.332407","438409.387644","439176.372562","439943.037797","450735.681847"
"Blocked","Male","tile","17","M_jaw.wav","None","726.307126228","213","448426.402629","440709.467442","441475.707564","442243.077402","443009.497771","443776.496912","444542.833496","445309.472759","449192.947596","449959.486997","450726.144501","451491.89675","452258.75027","438409.387644","439176.372562","439943.037797","451500.623755"
"Blocked","Male","tile","17","M_park.wav","None","725.892217015","213","448426.402629","440709.467442","441475.707564","442243.077402","443009.497771","443776.496912","444542.833496","445309.472759","449192.947596","449959.486997","450726.144501","451491.89675","452258.75027","453025.770125","439176.372562","439943.037797","452267.561061"
"Blocked","Male","tile","17","M_jolt.wav","None","724.398915074","213","448426.402629","440709.467442","441475.707564","442243.077402","443009.497771","443776.496912","444542.833496","445309.472759","449192.947596","449959.486997","450726.144501","451491.89675","452258.75027","453025.770125","453792.452364","439943.037797","453035.710012"
"Blocked","Male","tile","17","M_jaw.wav","None","724.783834536","213","448426.402629","440709.467442","441475.707564","442243.077402","443009.497771","443776.496912","444542.833496","445309.472759","449192.947596","449959.486997","450726.144501","451491.89675","452258.75027","453025.770125","453792.452364","454558.84769","453801.990636"
"Blocked","Male","tile","17","M_tile.wav","None","725.230588345","213","448426.402629","455325.740475","441475.707564","442243.077402","443009.497771","443776.496912","444542.833496","445309.472759","449192.947596","449959.486997","450726.144501","451491.89675","452258.75027","453025.770125","453792.452364","454558.84769","454568.057004"
"Blocked","Male","tile","17","M_lash.wav","space","345.51636863","213","448426.402629","455325.740475","456092.275548","442243.077402","443009.497771","443776.496912","444542.833496","445309.472759","449192.947596","449959.486997","450726.144501","451491.89675","452258.75027","453025.770125","453792.452364","454558.84769","455335.082733"
"Blocked","Male","tile","17","M_dime.wav","None","724.773013499","213","448426.402629","455325.740475","456092.275548","456858.725598","443009.497771","443776.496912","444542.833496","445309.472759","449192.947596","449959.486997","450726.144501","451491.89675","452258.75027","453025.770125","453792.452364","454558.84769","456101.569265"
"Blocked","Male","tile","17","M_jaw.wav","None","724.795273971","213","448426.402629","455325.740475","456092.275548","456858.725598","457625.639098","443776.496912","444542.833496","445309.472759","449192.947596","449959.486997","450726.144501","451491.89675","452258.75027","453025.770125","453792.452364","454558.84769","456868.196162"
"Blocked","Male","tile","17","M_tile.wav","None","725.08404078","213","448426.402629","455325.740475","456092.275548","456858.725598","457625.639098","458392.165823","444542.833496","445309.472759","449192.947596","449959.486997","450726.144501","451491.89675","452258.75027","453025.770125","453792.452364","454558.84769","457635.059885"
"Blocked","Male","tile","17","M_greet.wav","space","358.866735362","213","448426.402629","455325.740475","456092.275548","456858.725598","457625.639098","458392.165823","459158.608762","445309.472759","449192.947596","449959.486997","450726.144501","451491.89675","452258.75027","453025.770125","453792.452364","454558.84769","458401.606397"
"Blocked","Male","tile","17","M_reek.wav","None","725.761128007","213","448426.402629","455325.740475","456092.275548","456858.725598","457625.639098","458392.165823","459158.608762","459925.566164","449192.947596","449959.486997","450726.144501","451491.89675","452258.75027","453025.770125","453792.452364","454558.84769","459167.412442"
"Blocked","Male","cave","7","M_reek.wav","None","724.779815297","213","463058.977388","455325.740475","456092.275548","456858.725598","457625.639098","458392.165823","459158.608762","459925.566164","449192.947596","449959.486997","450726.144501","451491.89675","452258.75027","453025.770125","453792.452364","454558.84769","459935.186986"
"Blocked","Male","cave","7","M_tile.wav","None","728.876965819","213","463058.977388","455325.740475","456092.275548","456858.725598","457625.639098","458392.165823","459158.608762","459925.566164","463826.05784","449959.486997","450726.144501","451491.89675","452258.75027","453025.770125","453792.452364","454558.84769","463063.457294"
"Blocked","Male","cave","7","M_greet.wav","space","533.16444275","213","463058.977388","455325.740475","456092.275548","456858.725598","457625.639098","458392.165823","459158.608762","459925.566164","463826.05784","464592.551484","450726.144501","451491.89675","452258.75027","453025.770125","453792.452364","454558.84769","463835.260971"
"Blocked","Male","cave","7","M_depth.wav","None","722.495650756","213","463058.977388","455325.740475","456092.275548","456858.725598","457625.639098","458392.165823","459158.608762","459925.566164","463826.05784","464592.551484","465359.175908","451491.89675","452258.75027","453025.770125","453792.452364","454558.84769","464602.505284"
"Blocked","Male","cave","7","M_cave.wav","None","723.426877521","213","463058.977388","455325.740475","456092.275548","456858.725598","457625.639098","458392.165823","459158.608762","459925.566164","463826.05784","464592.551484","465359.175908","466125.784872","452258.75027","453025.770125","453792.452364","454558.84769","465368.498069"
"Blocked","Male","cave","7","M_depth.wav","space","481.125189108","213","463058.977388","455325.740475","456092.275548","456858.725598","457625.639098","458392.165823","459158.608762","459925.566164","463826.05784","464592.551484","465359.175908","466125.784872","466892.369103","453025.770125","453792.452364","454558.84769","466135.248326"
"Blocked","Male","cave","7","M_cave.wav","None","722.083524102","213","463058.977388","455325.740475","456092.275548","456858.725598","457625.639098","458392.165823","459158.608762","459925.566164","463826.05784","464592.551484","465359.175908","466125.784872","466892.369103","467658.786691","453792.452364","454558.84769","466902.512426"
"Blocked","Male","cave","7","M_greet.wav","space","467.698766035","213","463058.977388","455325.740475","456092.275548","456858.725598","457625.639098","458392.165823","459158.608762","459925.566164","463826.05784","464592.551484","465359.175908","466125.784872","466892.369103","467658.786691","468425.683804","454558.84769","467668.571374"
"Blocked","Male","cave","7","M_jolt.wav","None","721.644808655","213","463058.977388","455325.740475","456092.275548","456858.725598","457625.639098","458392.165823","459158.608762","459925.566164","463826.05784","464592.551484","465359.175908","466125.784872","466892.369103","467658.786691","468425.683804","469192.614308","468435.868556"
"Blocked","Male","cave","7","M_cave.wav","None","721.619456657","213","463058.977388","469958.975935","456092.275548","456858.725598","457625.639098","458392.165823","459158.608762","459925.566164","463826.05784","464592.551484","465359.175908","466125.784872","466892.369103","467658.786691","468425.683804","469192.614308","469202.493289"
"Blocked","Male","cave","7","M_lash.wav","space","383.701614221","213","463058.977388","469958.975935","470725.244501","456858.725598","457625.639098","458392.165823","459158.608762","459925.566164","463826.05784","464592.551484","465359.175908","466125.784872","466892.369103","467658.786691","468425.683804","469192.614308","469968.582844"
"Blocked","Male","cave","7","M_knife.wav","None","722.4795738","213","463058.977388","469958.975935","470725.244501","471492.487578","457625.639098","458392.165823","459158.608762","459925.566164","463826.05784","464592.551484","465359.175908","466125.784872","466892.369103","467658.786691","468425.683804","469192.614308","470734.376212"
"Blocked","Male","cave","7","M_reek.wav","None","721.024609171","213","463058.977388","469958.975935","470725.244501","471492.487578","472258.827254","458392.165823","459158.608762","459925.566164","463826.05784","464592.551484","465359.175908","466125.784872","466892.369103","467658.786691","468425.683804","469192.614308","471502.467967"
"Blocked","Male","cave","7","M_depth.wav","None","727.399740834","213","463058.977388","469958.975935","470725.244501","471492.487578","472258.827254","473025.370984","459158.608762","459925.566164","463826.05784","464592.551484","465359.175908","466125.784872","466892.369103","467658.786691","468425.683804","469192.614308","472263.385999"
"Blocked","Male","cave","7","M_cave.wav","None","722.322205082","213","463058.977388","469958.975935","470725.244501","471492.487578","472258.827254","473025.370984","473792.41248","459925.566164","463826.05784","464592.551484","465359.175908","466125.784872","466892.369103","467658.786691","468425.683804","469192.614308","473035.253365"
"Blocked","Male","cave","7","M_dime.wav","space","501.791498507","213","463058.977388","469958.975935","470725.244501","471492.487578","472258.827254","473025.370984","473792.41248","474558.666515","463826.05784","464592.551484","465359.175908","466125.784872","466892.369103","467658.786691","468425.683804","469192.614308","473802.363498"
"Blocked","Male","cave","9","M_cad.wav","None","722.094345139","213","477692.347338","469958.975935","470725.244501","471492.487578","472258.827254","473025.370984","473792.41248","474558.666515","463826.05784","464592.551484","465359.175908","466125.784872","466892.369103","467658.786691","468425.683804","469192.614308","474568.195513"
"Blocked","Male","cave","9","M_cave.wav","None","721.884417115","213","477692.347338","469958.975935","470725.244501","471492.487578","472258.827254","473025.370984","473792.41248","474558.666515","478458.870043","464592.551484","465359.175908","466125.784872","466892.369103","467658.786691","468425.683804","469192.614308","477702.364518"
"Blocked","Male","cave","9","M_tile.wav","space","379.862004076","213","477692.347338","469958.975935","470725.244501","471492.487578","472258.827254","473025.370984","473792.41248","474558.666515","478458.870043","479225.341427","465359.175908","466125.784872","466892.369103","467658.786691","468425.683804","469192.614308","478468.252494"
"Blocked","Male","cave","9","M_cave.wav","None","722.279539332","213","477692.347338","469958.975935","470725.244501","471492.487578","472258.827254","473025.370984","473792.41248","474558.666515","478458.870043","479225.341427","479992.161556","466125.784872","466892.369103","467658.786691","468425.683804","469192.614308","479234.855275"
"Blocked","Male","cave","9","M_jolt.wav","space","477.931748959","213","477692.347338","469958.975935","470725.244501","471492.487578","472258.827254","473025.370984","473792.41248","474558.666515","478458.870043","479225.341427","479992.161556","480758.649944","466892.369103","467658.786691","468425.683804","469192.614308","480002.079802"
"Blocked","Male","cave","9","M_done.wav","None","721.170538454","213","477692.347338","469958.975935","470725.244501","471492.487578","472258.827254","473025.370984","473792.41248","474558.666515","478458.870043","479225.341427","479992.161556","480758.649944","481525.057947","467658.786691","468425.683804","469192.614308","480768.710099"
"Blocked","Male","cave","9","M_cave.wav","None","722.701559425","213","477692.347338","469958.975935","470725.244501","471492.487578","472258.827254","473025.370984","473792.41248","474558.666515","478458.870043","479225.341427","479992.161556","480758.649944","481525.057947","482292.088622","468425.683804","469192.614308","481534.009101"
"Blocked","Male","cave","9","M_dime.wav","space","609.85987389","213","477692.347338","469958.975935","470725.244501","471492.487578","472258.827254","473025.370984","473792.41248","474558.666515","478458.870043","479225.341427","479992.161556","480758.649944","481525.057947","482292.088622","483058.018954","469192.614308","482302.18897"
"Blocked","Male","cave","9","M_cling.wav","None","728.47875196","213","477692.347338","469958.975935","470725.244501","471492.487578","472258.827254","473025.370984","473792.41248","474558.666515","478458.870043","479225.341427","479992.161556","480758.649944","481525.057947","482292.088622","483058.018954","483824.904628","483066.780895"
"Blocked","Male","cave","9","M_bluff.wav","None","728.099397733","213","477692.347338","484591.689821","470725.244501","471492.487578","472258.827254","473025.370984","473792.41248","474558.666515","478458.870043","479225.341427","479992.161556","480758.649944","481525.057947","482292.088622","483058.018954","483824.904628","483833.910197"
"Blocked","Male","cave","9","M_cave.wav","None","727.374697919","213","477692.347338","484591.689821","485358.165533","471492.487578","472258.827254","473025.370984","473792.41248","474558.666515","478458.870043","479225.341427","479992.161556","480758.649944","481525.057947","482292.088622","483058.018954","483824.904628","484601.081237"
"Blocked","Male","cave","9","M_priest.wav","space","392.325973953","213","477692.347338","484591.689821","485358.165533","486124.702769","472258.827254","473025.370984","473792.41248","474558.666515","478458.870043","479225.341427","479992.161556","480758.649944","481525.057947","482292.088622","483058.018954","483824.904628","485367.577045"
"Blocked","Male","cave","9","M_bluff.wav","None","727.29276726","213","477692.347338","484591.689821","485358.165533","486124.702769","486891.319154","473025.370984","473792.41248","474558.666515","478458.870043","479225.341427","479992.161556","480758.649944","481525.057947","482292.088622","483058.018954","483824.904628","486133.832626"
"Blocked","Male","cave","9","M_lash.wav","None","727.478579734","213","477692.347338","484591.689821","485358.165533","486124.702769","486891.319154","487658.113623","473792.41248","474558.666515","478458.870043","479225.341427","479992.161556","480758.649944","481525.057947","482292.088622","483058.018954","483824.904628","486900.496933"
"Blocked","Male","cave","9","M_knife.wav","None","727.912966744","213","477692.347338","484591.689821","485358.165533","486124.702769","486891.319154","487658.113623","488425.040107","474558.666515","478458.870043","479225.341427","479992.161556","480758.649944","481525.057947","482292.088622","483058.018954","483824.904628","487667.186591"
"Blocked","Male","cave","9","M_bluff.wav","None","727.804447291","213","477692.347338","484591.689821","485358.165533","486124.702769","486891.319154","487658.113623","488425.040107","489191.668241","478458.870043","479225.341427","479992.161556","480758.649944","481525.057947","482292.088622","483058.018954","483824.904628","488434.125752"
"Blocked","Male","cave","12","M_park.wav","None","727.626054897","213","492325.341025","484591.689821","485358.165533","486124.702769","486891.319154","487658.113623","488425.040107","489191.668241","478458.870043","479225.341427","479992.161556","480758.649944","481525.057947","482292.088622","483058.018954","483824.904628","489200.966287"
"Blocked","Male","cave","12","M_cave.wav","None","722.638488282","213","492325.341025","484591.689821","485358.165533","486124.702769","486891.319154","487658.113623","488425.040107","489191.668241","493092.031611","479225.341427","479992.161556","480758.649944","481525.057947","482292.088622","483058.018954","483824.904628","492335.54711"
"Blocked","Male","cave","12","M_cad.wav","space","385.751117021","213","492325.341025","484591.689821","485358.165533","486124.702769","486891.319154","487658.113623","488425.040107","489191.668241","493092.031611","493858.434667","479992.161556","480758.649944","481525.057947","482292.088622","483058.018954","483824.904628","493102.025295"
"Blocked","Male","cave","12","M_reek.wav","None","728.347044671","213","492325.341025","484591.689821","485358.165533","486124.702769","486891.319154","487658.113623","488425.040107","489191.668241","493092.031611","493858.434667","494625.298081","480758.649944","481525.057947","482292.088622","483058.018954","483824.904628","493862.817493"
"Blocked","Male","cave","12","M_dime.wav","None","722.956935642","213","492325.341025","484591.689821","485358.165533","486124.702769","486891.319154","487658.113623","488425.040107","489191.668241","493092.031611","493858.434667","494625.298081","495392.069979","481525.057947","482292.088622","483058.018954","483824.904628","494634.988775"
"Blocked","Male","cave","12","M_cave.wav","None","722.386203823","213","492325.341025","484591.689821","485358.165533","486124.702769","486891.319154","487658.113623","488425.040107","489191.668241","493092.031611","493858.434667","494625.298081","495392.069979","496158.268363","482292.088622","483058.018954","483824.904628","495402.034601"
"Blocked","Male","cave","12","M_reek.wav","None","722.791528446","213","492325.341025","484591.689821","485358.165533","486124.702769","486891.319154","487658.113623","488425.040107","489191.668241","493092.031611","493858.434667","494625.298081","495392.069979","496158.268363","496925.127449","483058.018954","483824.904628","496168.64944"
"Blocked","Male","cave","12","M_lash.wav","space","0.0411198707297","213","492325.341025","484591.689821","485358.165533","486124.702769","486891.319154","487658.113623","488425.040107","489191.668241","493092.031611","493858.434667","494625.298081","495392.069979","496158.268363","496925.127449","497691.633459","483824.904628","496934.865447"
"Blocked","Male","cave","12","M_greet.wav","None","722.478955402","213","492325.341025","484591.689821","485358.165533","486124.702769","486891.319154","487658.113623","488425.040107","489191.668241","493092.031611","493858.434667","494625.298081","495392.069979","496158.268363","496925.127449","497691.633459","498458.230984","497701.707218"
"Blocked","Male","cave","12","M_park.wav","None","723.390085972","213","492325.341025","499224.835621","485358.165533","486124.702769","486891.319154","487658.113623","488425.040107","489191.668241","493092.031611","493858.434667","494625.298081","495392.069979","496158.268363","496925.127449","497691.633459","498458.230984","498467.763383"
"Blocked","Male","cave","12","M_cave.wav","None","723.719663685","213","492325.341025","499224.835621","499991.975744","486124.702769","486891.319154","487658.113623","488425.040107","489191.668241","493092.031611","493858.434667","494625.298081","495392.069979","496158.268363","496925.127449","497691.633459","498458.230984","499234.404193"
"Blocked","Male","cave","12","M_bluff.wav","space","413.836632739","213","492325.341025","499224.835621","499991.975744","500758.235653","486891.319154","487658.113623","488425.040107","489191.668241","493092.031611","493858.434667","494625.298081","495392.069979","496158.268363","496925.127449","497691.633459","498458.230984","500001.832464"
"Blocked","Male","cave","12","M_priest.wav","None","723.375245696","213","492325.341025","499224.835621","499991.975744","500758.235653","501525.129365","487658.113623","488425.040107","489191.668241","493092.031611","493858.434667","494625.298081","495392.069979","496158.268363","496925.127449","497691.633459","498458.230984","500767.470319"
"Blocked","Male","cave","12","M_cave.wav","None","723.128526355","213","492325.341025","499224.835621","499991.975744","500758.235653","501525.129365","502291.247983","488425.040107","489191.668241","493092.031611","493858.434667","494625.298081","495392.069979","496158.268363","496925.127449","497691.633459","498458.230984","501534.722671"
"Blocked","Male","cave","12","M_done.wav","space","554.783621221","213","492325.341025","499224.835621","499991.975744","500758.235653","501525.129365","502291.247983","503058.150661","489191.668241","493092.031611","493858.434667","494625.298081","495392.069979","496158.268363","496925.127449","497691.633459","498458.230984","502300.825521"
"Blocked","Male","cave","12","M_reek.wav","None","723.643298028","213","492325.341025","499224.835621","499991.975744","500758.235653","501525.129365","502291.247983","503058.150661","503825.006346","493092.031611","493858.434667","494625.298081","495392.069979","496158.268363","496925.127449","497691.633459","498458.230984","503067.778904"
"Blocked","Male","cave","11","M_ball.wav","None","723.604033235","213","506958.45498","499224.835621","499991.975744","500758.235653","501525.129365","502291.247983","503058.150661","503825.006346","493092.031611","493858.434667","494625.298081","495392.069979","496158.268363","496925.127449","497691.633459","498458.230984","503834.578009"
"Blocked","Male","cave","11","M_depth.wav","None","722.662603715","213","506958.45498","499224.835621","499991.975744","500758.235653","501525.129365","502291.247983","503058.150661","503825.006346","507724.848761","493858.434667","494625.298081","495392.069979","496158.268363","496925.127449","497691.633459","498458.230984","506967.938838"
"Blocked","Male","cave","11","M_done.wav","None","723.155733431","213","506958.45498","499224.835621","499991.975744","500758.235653","501525.129365","502291.247983","503058.150661","503825.006346","507724.848761","508491.618804","494625.298081","495392.069979","496158.268363","496925.127449","497691.633459","498458.230984","507734.44825"
"Blocked","Male","cave","11","M_cling.wav","None","722.816262394","213","506958.45498","499224.835621","499991.975744","500758.235653","501525.129365","502291.247983","503058.150661","503825.006346","507724.848761","508491.618804","509258.050613","495392.069979","496158.268363","496925.127449","497691.633459","498458.230984","508501.752852"
"Blocked","Male","cave","11","M_jaw.wav","None","728.920868365","213","506958.45498","499224.835621","499991.975744","500758.235653","501525.129365","502291.247983","503058.150661","503825.006346","507724.848761","508491.618804","509258.050613","510025.093347","496158.268363","496925.127449","497691.633459","498458.230984","509262.683869"
"Blocked","Male","cave","11","M_cave.wav","None","723.206437775","213","506958.45498","499224.835621","499991.975744","500758.235653","501525.129365","502291.247983","503058.150661","503825.006346","507724.848761","508491.618804","509258.050613","510025.093347","510791.213201","496925.127449","497691.633459","498458.230984","510035.163087"
"Blocked","Male","cave","11","M_bluff.wav","space","366.872132174","213","506958.45498","499224.835621","499991.975744","500758.235653","501525.129365","502291.247983","503058.150661","503825.006346","507724.848761","508491.618804","509258.050613","510025.093347","510791.213201","511558.104131","497691.633459","498458.230984","510800.53629"
"Blocked","Male","cave","11","M_cling.wav","None","723.313411348","213","506958.45498","499224.835621","499991.975744","500758.235653","501525.129365","502291.247983","503058.150661","503825.006346","507724.848761","508491.618804","509258.050613","510025.093347","510791.213201","511558.104131","512324.131234","498458.230984","511568.049893"
"Blocked","Male","cave","11","M_ball.wav","None","725.237699342","213","506958.45498","499224.835621","499991.975744","500758.235653","501525.129365","502291.247983","503058.150661","503825.006346","507724.848761","508491.618804","509258.050613","510025.093347","510791.213201","511558.104131","512324.131234","513091.072559","512333.07435"
"Blocked","Male","cave","11","M_cave.wav","None","724.890189711","213","506958.45498","513858.017285","499991.975744","500758.235653","501525.129365","502291.247983","503058.150661","503825.006346","507724.848761","508491.618804","509258.050613","510025.093347","510791.213201","511558.104131","512324.131234","513091.072559","513100.413271"
"Blocked","Male","cave","11","M_cad.wav","space","540.043525281","213","506958.45498","513858.017285","514624.154762","500758.235653","501525.129365","502291.247983","503058.150661","503825.006346","507724.848761","508491.618804","509258.050613","510025.093347","510791.213201","511558.104131","512324.131234","513091.072559","513867.281322"
"Blocked","Male","cave","11","M_cave.wav","None","724.228252075","213","506958.45498","513858.017285","514624.154762","515390.653661","501525.129365","502291.247983","503058.150661","503825.006346","507724.848761","508491.618804","509258.050613","510025.093347","510791.213201","511558.104131","512324.131234","513091.072559","514633.981492"
"Blocked","Male","cave","11","M_reek.wav","space","607.954754494","213","506958.45498","513858.017285","514624.154762","515390.653661","516157.392169","502291.247983","503058.150661","503825.006346","507724.848761","508491.618804","509258.050613","510025.093347","510791.213201","511558.104131","512324.131234","513091.072559","515399.328725"
"Blocked","Male","cave","11","M_park.wav","None","724.854325759","213","506958.45498","513858.017285","514624.154762","515390.653661","516157.392169","516924.73851","503058.150661","503825.006346","507724.848761","508491.618804","509258.050613","510025.093347","510791.213201","511558.104131","512324.131234","513091.072559","516166.460191"
"Blocked","Male","cave","11","M_cave.wav","None","723.568787565","213","506958.45498","513858.017285","514624.154762","515390.653661","516157.392169","516924.73851","517690.679044","503825.006346","507724.848761","508491.618804","509258.050613","510025.093347","510791.213201","511558.104131","512324.131234","513091.072559","516934.526903"
"Blocked","Male","cave","11","M_reek.wav","space","619.381760596","213","506958.45498","513858.017285","514624.154762","515390.653661","516157.392169","516924.73851","517690.679044","518457.430228","507724.848761","508491.618804","509258.050613","510025.093347","510791.213201","511558.104131","512324.131234","513091.072559","517699.880319"
"Blocked","Male","done","22","M_ball.wav","None","724.992525764","213","521591.379103","513858.017285","514624.154762","515390.653661","516157.392169","516924.73851","517690.679044","518457.430228","507724.848761","508491.618804","509258.050613","510025.093347","510791.213201","511558.104131","512324.131234","513091.072559","518466.410136"
"Blocked","Male","done","22","M_park.wav","None","722.272119252","213","521591.379103","513858.017285","514624.154762","515390.653661","516157.392169","516924.73851","517690.679044","518457.430228","522357.813385","508491.618804","509258.050613","510025.093347","510791.213201","511558.104131","512324.131234","513091.072559","521601.216964"
"Blocked","Male","done","22","M_dime.wav","None","723.170882906","213","521591.379103","513858.017285","514624.154762","515390.653661","516157.392169","516924.73851","517690.679044","518457.430228","522357.813385","523124.714518","509258.050613","510025.093347","510791.213201","511558.104131","512324.131234","513091.072559","522367.328161"
"Blocked","Male","done","22","M_depth.wav","None","723.069165135","213","521591.379103","513858.017285","514624.154762","515390.653661","516157.392169","516924.73851","517690.679044","518457.430228","522357.813385","523124.714518","523891.490745","510025.093347","510791.213201","511558.104131","512324.131234","513091.072559","523134.310915"
"Blocked","Male","done","22","M_done.wav","None","723.334744107","213","521591.379103","513858.017285","514624.154762","515390.653661","516157.392169","516924.73851","517690.679044","518457.430228","522357.813385","523124.714518","523891.490745","524657.518775","510791.213201","511558.104131","512324.131234","513091.072559","523901.181749"
"Blocked","Male","done","22","M_priest.wav","space","540.111852344","213","521591.379103","513858.017285","514624.154762","515390.653661","516157.392169","516924.73851","517690.679044","518457.430228","522357.813385","523124.714518","523891.490745","524657.518775","525424.16886","511558.104131","512324.131234","513091.072559","524666.936471"
"Blocked","Male","done","22","M_done.wav","None","724.541752599","213","521591.379103","513858.017285","514624.154762","515390.653661","516157.392169","516924.73851","517690.679044","518457.430228","522357.813385","523124.714518","523891.490745","524657.518775","525424.16886","526190.489676","512324.131234","513091.072559","525433.162371"
"Blocked","Male","done","22","M_depth.wav","space","543.549229275","213","521591.379103","513858.017285","514624.154762","515390.653661","516157.392169","516924.73851","517690.679044","518457.430228","522357.813385","523124.714518","523891.490745","524657.518775","525424.16886","526190.489676","526957.944536","513091.072559","526199.506685"
"Blocked","Male","done","22","M_cave.wav","None","723.560439888","213","521591.379103","513858.017285","514624.154762","515390.653661","516157.392169","516924.73851","517690.679044","518457.430228","522357.813385","523124.714518","523891.490745","524657.518775","525424.16886","526190.489676","526957.944536","527724.76312","526967.251548"
"Blocked","Male","done","22","M_jaw.wav","None","723.290841794","213","521591.379103","528490.453843","514624.154762","515390.653661","516157.392169","516924.73851","517690.679044","518457.430228","522357.813385","523124.714518","523891.490745","524657.518775","525424.16886","526190.489676","526957.944536","527724.76312","527734.662815"
"Blocked","Male","done","22","M_done.wav","None","725.60685093","213","521591.379103","528490.453843","529257.099599","515390.653661","516157.392169","516924.73851","517690.679044","518457.430228","522357.813385","523124.714518","523891.490745","524657.518775","525424.16886","526190.489676","526957.944536","527724.76312","528499.499914"
"Blocked","Male","done","22","M_lash.wav","space","476.799869444","213","521591.379103","528490.453843","529257.099599","530024.069677","516157.392169","516924.73851","517690.679044","518457.430228","522357.813385","523124.714518","523891.490745","524657.518775","525424.16886","526190.489676","526957.944536","527724.76312","529266.171641"
"Blocked","Male","done","22","M_done.wav","None","724.495686009","213","521591.379103","528490.453843","529257.099599","530024.069677","530790.687917","516924.73851","517690.679044","518457.430228","522357.813385","523124.714518","523891.490745","524657.518775","525424.16886","526190.489676","526957.944536","527724.76312","530033.685243"
"Blocked","Male","done","22","M_park.wav","space","582.659209031","213","521591.379103","528490.453843","529257.099599","530024.069677","530790.687917","531557.085408","517690.679044","518457.430228","522357.813385","523124.714518","523891.490745","524657.518775","525424.16886","526190.489676","526957.944536","527724.76312","530800.345531"
"Blocked","Male","done","22","M_jaw.wav","None","725.24450114","213","521591.379103","528490.453843","529257.099599","530024.069677","530790.687917","531557.085408","532323.970464","518457.430228","522357.813385","523124.714518","523891.490745","524657.518775","525424.16886","526190.489676","526957.944536","527724.76312","531565.88105"
"Blocked","Male","done","22","M_romp.wav","None","725.174009916","213","521591.379103","528490.453843","529257.099599","530024.069677","530790.687917","531557.085408","532323.970464","533090.6425","522357.813385","523124.714518","523891.490745","524657.518775","525424.16886","526190.489676","526957.944536","527724.76312","532332.996129"
"Blocked","Male","ball","1","M_greet.wav","None","725.113102933","213","536224.489039","528490.453843","529257.099599","530024.069677","530790.687917","531557.085408","532323.970464","533090.6425","522357.813385","523124.714518","523891.490745","524657.518775","525424.16886","526190.489676","526957.944536","527724.76312","533100.063288"
"Blocked","Male","ball","1","M_ball.wav","None","723.150786711","213","536224.489039","528490.453843","529257.099599","530024.069677","530790.687917","531557.085408","532323.970464","533090.6425","536990.170487","523124.714518","523891.490745","524657.518775","525424.16886","526190.489676","526957.944536","527724.76312","536233.963622"
"Blocked","Male","ball","1","M_bluff.wav","space","311.836071895","213","536224.489039","528490.453843","529257.099599","530024.069677","530790.687917","531557.085408","532323.970464","533090.6425","536990.170487","537757.269799","523891.490745","524657.518775","525424.16886","526190.489676","526957.944536","527724.76312","536999.031982"
"Blocked","Male","ball","1","M_greet.wav","None","724.221759359","213","536224.489039","528490.453843","529257.099599","530024.069677","530790.687917","531557.085408","532323.970464","533090.6425","536990.170487","537757.269799","538524.198139","524657.518775","525424.16886","526190.489676","526957.944536","527724.76312","537766.185708"
"Blocked","Male","ball","1","M_ball.wav","None","723.581772763","213","536224.489039","528490.453843","529257.099599","530024.069677","530790.687917","531557.085408","532323.970464","533090.6425","536990.170487","537757.269799","538524.198139","539290.564712","525424.16886","526190.489676","526957.944536","527724.76312","538534.029816"
"Blocked","Male","ball","1","M_knife.wav","space","298.801370081","213","536224.489039","528490.453843","529257.099599","530024.069677","530790.687917","531557.085408","532323.970464","533090.6425","536990.170487","537757.269799","538524.198139","539290.564712","540057.345886","526190.489676","526957.944536","527724.76312","539299.992302"
"Blocked","Male","ball","1","M_depth.wav","None","723.27754728","213","536224.489039","528490.453843","529257.099599","530024.069677","530790.687917","531557.085408","532323.970464","533090.6425","536990.170487","537757.269799","538524.198139","539290.564712","540057.345886","540823.800574","526957.944536","527724.76312","540067.462002"
"Blocked","Male","ball","1","M_park.wav","None","725.135672488","213","536224.489039","528490.453843","529257.099599","530024.069677","530790.687917","531557.085408","532323.970464","533090.6425","536990.170487","537757.269799","538524.198139","539290.564712","540057.345886","540823.800574","541590.504455","527724.76312","540832.901677"
"Blocked","Male","ball","1","M_bluff.wav","None","725.247592782","213","536224.489039","528490.453843","529257.099599","530024.069677","530790.687917","531557.085408","532323.970464","533090.6425","536990.170487","537757.269799","538524.198139","539290.564712","540057.345886","540823.800574","541590.504455","542357.086831","541599.947193"
"Blocked","Male","ball","1","M_ball.wav","None","725.824199151","213","536224.489039","543123.463298","529257.099599","530024.069677","530790.687917","531557.085408","532323.970464","533090.6425","536990.170487","537757.269799","538524.198139","539290.564712","540057.345886","540823.800574","541590.504455","542357.086831","542366.502053"
"Blocked","Male","ball","1","M_bluff.wav","space","338.156523416","213","536224.489039","543123.463298","543890.149865","530024.069677","530790.687917","531557.085408","532323.970464","533090.6425","536990.170487","537757.269799","538524.198139","539290.564712","540057.345886","540823.800574","541590.504455","542357.086831","543132.562855"
"Blocked","Male","ball","1","M_reek.wav","None","726.392766926","213","536224.489039","543123.463298","543890.149865","544657.032756","530790.687917","531557.085408","532323.970464","533090.6425","536990.170487","537757.269799","538524.198139","539290.564712","540057.345886","540823.800574","541590.504455","542357.086831","543899.430288"
"Blocked","Male","ball","1","M_ball.wav","None","726.591873798","213","536224.489039","543123.463298","543890.149865","544657.032756","545423.875456","531557.085408","532323.970464","533090.6425","536990.170487","537757.269799","538524.198139","539290.564712","540057.345886","540823.800574","541590.504455","542357.086831","544666.472094"
"Blocked","Male","ball","1","M_gnash.wav","space","429.83753304","213","536224.489039","543123.463298","543890.149865","544657.032756","545423.875456","546190.298608","532323.970464","533090.6425","536990.170487","537757.269799","538524.198139","539290.564712","540057.345886","540823.800574","541590.504455","542357.086831","545432.844233"
"Blocked","Male","ball","1","M_dime.wav","None","726.876312168","213","536224.489039","543123.463298","543890.149865","544657.032756","545423.875456","546190.298608","546956.72176","533090.6425","536990.170487","537757.269799","538524.198139","539290.564712","540057.345886","540823.800574","541590.504455","542357.086831","546199.849866"
"Blocked","Male","ball","1","M_cad.wav","None","728.334059357","213","536224.489039","543123.463298","543890.149865","544657.032756","545423.875456","546190.298608","546956.72176","547723.712553","536990.170487","537757.269799","538524.198139","539290.564712","540057.345886","540823.800574","541590.504455","542357.086831","546965.65622"
"Blocked","Male","ball","2","M_cad.wav","None","728.499775636","213","550857.353183","543123.463298","543890.149865","544657.032756","545423.875456","546190.298608","546956.72176","547723.712553","536990.170487","537757.269799","538524.198139","539290.564712","540057.345886","540823.800574","541590.504455","542357.086831","547732.783357"
"Blocked","Male","ball","2","M_priest.wav","None","722.625193885","213","550857.353183","543123.463298","543890.149865","544657.032756","545423.875456","546190.298608","546956.72176","547723.712553","551623.990591","537757.269799","538524.198139","539290.564712","540057.345886","540823.800574","541590.504455","542357.086831","550866.767477"
"Blocked","Male","ball","2","M_depth.wav","None","722.780089243","213","550857.353183","543123.463298","543890.149865","544657.032756","545423.875456","546190.298608","546956.72176","547723.712553","551623.990591","552390.768982","538524.198139","539290.564712","540057.345886","540823.800574","541590.504455","542357.086831","551633.915639"
"Blocked","Male","ball","2","M_ball.wav","None","723.06329105","213","550857.353183","543123.463298","543890.149865","544657.032756","545423.875456","546190.298608","546956.72176","547723.712553","551623.990591","552390.768982","553156.752801","539290.564712","540057.345886","540823.800574","541590.504455","542357.086831","552400.703614"
"Blocked","Male","ball","2","M_depth.wav","space","392.451497726","213","550857.353183","543123.463298","543890.149865","544657.032756","545423.875456","546190.298608","546956.72176","547723.712553","551623.990591","552390.768982","553156.752801","553923.721642","540057.345886","540823.800574","541590.504455","542357.086831","553166.077127"
"Blocked","Male","ball","2","M_park.wav","None","724.157451536","213","550857.353183","543123.463298","543890.149865","544657.032756","545423.875456","546190.298608","546956.72176","547723.712553","551623.990591","552390.768982","553156.752801","553923.721642","554690.223324","540823.800574","541590.504455","542357.086831","553933.037929"
"Blocked","Male","ball","2","M_done.wav","None","724.320076173","213","550857.353183","543123.463298","543890.149865","544657.032756","545423.875456","546190.298608","546956.72176","547723.712553","551623.990591","552390.768982","553156.752801","553923.721642","554690.223324","555456.71264","541590.504455","542357.086831","554700.07046"
"Blocked","Male","ball","2","M_cling.wav","None","725.663429592","213","550857.353183","543123.463298","543890.149865","544657.032756","545423.875456","546190.298608","546956.72176","547723.712553","551623.990591","552390.768982","553156.752801","553923.721642","554690.223324","555456.71264","556223.66695","542357.086831","555465.993372"
"Blocked","Male","ball","2","M_ball.wav","None","725.587373134","213","550857.353183","543123.463298","543890.149865","544657.032756","545423.875456","546190.298608","546956.72176","547723.712553","551623.990591","552390.768982","553156.752801","553923.721642","554690.223324","555456.71264","556223.66695","556990.191511","556233.280042"
"Blocked","Male","ball","2","M_tile.wav","space","422.884558444","213","550857.353183","557756.517892","543890.149865","544657.032756","545423.875456","546190.298608","546956.72176","547723.712553","551623.990591","552390.768982","553156.752801","553923.721642","554690.223324","555456.71264","556223.66695","556990.191511","556999.577671"
"Blocked","Male","ball","2","M_ball.wav","None","726.658036583","213","550857.353183","557756.517892","558523.412841","544657.032756","545423.875456","546190.298608","546956.72176","547723.712553","551623.990591","552390.768982","553156.752801","553923.721642","554690.223324","555456.71264","556223.66695","556990.191511","557765.57973"
"Blocked","Male","ball","2","M_depth.wav","space","601.294256863","213","550857.353183","557756.517892","558523.412841","559290.235753","545423.875456","546190.298608","546956.72176","547723.712553","551623.990591","552390.768982","553156.752801","553923.721642","554690.223324","555456.71264","556223.66695","556990.191511","558533.084986"
"Blocked","Male","ball","2","M_lash.wav","None","725.595411728","213","550857.353183","557756.517892","558523.412841","559290.235753","560056.61593","546190.298608","546956.72176","547723.712553","551623.990591","552390.768982","553156.752801","553923.721642","554690.223324","555456.71264","556223.66695","556990.191511","559300.085053"
"Blocked","Male","ball","2","M_ball.wav","None","726.978648338","213","550857.353183","557756.517892","558523.412841","559290.235753","560056.61593","560823.131216","546956.72176","547723.712553","551623.990591","552390.768982","553156.752801","553923.721642","554690.223324","555456.71264","556223.66695","556990.191511","560065.95757"
"Blocked","Male","ball","2","M_gnash.wav","space","518.038499984","213","550857.353183","557756.517892","558523.412841","559290.235753","560056.61593","560823.131216","561590.135612","547723.712553","551623.990591","552390.768982","553156.752801","553923.721642","554690.223324","555456.71264","556223.66695","556990.191511","560832.27684"
"Blocked","Male","ball","2","M_jolt.wav","None","726.268170518","213","550857.353183","557756.517892","558523.412841","559290.235753","560056.61593","560823.131216","561590.135612","562356.575151","551623.990591","552390.768982","553156.752801","553923.721642","554690.223324","555456.71264","556223.66695","556990.191511","561600.20597"
"Blocked","Male","tile","15","M_knife.wav","None","727.972018649","213","565490.34656","557756.517892","558523.412841","559290.235753","560056.61593","560823.131216","561590.135612","562356.575151","551623.990591","552390.768982","553156.752801","553923.721642","554690.223324","555456.71264","556223.66695","556990.191511","562365.886182"
"Blocked","Male","tile","15","M_cling.wav","None","722.486066399","213","565490.34656","557756.517892","558523.412841","559290.235753","560056.61593","560823.131216","561590.135612","562356.575151","566256.988297","552390.768982","553156.752801","553923.721642","554690.223324","555456.71264","556223.66695","556990.191511","565500.191223"
"Blocked","Male","tile","15","M_tile.wav","None","723.717499408","213","565490.34656","557756.517892","558523.412841","559290.235753","560056.61593","560823.131216","561590.135612","562356.575151","566256.988297","567023.359818","553156.752801","553923.721642","554690.223324","555456.71264","556223.66695","556990.191511","566266.412177"
"Blocked","Male","tile","15","M_ball.wav","None","724.10118219","213","565490.34656","557756.517892","558523.412841","559290.235753","560056.61593","560823.131216","561590.135612","562356.575151","566256.988297","567023.359818","567789.693001","553923.721642","554690.223324","555456.71264","556223.66695","556990.191511","567033.381945"
"Blocked","Male","tile","15","M_priest.wav","None","726.186239859","213","565490.34656","557756.517892","558523.412841","559290.235753","560056.61593","560823.131216","561590.135612","562356.575151","566256.988297","567023.359818","567789.693001","568556.623196","554690.223324","555456.71264","556223.66695","556990.191511","567798.769062"
"Blocked","Male","tile","15","M_bluff.wav","space","96.2527396623","213","565490.34656","557756.517892","558523.412841","559290.235753","560056.61593","560823.131216","561590.135612","562356.575151","566256.988297","567023.359818","567789.693001","568556.623196","569323.30358","555456.71264","556223.66695","556990.191511","568565.956178"
"Blocked","Male","tile","15","M_cad.wav","None","725.696510985","213","565490.34656","557756.517892","558523.412841","559290.235753","560056.61593","560823.131216","561590.135612","562356.575151","566256.988297","567023.359818","567789.693001","568556.623196","569323.30358","570090.00746","556223.66695","556990.191511","569332.63347"
"Blocked","Male","tile","15","M_tile.wav","None","725.793900201","213","565490.34656","557756.517892","558523.412841","559290.235753","560056.61593","560823.131216","561590.135612","562356.575151","566256.988297","567023.359818","567789.693001","568556.623196","569323.30358","570090.00746","570856.400623","556990.191511","570099.80822"
"Blocked","Male","tile","15","M_jaw.wav","space","340.890224441","213","565490.34656","557756.517892","558523.412841","559290.235753","560056.61593","560823.131216","561590.135612","562356.575151","566256.988297","567023.359818","567789.693001","568556.623196","569323.30358","570090.00746","570856.400623","571623.036177","570865.278504"
"Blocked","Male","tile","15","M_done.wav","None","726.503450423","213","565490.34656","572389.564757","558523.412841","559290.235753","560056.61593","560823.131216","561590.135612","562356.575151","566256.988297","567023.359818","567789.693001","568556.623196","569323.30358","570090.00746","570856.400623","571623.036177","571632.706466"
"Blocked","Male","tile","15","M_jolt.wav","None","728.148246882","213","565490.34656","572389.564757","573156.191344","559290.235753","560056.61593","560823.131216","561590.135612","562356.575151","566256.988297","567023.359818","567789.693001","568556.623196","569323.30358","570090.00746","570856.400623","571623.036177","572398.427797"
"Blocked","Male","tile","15","M_priest.wav","None","728.853777866","213","565490.34656","572389.564757","573156.191344","573923.257884","560056.61593","560823.131216","561590.135612","562356.575151","566256.988297","567023.359818","567789.693001","568556.623196","569323.30358","570090.00746","570856.400623","571623.036177","573165.310998"
"Blocked","Male","tile","15","M_tile.wav","None","728.463293402","213","565490.34656","572389.564757","573156.191344","573923.257884","574689.836859","560823.131216","561590.135612","562356.575151","566256.988297","567023.359818","567789.693001","568556.623196","569323.30358","570090.00746","570856.400623","571623.036177","573933.100073"
"Blocked","Male","tile","15","M_reek.wav","space","466.788872145","213","565490.34656","572389.564757","573156.191344","573923.257884","574689.836859","575456.336377","561590.135612","562356.575151","566256.988297","567023.359818","567789.693001","568556.623196","569323.30358","570090.00746","570856.400623","571623.036177","574699.263521"
"Blocked","Male","tile","15","M_tile.wav","None","729.705238249","213","565490.34656","572389.564757","573156.191344","573923.257884","574689.836859","575456.336377","576223.130227","562356.575151","566256.988297","567023.359818","567789.693001","568556.623196","569323.30358","570090.00746","570856.400623","571623.036177","575465.503334"
"Blocked","Male","tile","15","M_park.wav","space","549.703611992","213","565490.34656","572389.564757","573156.191344","573923.257884","574689.836859","575456.336377","576223.130227","576989.238642","566256.988297","567023.359818","567789.693001","568556.623196","569323.30358","570090.00746","570856.400623","571623.036177","576232.302749"
"Blocked","Male","tile","18","M_cave.wav","None","730.040380964","213","580123.318296","572389.564757","573156.191344","573923.257884","574689.836859","575456.336377","576223.130227","576989.238642","566256.988297","567023.359818","567789.693001","568556.623196","569323.30358","570090.00746","570856.400623","571623.036177","576998.493404"
"Blocked","Male","tile","18","M_tile.wav","None","723.31773967","213","580123.318296","572389.564757","573156.191344","573923.257884","574689.836859","575456.336377","576223.130227","576989.238642","580889.633238","567023.359818","567789.693001","568556.623196","569323.30358","570090.00746","570856.400623","571623.036177","580133.031561"
"Blocked","Male","tile","18","M_ball.wav","space","378.791958909","213","580123.318296","572389.564757","573156.191344","573923.257884","574689.836859","575456.336377","576223.130227","576989.238642","580889.633238","581656.660204","567789.693001","568556.623196","569323.30358","570090.00746","570856.400623","571623.036177","580899.172439"
"Blocked","Male","tile","18","M_lash.wav","None","723.527667578","213","580123.318296","572389.564757","573156.191344","573923.257884","574689.836859","575456.336377","576223.130227","576989.238642","580889.633238","581656.660204","582422.930625","568556.623196","569323.30358","570090.00746","570856.400623","571623.036177","581666.456326"
"Blocked","Male","tile","18","M_tile.wav","None","724.909049226","213","580123.318296","572389.564757","573156.191344","573923.257884","574689.836859","575456.336377","576223.130227","576989.238642","580889.633238","581656.660204","582422.930625","583189.603589","569323.30358","570090.00746","570856.400623","571623.036177","582432.637088"
"Blocked","Male","tile","18","M_cling.wav","space","510.681437328","213","580123.318296","572389.564757","573156.191344","573923.257884","574689.836859","575456.336377","576223.130227","576989.238642","580889.633238","581656.660204","582422.930625","583189.603589","583956.083629","570090.00746","570856.400623","571623.036177","583199.177416"
"Blocked","Male","tile","18","M_romp.wav","None","725.761746289","213","580123.318296","572389.564757","573156.191344","573923.257884","574689.836859","575456.336377","576223.130227","576989.238642","580889.633238","581656.660204","582422.930625","583189.603589","583956.083629","584723.084005","570856.400623","571623.036177","583965.496068"
"Blocked","Male","tile","18","M_reek.wav","None","726.206026855","213","580123.318296","572389.564757","573156.191344","573923.257884","574689.836859","575456.336377","576223.130227","576989.238642","580889.633238","581656.660204","582422.930625","583189.603589","583956.083629","584723.084005","585489.492008","571623.036177","584732.48346"
"Blocked","Male","tile","18","M_cad.wav","None","727.278545382","213","580123.318296","572389.564757","573156.191344","573923.257884","574689.836859","575456.336377","576223.130227","576989.238642","580889.633238","581656.660204","582422.930625","583189.603589","583956.083629","584723.084005","585489.492008","586256.064491","585498.969683"
"Blocked","Male","tile","18","M_jolt.wav","None","728.270060732","213","580123.318296","587022.566791","573156.191344","573923.257884","574689.836859","575456.336377","576223.130227","576989.238642","580889.633238","581656.660204","582422.930625","583189.603589","583956.083629","584723.084005","585489.492008","586256.064491","586265.493008"
"Blocked","Male","tile","18","M_tile.wav","None","729.408123763","213","580123.318296","587022.566791","587789.586646","573923.257884","574689.836859","575456.336377","576223.130227","576989.238642","580889.633238","581656.660204","582422.930625","583189.603589","583956.083629","584723.084005","585489.492008","586256.064491","587031.856799"
"Blocked","Male","tile","18","M_reek.wav","space","462.500653113","213","580123.318296","587022.566791","587789.586646","588556.025875","574689.836859","575456.336377","576223.130227","576989.238642","580889.633238","581656.660204","582422.930625","583189.603589","583956.083629","584723.084005","585489.492008","586256.064491","587799.297128"
"Blocked","Male","tile","18","M_gnash.wav","None","729.748213198","213","580123.318296","587022.566791","587789.586646","588556.025875","589322.758509","575456.336377","576223.130227","576989.238642","580889.633238","581656.660204","582422.930625","583189.603589","583956.083629","584723.084005","585489.492008","586256.064491","588565.426257"
"Blocked","Male","tile","18","M_tile.wav","None","730.100669549","213","580123.318296","587022.566791","587789.586646","588556.025875","589322.758509","590089.50722","576223.130227","576989.238642","580889.633238","581656.660204","582422.930625","583189.603589","583956.083629","584723.084005","585489.492008","586256.064491","589332.716329"
"Blocked","Male","tile","18","M_ball.wav","space","546.732157585","213","580123.318296","587022.566791","587789.586646","588556.025875","589322.758509","590089.50722","590855.953251","576989.238642","580889.633238","581656.660204","582422.930625","583189.603589","583956.083629","584723.084005","585489.492008","586256.064491","590098.967581"
"Blocked","Male","tile","18","M_cad.wav","None","731.286654365","213","580123.318296","587022.566791","587789.586646","588556.025875","589322.758509","590089.50722","590855.953251","591622.47843","580889.633238","581656.660204","582422.930625","583189.603589","583956.083629","584723.084005","585489.492008","586256.064491","590865.022509"
"Blocked","Male","cave","10","M_greet.wav","None","732.30321263","213","594756.386494","587022.566791","587789.586646","588556.025875","589322.758509","590089.50722","590855.953251","591622.47843","580889.633238","581656.660204","582422.930625","583189.603589","583956.083629","584723.084005","585489.492008","586256.064491","591631.563456"
"Blocked","Male","cave","10","M_cave.wav","None","722.754737013","213","594756.386494","587022.566791","587789.586646","588556.025875","589322.758509","590089.50722","590855.953251","591622.47843","595523.129021","581656.660204","582422.930625","583189.603589","583956.083629","584723.084005","585489.492008","586256.064491","594766.176742"
"Blocked","Male","cave","10","M_romp.wav","space","368.897210341","213","594756.386494","587022.566791","587789.586646","588556.025875","589322.758509","590089.50722","590855.953251","591622.47843","595523.129021","596290.049941","582422.930625","583189.603589","583956.083629","584723.084005","585489.492008","586256.064491","595532.715216"
"Blocked","Male","cave","10","M_cave.wav","None","722.757828771","213","594756.386494","587022.566791","587789.586646","588556.025875","589322.758509","590089.50722","590855.953251","591622.47843","595523.129021","596290.049941","597055.885047","583189.603589","583956.083629","584723.084005","585489.492008","586256.064491","596299.691477"
"Blocked","Male","cave","10","M_ball.wav","space","460.243695765","213","594756.386494","587022.566791","587789.586646","588556.025875","589322.758509","590089.50722","590855.953251","591622.47843","595523.129021","596290.049941","597055.885047","597822.375599","583956.083629","584723.084005","585489.492008","586256.064491","597065.338298"
"Blocked","Male","cave","10","M_lash.wav","None","724.701594678","213","594756.386494","587022.566791","587789.586646","588556.025875","589322.758509","590089.50722","590855.953251","591622.47843","595523.129021","596290.049941","597055.885047","597822.375599","598589.368247","584723.084005","585489.492008","586256.064491","597831.656022"
"Blocked","Male","cave","10","M_lash.wav","None","725.311900722","213","594756.386494","587022.566791","587789.586646","588556.025875","589322.758509","590089.50722","590855.953251","591622.47843","595523.129021","596290.049941","597055.885047","597822.375599","598589.368247","599355.844267","585489.492008","586256.064491","598598.499958"
"Blocked","Male","cave","10","M_park.wav","None","726.408843766","213","594756.386494","587022.566791","587789.586646","588556.025875","589322.758509","590089.50722","590855.953251","591622.47843","595523.129021","596290.049941","597055.885047","597822.375599","598589.368247","599355.844267","600122.565771","586256.064491","599364.934241"
"Blocked","Male","cave","10","M_depth.wav","None","727.078201715","213","594756.386494","587022.566791","587789.586646","588556.025875","589322.758509","590089.50722","590855.953251","591622.47843","595523.129021","596290.049941","597055.885047","597822.375599","598589.368247","599355.844267","600122.565771","600889.234406","600131.654198"
"Blocked","Male","cave","10","M_greet.wav","None","727.451990941","213","594756.386494","601655.592941","587789.586646","588556.025875","589322.758509","590089.50722","590855.953251","591622.47843","595523.129021","596290.049941","597055.885047","597822.375599","598589.368247","599355.844267","600122.565771","600889.234406","600898.761549"
"Blocked","Male","cave","10","M_park.wav","None","729.120284435","213","594756.386494","601655.592941","602422.683596","588556.025875","589322.758509","590089.50722","590855.953251","591622.47843","595523.129021","596290.049941","597055.885047","597822.375599","598589.368247","599355.844267","600122.565771","600889.234406","601664.715687"
"Blocked","Male","cave","10","M_cave.wav","None","729.657934979","213","594756.386494","601655.592941","602422.683596","603189.181259","589322.758509","590089.50722","590855.953251","591622.47843","595523.129021","596290.049941","597055.885047","597822.375599","598589.368247","599355.844267","600122.565771","600889.234406","602431.65763"
"Blocked","Male","cave","10","M_lash.wav","space","438.787760446","213","594756.386494","601655.592941","602422.683596","603189.181259","603955.68727","590089.50722","590855.953251","591622.47843","595523.129021","596290.049941","597055.885047","597822.375599","598589.368247","599355.844267","600122.565771","600889.234406","603198.674702"
"Blocked","Male","cave","10","M_cave.wav","None","730.211353279","213","594756.386494","601655.592941","602422.683596","603189.181259","603955.68727","604722.388677","590855.953251","591622.47843","595523.129021","596290.049941","597055.885047","597822.375599","598589.368247","599355.844267","600122.565771","600889.234406","603964.63255"
"Blocked","Male","cave","10","M_bluff.wav","space","657.43931802","213","594756.386494","601655.592941","602422.683596","603189.181259","603955.68727","604722.388677","605489.175725","591622.47843","595523.129021","596290.049941","597055.885047","597822.375599","598589.368247","599355.844267","600122.565771","600889.234406","604731.963432"
"Blocked","Male","cave","10","M_romp.wav","None","729.804482544","213","594756.386494","601655.592941","602422.683596","603189.181259","603955.68727","604722.388677","605489.175725","606255.459441","595523.129021","596290.049941","597055.885047","597822.375599","598589.368247","599355.844267","600122.565771","600889.234406","605498.604551"
"Blocked","Male","done","21","M_depth.wav","None","731.490398757","213","609389.391002","601655.592941","602422.683596","603189.181259","603955.68727","604722.388677","605489.175725","606255.459441","595523.129021","596290.049941","597055.885047","597822.375599","598589.368247","599355.844267","600122.565771","600889.234406","606264.473048"
"Blocked","Male","done","21","M_bluff.wav","None","721.530415001","213","609389.391002","601655.592941","602422.683596","603189.181259","603955.68727","604722.388677","605489.175725","606255.459441","610155.109241","596290.049941","597055.885047","597822.375599","598589.368247","599355.844267","600122.565771","600889.234406","609399.981388"
"Blocked","Male","done","21","M_done.wav","None","728.777103126","213","609389.391002","601655.592941","602422.683596","603189.181259","603955.68727","604722.388677","605489.175725","606255.459441","610155.109241","610922.46022","597055.885047","597822.375599","598589.368247","599355.844267","600122.565771","600889.234406","610164.538067"
"Blocked","Male","done","21","M_cad.wav","space","489.293519757","213","609389.391002","601655.592941","602422.683596","603189.181259","603955.68727","604722.388677","605489.175725","606255.459441","610155.109241","610922.46022","611689.131328","597822.375599","598589.368247","599355.844267","600122.565771","600889.234406","610931.985507"
"Blocked","Male","done","21","M_jolt.wav","None","728.135261568","213","609389.391002","601655.592941","602422.683596","603189.181259","603955.68727","604722.388677","605489.175725","606255.459441","610155.109241","610922.46022","611689.131328","612455.47997","598589.368247","599355.844267","600122.565771","600889.234406","611698.49801"
"Blocked","Male","done","21","M_cling.wav","None","729.134197114","213","609389.391002","601655.592941","602422.683596","603189.181259","603955.68727","604722.388677","605489.175725","606255.459441","610155.109241","610922.46022","611689.131328","612455.47997","613221.994637","599355.844267","600122.565771","600889.234406","612464.973722"
"Blocked","Male","done","21","M_done.wav","None","730.313380132","213","609389.391002","601655.592941","602422.683596","603189.181259","603955.68727","604722.388677","605489.175725","606255.459441","610155.109241","610922.46022","611689.131328","612455.47997","613221.994637","613989.042936","600122.565771","600889.234406","613231.464892"
"Blocked","Male","done","21","M_reek.wav","space","478.813817375","213","609389.391002","601655.592941","602422.683596","603189.181259","603955.68727","604722.388677","605489.175725","606255.459441","610155.109241","610922.46022","611689.131328","612455.47997","613221.994637","613989.042936","614755.373336","600889.234406","613998.439608"
"Blocked","Male","done","21","M_done.wav","None","731.194520951","213","609389.391002","601655.592941","602422.683596","603189.181259","603955.68727","604722.388677","605489.175725","606255.459441","610155.109241","610922.46022","611689.131328","612455.47997","613221.994637","613989.042936","614755.373336","615522.288382","614764.262347"
"Blocked","Male","done","21","M_cave.wav","None","731.602628366","213","609389.391002","616288.876014","602422.683596","603189.181259","603955.68727","604722.388677","605489.175725","606255.459441","610155.109241","610922.46022","611689.131328","612455.47997","613221.994637","613989.042936","614755.373336","615522.288382","615531.513154"
"Blocked","Male","done","21","M_priest.wav","space","0.0346272718161","213","609389.391002","616288.876014","617055.387589","603189.181259","603955.68727","604722.388677","605489.175725","606255.459441","610155.109241","610922.46022","611689.131328","612455.47997","613221.994637","613989.042936","614755.373336","615522.288382","616298.329882"
"Blocked","Male","done","21","M_dime.wav","None","732.120182598","213","609389.391002","616288.876014","617055.387589","617822.258114","603955.68727","604722.388677","605489.175725","606255.459441","610155.109241","610922.46022","611689.131328","612455.47997","613221.994637","613989.042936","614755.373336","615522.288382","617064.434278"
"Blocked","Male","done","21","M_done.wav","None","732.6606157","213","609389.391002","616288.876014","617055.387589","617822.258114","618588.72455","604722.388677","605489.175725","606255.459441","610155.109241","610922.46022","611689.131328","612455.47997","613221.994637","613989.042936","614755.373336","615522.288382","617832.022082"
"Blocked","Male","done","21","M_jolt.wav","space","503.254192532","213","609389.391002","616288.876014","617055.387589","617822.258114","618588.72455","619355.29425","605489.175725","606255.459441","610155.109241","610922.46022","611689.131328","612455.47997","613221.994637","613989.042936","614755.373336","615522.288382","618597.875121"
"Blocked","Male","done","21","M_reek.wav","None","733.430454624","213","609389.391002","616288.876014","617055.387589","617822.258114","618588.72455","619355.29425","620121.984527","606255.459441","610155.109241","610922.46022","611689.131328","612455.47997","613221.994637","613989.042936","614755.373336","615522.288382","619364.612701"
"Blocked","Male","done","21","M_jolt.wav","None","734.411458252","213","609389.391002","616288.876014","617055.387589","617822.258114","618588.72455","619355.29425","620121.984527","620888.550208","610155.109241","610922.46022","611689.131328","612455.47997","613221.994637","613989.042936","614755.373336","615522.288382","620131.185184"
"Blocked","Male","cave","8","M_cling.wav","None","735.099984799","213","624022.569883","616288.876014","617055.387589","617822.258114","618588.72455","619355.29425","620121.984527","620888.550208","610155.109241","610922.46022","611689.131328","612455.47997","613221.994637","613989.042936","614755.373336","615522.288382","620898.210913"
"Blocked","Male","cave","8","M_reek.wav","None","723.304136191","213","624022.569883","616288.876014","617055.387589","617822.258114","618588.72455","619355.29425","620121.984527","620888.550208","624788.779706","610922.46022","611689.131328","612455.47997","613221.994637","613989.042936","614755.373336","615522.288382","624032.519046"
"Blocked","Male","cave","8","M_dime.wav","None","725.271399133","213","624022.569883","616288.876014","617055.387589","617822.258114","618588.72455","619355.29425","620121.984527","620888.550208","624788.779706","625555.263147","611689.131328","612455.47997","613221.994637","613989.042936","614755.373336","615522.288382","624798.236667"
"Blocked","Male","cave","8","M_cad.wav","None","726.699774968","213","624022.569883","616288.876014","617055.387589","617822.258114","618588.72455","619355.29425","620121.984527","620888.550208","624788.779706","625555.263147","626321.955898","612455.47997","613221.994637","613989.042936","614755.373336","615522.288382","625564.477717"
"Blocked","Male","cave","8","M_cave.wav","space","385.354449041","213","624022.569883","616288.876014","617055.387589","617822.258114","618588.72455","619355.29425","620121.984527","620888.550208","624788.779706","625555.263147","626321.955898","627088.760569","613221.994637","613989.042936","614755.373336","615522.288382","626331.609801"
"Blocked","Male","cave","8","M_knife.wav","space","594.762993162","213","624022.569883","616288.876014","617055.387589","617822.258114","618588.72455","619355.29425","620121.984527","620888.550208","624788.779706","625555.263147","626321.955898","627088.760569","627855.364896","613989.042936","614755.373336","615522.288382","627098.160332"
"Blocked","Male","cave","8","M_cave.wav","None","725.879231817","213","624022.569883","616288.876014","617055.387589","617822.258114","618588.72455","619355.29425","620121.984527","620888.550208","624788.779706","625555.263147","626321.955898","627088.760569","627855.364896","628621.972624","614755.373336","615522.288382","627864.480839"
"Blocked","Male","cave","8","M_priest.wav","space","669.835269917","213","624022.569883","616288.876014","617055.387589","617822.258114","618588.72455","619355.29425","620121.984527","620888.550208","624788.779706","625555.263147","626321.955898","627088.760569","627855.364896","628621.972624","629388.273035","615522.288382","628631.073727"
"Blocked","Male","cave","8","M_romp.wav","None","726.273117121","213","624022.569883","616288.876014","617055.387589","617822.258114","618588.72455","619355.29425","620121.984527","620888.550208","624788.779706","625555.263147","626321.955898","627088.760569","627855.364896","628621.972624","629388.273035","630155.291344","629397.602617"
"Blocked","Male","cave","8","M_lash.wav","None","726.757280878","213","624022.569883","630921.903091","617055.387589","617822.258114","618588.72455","619355.29425","620121.984527","620888.550208","624788.779706","625555.263147","626321.955898","627088.760569","627855.364896","628621.972624","629388.273035","630155.291344","630164.571458"
"Blocked","Male","cave","8","M_tile.wav","None","728.161541279","213","624022.569883","630921.903091","631688.542664","617822.258114","618588.72455","619355.29425","620121.984527","620888.550208","624788.779706","625555.263147","626321.955898","627088.760569","627855.364896","628621.972624","629388.273035","630155.291344","630930.966166"
"Blocked","Male","cave","8","M_cave.wav","None","728.897680412","213","624022.569883","630921.903091","631688.542664","632454.856369","618588.72455","619355.29425","620121.984527","620888.550208","624788.779706","625555.263147","626321.955898","627088.760569","627855.364896","628621.972624","629388.273035","630155.291344","631697.968707"
"Blocked","Male","cave","8","M_bluff.wav","space","549.222230911","213","624022.569883","630921.903091","631688.542664","632454.856369","633221.787182","619355.29425","620121.984527","620888.550208","624788.779706","625555.263147","626321.955898","627088.760569","627855.364896","628621.972624","629388.273035","630155.291344","632463.631296"
"Blocked","Male","cave","8","M_cave.wav","None","728.894588654","213","624022.569883","630921.903091","631688.542664","632454.856369","633221.787182","633988.184055","620121.984527","620888.550208","624788.779706","625555.263147","626321.955898","627088.760569","627855.364896","628621.972624","629388.273035","630155.291344","633231.456235"
"Blocked","Male","cave","8","M_cad.wav","None","731.337358477","213","624022.569883","630921.903091","631688.542664","632454.856369","633221.787182","633988.184055","634755.057671","620888.550208","624788.779706","625555.263147","626321.955898","627088.760569","627855.364896","628621.972624","629388.273035","630155.291344","633997.021435"
"Blocked","Male","cave","8","M_jaw.wav","space","0.0346272718161","213","624022.569883","630921.903091","631688.542664","632454.856369","633221.787182","633988.184055","634755.057671","635521.843792","624788.779706","625555.263147","626321.955898","627088.760569","627855.364896","628621.972624","629388.273035","630155.291344","634763.976363"
"Blocked","Male","done","19","M_bluff.wav","None","730.96140509","213","638655.381468","630921.903091","631688.542664","632454.856369","633221.787182","633988.184055","634755.057671","635521.843792","624788.779706","625555.263147","626321.955898","627088.760569","627855.364896","628621.972624","629388.273035","630155.291344","635531.049705"
"Blocked","Male","done","19","M_tile.wav","None","723.007330787","213","638655.381468","630921.903091","631688.542664","632454.856369","633221.787182","633988.184055","634755.057671","635521.843792","639421.727327","625555.263147","626321.955898","627088.760569","627855.364896","628621.972624","629388.273035","630155.291344","638664.909538"
"Blocked","Male","done","19","M_cad.wav","None","724.976758007","213","638655.381468","630921.903091","631688.542664","632454.856369","633221.787182","633988.184055","634755.057671","635521.843792","639421.727327","640188.149552","626321.955898","627088.760569","627855.364896","628621.972624","629388.273035","630155.291344","639430.797204"
"Blocked","Male","done","19","M_done.wav","None","726.302797673","213","638655.381468","630921.903091","631688.542664","632454.856369","633221.787182","633988.184055","634755.057671","635521.843792","639421.727327","640188.149552","640955.056868","627088.760569","627855.364896","628621.972624","629388.273035","630155.291344","640197.482534"
"Blocked","Male","done","19","M_priest.wav","space","600.176599226","213","638655.381468","630921.903091","631688.542664","632454.856369","633221.787182","633988.184055","634755.057671","635521.843792","639421.727327","640188.149552","640955.056868","641721.390978","627855.364896","628621.972624","629388.273035","630155.291344","640964.533924"
"Blocked","Male","done","19","M_done.wav","None","730.219391757","213","638655.381468","630921.903091","631688.542664","632454.856369","633221.787182","633988.184055","634755.057671","635521.843792","639421.727327","640188.149552","640955.056868","641721.390978","642488.400012","628621.972624","629388.273035","630155.291344","641730.296376"
"Blocked","Male","done","19","M_cave.wav","space","560.39015064","213","638655.381468","630921.903091","631688.542664","632454.856369","633221.787182","633988.184055","634755.057671","635521.843792","639421.727327","640188.149552","640955.056868","641721.390978","642488.400012","643254.886235","629388.273035","630155.291344","642492.256008"
