"Condition","Talker","Target","Trial","current_stimulus","response_response","response_time_response","subject_nr","time_Audio1","time_Audio10","time_Audio11","time_Audio12","time_Audio13","time_Audio14","time_Audio15","time_Audio16","time_Audio2","time_Audio3","time_Audio4","time_Audio5","time_Audio6","time_Audio7","time_Audio8","time_Audio9","time_response","title"
"Blocked","Male","done","19","M_priest.wav","NA","NA","205","88892.4204493","NA","NA","NA","NA","NA","NA","NA","NA","NA","NA","NA","NA","NA","NA","NA","NA","Mapping"
"Blocked","Male","done","19","M_tile.wav","None","715.800785925","205","88892.4204493","NA","NA","NA","NA","NA","NA","NA","89642.9625037","NA","NA","NA","NA","NA","NA","NA","88907.0825884","Mapping"
"Blocked","Male","done","19","M_done.wav","None","734.747730196","205","88892.4204493","NA","NA","NA","NA","NA","NA","NA","89642.9625037","90410.1843494","NA","NA","NA","NA","NA","NA","89652.6250341","Mapping"
"Blocked","Male","done","19","M_jaw.wav","space","644.181566313","205","88892.4204493","NA","NA","NA","NA","NA","NA","NA","89642.9625037","90410.1843494","91177.5174965","NA","NA","NA","NA","NA","90419.7414522","Mapping"
"Blocked","Male","done","19","M_greet.wav","None","729.403704405","205","88892.4204493","NA","NA","NA","NA","NA","NA","NA","89642.9625037","90410.1843494","91177.5174965","91944.4579962","NA","NA","NA","NA","91187.4471507","Mapping"
"Blocked","Male","done","19","M_done.wav","None","727.61514876","205","88892.4204493","NA","NA","NA","NA","NA","NA","NA","89642.9625037","90410.1843494","91177.5174965","91944.4579962","92711.9318163","NA","NA","NA","91953.825268","Mapping"
"Blocked","Male","done","19","M_romp.wav","space","518.261974677","205","88892.4204493","NA","NA","NA","NA","NA","NA","NA","89642.9625037","90410.1843494","91177.5174965","91944.4579962","92711.9318163","93478.8815915","NA","NA","92721.5708499","Mapping"
"Blocked","Male","done","19","M_done.wav","None","721.847558394","205","88892.4204493","NA","NA","NA","NA","NA","NA","NA","89642.9625037","90410.1843494","91177.5174965","91944.4579962","92711.9318163","93478.8815915","94229.4465243","NA","93488.4053036","Mapping"
"Blocked","Male","done","19","M_ball.wav","space","472.661065403","205","88892.4204493","NA","NA","NA","NA","NA","NA","NA","89642.9625037","90410.1843494","91177.5174965","91944.4579962","92711.9318163","93478.8815915","94229.4465243","94996.8479984","94239.0867942","Mapping"
"Blocked","Male","done","19","M_greet.wav","None","733.063983265","205","88892.4204493","95764.3091427","NA","NA","NA","NA","NA","NA","89642.9625037","90410.1843494","91177.5174965","91944.4579962","92711.9318163","93478.8815915","94229.4465243","94996.8479984","95006.1797155","Mapping"
"Blocked","Male","done","19","M_lash.wav","None","729.591371026","205","88892.4204493","95764.3091427","96531.6119911","NA","NA","NA","NA","NA","89642.9625037","90410.1843494","91177.5174965","91944.4579962","92711.9318163","93478.8815915","94229.4465243","94996.8479984","95774.2573475","Mapping"
"Blocked","Male","done","19","M_priest.wav","None","727.095431648","205","88892.4204493","95764.3091427","96531.6119911","97298.3196848","NA","NA","NA","NA","89642.9625037","90410.1843494","91177.5174965","91944.4579962","92711.9318163","93478.8815915","94229.4465243","94996.8479984","96541.2259814","Mapping"
"Blocked","Male","done","19","M_jaw.wav","None","724.986574147","205","88892.4204493","95764.3091427","96531.6119911","97298.3196848","98065.816693","NA","NA","NA","89642.9625037","90410.1843494","91177.5174965","91944.4579962","92711.9318163","93478.8815915","94229.4465243","94996.8479984","97307.9602639","Mapping"
"Blocked","Male","done","19","M_done.wav","None","722.327082884","205","88892.4204493","95764.3091427","96531.6119911","97298.3196848","98065.816693","98833.1782836","NA","NA","89642.9625037","90410.1843494","91177.5174965","91944.4579962","92711.9318163","93478.8815915","94229.4465243","94996.8479984","98075.2822808","Mapping"
"Blocked","Male","done","19","M_lash.wav","space","404.98068789","205","88892.4204493","95764.3091427","96531.6119911","97298.3196848","98065.816693","98833.1782836","99583.6999333","NA","89642.9625037","90410.1843494","91177.5174965","91944.4579962","92711.9318163","93478.8815915","94229.4465243","94996.8479984","98842.74157","Mapping"
"Blocked","Male","done","19","M_jolt.wav","None","733.552782796","205","88892.4204493","95764.3091427","96531.6119911","97298.3196848","98065.816693","98833.1782836","99583.6999333","100350.781415","89642.9625037","90410.1843494","91177.5174965","91944.4579962","92711.9318163","93478.8815915","94229.4465243","94996.8479984","99593.2830065","Mapping"
"Blocked","Male","done","21","M_gnash.wav","None","730.998409912","205","103553.046837","95764.3091427","96531.6119911","97298.3196848","98065.816693","98833.1782836","99583.6999333","100350.781415","89642.9625037","90410.1843494","91177.5174965","91944.4579962","92711.9318163","93478.8815915","94229.4465243","94996.8479984","100360.500214","Mapping"
"Blocked","Male","done","21","M_romp.wav","None","720.576245803","205","103553.046837","95764.3091427","96531.6119911","97298.3196848","98065.816693","98833.1782836","99583.6999333","100350.781415","104303.314347","90410.1843494","91177.5174965","91944.4579962","92711.9318163","93478.8815915","94229.4465243","94996.8479984","103563.231866","Mapping"
"Blocked","Male","done","21","M_greet.wav","None","735.815917142","205","103553.046837","95764.3091427","96531.6119911","97298.3196848","98065.816693","98833.1782836","99583.6999333","100350.781415","104303.314347","105070.769308","91177.5174965","91944.4579962","92711.9318163","93478.8815915","94229.4465243","94996.8479984","104312.929574","Mapping"
"Blocked","Male","done","21","M_greet.wav","None","733.810322825","205","103553.046837","95764.3091427","96531.6119911","97298.3196848","98065.816693","98833.1782836","99583.6999333","100350.781415","104303.314347","105070.769308","105838.259514","91944.4579962","92711.9318163","93478.8815915","94229.4465243","94996.8479984","105079.839775","Mapping"
"Blocked","Male","done","21","M_done.wav","None","731.216684915","205","103553.046837","95764.3091427","96531.6119911","97298.3196848","98065.816693","98833.1782836","99583.6999333","100350.781415","104303.314347","105070.769308","105838.259514","106605.610902","92711.9318163","93478.8815915","94229.4465243","94996.8479984","105847.402018","Mapping"
"Blocked","Male","done","21","M_cave.wav","space","392.448429484","205","103553.046837","95764.3091427","96531.6119911","97298.3196848","98065.816693","98833.1782836","99583.6999333","100350.781415","104303.314347","105070.769308","105838.259514","106605.610902","107373.177783","93478.8815915","94229.4465243","94996.8479984","106615.044645","Mapping"
"Blocked","Male","done","21","M_romp.wav","None","725.538135506","205","103553.046837","95764.3091427","96531.6119911","97298.3196848","98065.816693","98833.1782836","99583.6999333","100350.781415","104303.314347","105070.769308","105838.259514","106605.610902","107373.177783","108139.91763","94229.4465243","94996.8479984","107382.145606","Mapping"
"Blocked","Male","done","21","M_priest.wav","None","722.242061049","205","103553.046837","95764.3091427","96531.6119911","97298.3196848","98065.816693","98833.1782836","99583.6999333","100350.781415","104303.314347","105070.769308","105838.259514","106605.610902","107373.177783","108139.91763","108907.094337","94996.8479984","108150.102042","Mapping"
"Blocked","Male","done","21","M_done.wav","None","720.673325472","205","103553.046837","95764.3091427","96531.6119911","97298.3196848","98065.816693","98833.1782836","99583.6999333","100350.781415","104303.314347","105070.769308","105838.259514","106605.610902","107373.177783","108139.91763","108907.094337","109657.287647","108916.22602","Mapping"
"Blocked","Male","done","21","M_bluff.wav","space","475.405578502","205","103553.046837","110424.90956","96531.6119911","97298.3196848","98065.816693","98833.1782836","99583.6999333","100350.781415","104303.314347","105070.769308","105838.259514","106605.610902","107373.177783","108139.91763","108907.094337","109657.287647","109667.054367","Mapping"
"Blocked","Male","done","21","M_dime.wav","None","730.947087519","205","103553.046837","110424.90956","111192.081319","97298.3196848","98065.816693","98833.1782836","99583.6999333","100350.781415","104303.314347","105070.769308","105838.259514","106605.610902","107373.177783","108139.91763","108907.094337","109657.287647","110434.954226","Mapping"
"Blocked","Male","done","21","M_done.wav","None","729.196559638","205","103553.046837","110424.90956","111192.081319","111959.467644","98065.816693","98833.1782836","99583.6999333","100350.781415","104303.314347","105070.769308","105838.259514","106605.610902","107373.177783","108139.91763","108907.094337","109657.287647","111201.40407","Mapping"
"Blocked","Male","done","21","M_reek.wav","space","470.769864041","205","103553.046837","110424.90956","111192.081319","111959.467644","112726.432878","98833.1782836","99583.6999333","100350.781415","104303.314347","105070.769308","105838.259514","106605.610902","107373.177783","108139.91763","108907.094337","109657.287647","111968.656215","Mapping"
"Blocked","Male","done","21","M_reek.wav","None","724.048239645","205","103553.046837","110424.90956","111192.081319","111959.467644","112726.432878","113493.958639","99583.6999333","100350.781415","104303.314347","105070.769308","105838.259514","106605.610902","107373.177783","108139.91763","108907.094337","109657.287647","112735.59826","Mapping"
"Blocked","Male","done","21","M_done.wav","None","720.999192446","205","103553.046837","110424.90956","111192.081319","111959.467644","112726.432878","113493.958639","114244.372387","100350.781415","104303.314347","105070.769308","105838.259514","106605.610902","107373.177783","108139.91763","108907.094337","109657.287647","113503.263457","Mapping"
"Blocked","Male","done","21","M_dime.wav","space","553.218735848","205","103553.046837","110424.90956","111192.081319","111959.467644","112726.432878","113493.958639","114244.372387","115011.40131","104303.314347","105070.769308","105838.259514","106605.610902","107373.177783","108139.91763","108907.094337","109657.287647","114254.079747","Mapping"
"Blocked","Male","cave","11","M_cling.wav","None","732.70874517","205","118147.364639","110424.90956","111192.081319","111959.467644","112726.432878","113493.958639","114244.372387","115011.40131","104303.314347","105070.769308","105838.259514","106605.610902","107373.177783","108139.91763","108907.094337","109657.287647","115020.65326","Mapping"
"Blocked","Male","cave","11","M_cave.wav","None","720.403728075","205","118147.364639","110424.90956","111192.081319","111959.467644","112726.432878","113493.958639","114244.372387","115011.40131","118897.517447","105070.769308","105838.259514","106605.610902","107373.177783","108139.91763","108907.094337","109657.287647","118156.842285","Mapping"
"Blocked","Male","cave","11","M_romp.wav","space","476.086373907","205","118147.364639","110424.90956","111192.081319","111959.467644","112726.432878","113493.958639","114244.372387","115011.40131","118897.517447","119665.361036","105838.259514","106605.610902","107373.177783","108139.91763","108907.094337","109657.287647","118907.118761","Mapping"
"Blocked","Male","cave","11","M_cad.wav","None","735.778197646","205","118147.364639","110424.90956","111192.081319","111959.467644","112726.432878","113493.958639","114244.372387","115011.40131","118897.517447","119665.361036","120432.257943","106605.610902","107373.177783","108139.91763","108907.094337","109657.287647","119670.334366","Mapping"
"Blocked","Male","cave","11","M_cave.wav","None","729.30044122","205","118147.364639","110424.90956","111192.081319","111959.467644","112726.432878","113493.958639","114244.372387","115011.40131","118897.517447","119665.361036","120432.257943","121199.963332","107373.177783","108139.91763","108907.094337","109657.287647","120441.493507","Mapping"
"Blocked","Male","cave","11","M_gnash.wav","space","501.298055518","205","118147.364639","110424.90956","111192.081319","111959.467644","112726.432878","113493.958639","114244.372387","115011.40131","118897.517447","119665.361036","120432.257943","121199.963332","121966.782946","108139.91763","108907.094337","109657.287647","121209.821568","Mapping"
"Blocked","Male","cave","11","M_bluff.wav","None","723.275929689","205","118147.364639","110424.90956","111192.081319","111959.467644","112726.432878","113493.958639","114244.372387","115011.40131","118897.517447","119665.361036","120432.257943","121199.963332","121966.782946","122733.831964","108907.094337","109657.287647","121976.237713","Mapping"
"Blocked","Male","cave","11","M_cling.wav","None","721.139246598","205","118147.364639","110424.90956","111192.081319","111959.467644","112726.432878","113493.958639","114244.372387","115011.40131","118897.517447","119665.361036","120432.257943","121199.963332","121966.782946","122733.831964","123484.386386","109657.287647","122743.010333","Mapping"
"Blocked","Male","cave","11","M_romp.wav","None","735.032167751","205","118147.364639","110424.90956","111192.081319","111959.467644","112726.432878","113493.958639","114244.372387","115011.40131","118897.517447","119665.361036","120432.257943","121199.963332","121966.782946","122733.831964","123484.386386","124251.746431","123493.855375","Mapping"
"Blocked","Male","cave","11","M_cave.wav","None","732.204177883","205","118147.364639","125019.085452","111192.081319","111959.467644","112726.432878","113493.958639","114244.372387","115011.40131","118897.517447","119665.361036","120432.257943","121199.963332","121966.782946","122733.831964","123484.386386","124251.746431","124261.266434","Mapping"
"Blocked","Male","cave","11","M_priest.wav","space","506.55520428","205","118147.364639","125019.085452","125786.182702","111959.467644","112726.432878","113493.958639","114244.372387","115011.40131","118897.517447","119665.361036","120432.257943","121199.963332","121966.782946","122733.831964","123484.386386","124251.746431","125028.551968","Mapping"
"Blocked","Male","cave","11","M_depth.wav","None","726.958469022","205","118147.364639","125019.085452","125786.182702","126553.618185","112726.432878","113493.958639","114244.372387","115011.40131","118897.517447","119665.361036","120432.257943","121199.963332","121966.782946","122733.831964","123484.386386","124251.746431","125795.42445","Mapping"
"Blocked","Male","cave","11","M_cling.wav","None","724.171289708","205","118147.364639","125019.085452","125786.182702","126553.618185","127320.767375","113493.958639","114244.372387","115011.40131","118897.517447","119665.361036","120432.257943","121199.963332","121966.782946","122733.831964","123484.386386","124251.746431","126562.881575","Mapping"
"Blocked","Male","cave","11","M_done.wav","None","721.36617871","205","118147.364639","125019.085452","125786.182702","126553.618185","127320.767375","128071.043543","114244.372387","115011.40131","118897.517447","119665.361036","120432.257943","121199.963332","121966.782946","122733.831964","123484.386386","124251.746431","127330.392496","Mapping"
"Blocked","Male","cave","11","M_cave.wav","None","736.026462633","205","118147.364639","125019.085452","125786.182702","126553.618185","127320.767375","128071.043543","128838.413481","115011.40131","118897.517447","119665.361036","120432.257943","121199.963332","121966.782946","122733.831964","123484.386386","124251.746431","128080.318681","Mapping"
"Blocked","Male","cave","11","M_jolt.wav","space","407.237947453","205","118147.364639","125019.085452","125786.182702","126553.618185","127320.767375","128071.043543","128838.413481","129605.601318","118897.517447","119665.361036","120432.257943","121199.963332","121966.782946","122733.831964","123484.386386","124251.746431","128847.747053","Mapping"
"Blocked","Male","ball","3","M_priest.wav","None","729.559835512","205","132741.56001","125019.085452","125786.182702","126553.618185","127320.767375","128071.043543","128838.413481","129605.601318","118897.517447","119665.361036","120432.257943","121199.963332","121966.782946","122733.831964","123484.386386","124251.746431","129615.572711","Mapping"
"Blocked","Male","ball","3","M_priest.wav","None","720.647664275","205","132741.56001","125019.085452","125786.182702","126553.618185","127320.767375","128071.043543","128838.413481","129605.601318","133491.538136","119665.361036","120432.257943","121199.963332","121966.782946","122733.831964","123484.386386","124251.746431","132750.997464","Mapping"
"Blocked","Male","ball","3","M_done.wav","None","735.591767821","205","132741.56001","125019.085452","125786.182702","126553.618185","127320.767375","128071.043543","128838.413481","129605.601318","133491.538136","134258.983204","120432.257943","121199.963332","121966.782946","122733.831964","123484.386386","124251.746431","133500.588817","Mapping"
"Blocked","Male","ball","3","M_ball.wav","None","732.60269966","205","132741.56001","125019.085452","125786.182702","126553.618185","127320.767375","128071.043543","128838.413481","129605.601318","133491.538136","134258.983204","135026.504327","121199.963332","121966.782946","122733.831964","123484.386386","124251.746431","134268.69551","Mapping"
"Blocked","Male","ball","3","M_jaw.wav","space","317.407610826","205","132741.56001","125019.085452","125786.182702","126553.618185","127320.767375","128071.043543","128838.413481","129605.601318","133491.538136","134258.983204","135026.504327","135793.839329","121966.782946","122733.831964","123484.386386","124251.746431","135065.416625","Mapping"
"Blocked","Male","ball","3","M_ball.wav","None","726.974236779","205","132741.56001","125019.085452","125786.182702","126553.618185","127320.767375","128071.043543","128838.413481","129605.601318","133491.538136","134258.983204","135026.504327","135793.839329","136560.850938","122733.831964","123484.386386","124251.746431","135803.733738","Mapping"
"Blocked","Male","ball","3","M_tile.wav","space","372.280877084","205","132741.56001","125019.085452","125786.182702","126553.618185","127320.767375","128071.043543","128838.413481","129605.601318","133491.538136","134258.983204","135026.504327","135793.839329","136560.850938","137328.071547","123484.386386","124251.746431","136570.51285","Mapping"
"Blocked","Male","ball","3","M_tile.wav","None","690.434209537","205","132741.56001","125019.085452","125786.182702","126553.618185","127320.767375","128071.043543","128838.413481","129605.601318","133491.538136","134258.983204","135026.504327","135793.839329","136560.850938","137328.071547","138095.402221","124251.746431","137369.467109","Mapping"
"Blocked","Male","ball","3","M_romp.wav","None","719.900397118","205","132741.56001","125019.085452","125786.182702","126553.618185","127320.767375","128071.043543","128838.413481","129605.601318","133491.538136","134258.983204","135026.504327","135793.839329","136560.850938","137328.071547","138095.402221","138845.414665","138104.724972","Mapping"
"Blocked","Male","ball","3","M_ball.wav","None","737.52130568","205","132741.56001","139613.172304","125786.182702","126553.618185","127320.767375","128071.043543","128838.413481","129605.601318","133491.538136","134258.983204","135026.504327","135793.839329","136560.850938","137328.071547","138095.402221","138845.414665","138854.152773","Mapping"
"Blocked","Male","ball","3","M_depth.wav","space","408.257285133","205","132741.56001","139613.172304","140380.765465","126553.618185","127320.767375","128071.043543","128838.413481","129605.601318","133491.538136","134258.983204","135026.504327","135793.839329","136560.850938","137328.071547","138095.402221","138845.414665","139622.49691","Mapping"
"Blocked","Male","ball","3","M_greet.wav","None","731.700537726","205","132741.56001","139613.172304","140380.765465","141147.749867","127320.767375","128071.043543","128838.413481","129605.601318","133491.538136","134258.983204","135026.504327","135793.839329","136560.850938","137328.071547","138095.402221","138845.414665","140389.873342","Mapping"
"Blocked","Male","ball","3","M_ball.wav","None","729.12390437","205","132741.56001","139613.172304","140380.765465","141147.749867","141914.809707","128071.043543","128838.413481","129605.601318","133491.538136","134258.983204","135026.504327","135793.839329","136560.850938","137328.071547","138095.402221","138845.414665","141157.207107","Mapping"
"Blocked","Male","ball","3","M_park.wav","space","418.74870332","205","132741.56001","139613.172304","140380.765465","141147.749867","141914.809707","142682.261885","128838.413481","129605.601318","133491.538136","134258.983204","135026.504327","135793.839329","136560.850938","137328.071547","138095.402221","138845.414665","141923.899961","Mapping"
"Blocked","Male","ball","3","M_knife.wav","None","724.862905685","205","132741.56001","139613.172304","140380.765465","141147.749867","141914.809707","142682.261885","143449.320178","129605.601318","133491.538136","134258.983204","135026.504327","135793.839329","136560.850938","137328.071547","138095.402221","138845.414665","142691.39264","Mapping"
"Blocked","Male","ball","3","M_dime.wav","None","722.676136997","205","132741.56001","139613.172304","140380.765465","141147.749867","141914.809707","142682.261885","143449.320178","144216.630138","133491.538136","134258.983204","135026.504327","135793.839329","136560.850938","137328.071547","138095.402221","138845.414665","143458.534411","Mapping"
"Blocked","Male","ball","1","M_cad.wav","None","720.162883867","205","147335.678088","139613.172304","140380.765465","141147.749867","141914.809707","142682.261885","143449.320178","144216.630138","133491.538136","134258.983204","135026.504327","135793.839329","136560.850938","137328.071547","138095.402221","138845.414665","144226.043167","Mapping"
"Blocked","Male","ball","1","M_ball.wav","None","721.07648477","205","147335.678088","139613.172304","140380.765465","141147.749867","141914.809707","142682.261885","143449.320178","144216.630138","148085.735053","134258.983204","135026.504327","135793.839329","136560.850938","137328.071547","138095.402221","138845.414665","147344.704962","Mapping"
"Blocked","Male","ball","1","M_greet.wav","space","407.257733867","205","147335.678088","139613.172304","140380.765465","141147.749867","141914.809707","142682.261885","143449.320178","144216.630138","148085.735053","148853.187541","135026.504327","135793.839329","136560.850938","137328.071547","138095.402221","138845.414665","148095.276079","Mapping"
"Blocked","Male","ball","1","M_gnash.wav","None","732.84014361","205","147335.678088","139613.172304","140380.765465","141147.749867","141914.809707","142682.261885","143449.320178","144216.630138","148085.735053","148853.187541","149620.330547","135793.839329","136560.850938","137328.071547","138095.402221","138845.414665","148862.214105","Mapping"
"Blocked","Male","ball","1","M_ball.wav","None","730.579792056","205","147335.678088","139613.172304","140380.765465","141147.749867","141914.809707","142682.261885","143449.320178","144216.630138","148085.735053","148853.187541","149620.330547","150387.656583","136560.850938","137328.071547","138095.402221","138845.414665","149629.528084","Mapping"
"Blocked","Male","ball","1","M_done.wav","space","454.98481486","205","147335.678088","139613.172304","140380.765465","141147.749867","141914.809707","142682.261885","143449.320178","144216.630138","148085.735053","148853.187541","149620.330547","150387.656583","151155.0831","137328.071547","138095.402221","138845.414665","150391.509785","Mapping"
"Blocked","Male","ball","1","M_gnash.wav","None","725.676026195","205","147335.678088","139613.172304","140380.765465","141147.749867","141914.809707","142682.261885","143449.320178","144216.630138","148085.735053","148853.187541","149620.330547","150387.656583","151155.0831","151922.204156","138095.402221","138845.414665","151164.35051","Mapping"
"Blocked","Male","ball","1","M_done.wav","None","723.259543534","205","147335.678088","139613.172304","140380.765465","141147.749867","141914.809707","142682.261885","143449.320178","144216.630138","148085.735053","148853.187541","149620.330547","150387.656583","151155.0831","151922.204156","152689.735173","138845.414665","151931.575756","Mapping"
"Blocked","Male","ball","1","M_jaw.wav","None","720.476074144","205","147335.678088","139613.172304","140380.765465","141147.749867","141914.809707","142682.261885","143449.320178","144216.630138","148085.735053","148853.187541","149620.330547","150387.656583","151155.0831","151922.204156","152689.735173","153439.830166","152699.493856","Mapping"
"Blocked","Male","ball","1","M_ball.wav","None","735.729039647","205","147335.678088","154207.038408","140380.765465","141147.749867","141914.809707","142682.261885","143449.320178","144216.630138","148085.735053","148853.187541","149620.330547","150387.656583","151155.0831","151922.204156","152689.735173","153439.830166","153449.116126","Mapping"
"Blocked","Male","ball","1","M_lash.wav","space","326.234142296","205","147335.678088","154207.038408","154974.471417","141147.749867","141914.809707","142682.261885","143449.320178","144216.630138","148085.735053","148853.187541","149620.330547","150387.656583","151155.0831","151922.204156","152689.735173","153439.830166","154216.152468","Mapping"
"Blocked","Male","ball","1","M_reek.wav","None","730.850934982","205","147335.678088","154207.038408","154974.471417","155741.43696","141914.809707","142682.261885","143449.320178","144216.630138","148085.735053","148853.187541","149620.330547","150387.656583","151155.0831","151922.204156","152689.735173","153439.830166","154983.431511","Mapping"
"Blocked","Male","ball","1","M_jaw.wav","None","728.810095694","205","147335.678088","154207.038408","154974.471417","155741.43696","156509.33991","142682.261885","143449.320178","144216.630138","148085.735053","148853.187541","149620.330547","150387.656583","151155.0831","151922.204156","152689.735173","153439.830166","155750.515466","Mapping"
"Blocked","Male","ball","1","M_cad.wav","None","725.961390883","205","147335.678088","154207.038408","154974.471417","155741.43696","156509.33991","157275.982677","143449.320178","144216.630138","148085.735053","148853.187541","149620.330547","150387.656583","151155.0831","151922.204156","152689.735173","153439.830166","156518.427382","Mapping"
"Blocked","Male","ball","1","M_ball.wav","None","724.144391716","205","147335.678088","154207.038408","154974.471417","155741.43696","156509.33991","157275.982677","158043.361273","144216.630138","148085.735053","148853.187541","149620.330547","150387.656583","151155.0831","151922.204156","152689.735173","153439.830166","157285.112506","Mapping"
"Blocked","Male","ball","1","M_lash.wav","space","345.569714438","205","147335.678088","154207.038408","154974.471417","155741.43696","156509.33991","157275.982677","158043.361273","158793.799755","148085.735053","148853.187541","149620.330547","150387.656583","151155.0831","151922.204156","152689.735173","153439.830166","158052.696391","Mapping"
"Blocked","Male","tile","13","M_cling.wav","None","735.141923651","205","161929.815026","154207.038408","154974.471417","155741.43696","156509.33991","157275.982677","158043.361273","158793.799755","148085.735053","148853.187541","149620.330547","150387.656583","151155.0831","151922.204156","152689.735173","153439.830166","158803.367061","Mapping"
"Blocked","Male","tile","13","M_tile.wav","None","720.370956231","205","161929.815026","154207.038408","154974.471417","155741.43696","156509.33991","157275.982677","158043.361273","158793.799755","162680.075425","148853.187541","149620.330547","150387.656583","151155.0831","151922.204156","152689.735173","153439.830166","161938.980408","Mapping"
"Blocked","Male","tile","13","M_knife.wav","space","372.811724432","205","161929.815026","154207.038408","154974.471417","155741.43696","156509.33991","157275.982677","158043.361273","158793.799755","162680.075425","163447.442272","149620.330547","150387.656583","151155.0831","151922.204156","152689.735173","153439.830166","162689.337579","Mapping"
"Blocked","Male","tile","13","M_tile.wav","None","731.943546794","205","161929.815026","154207.038408","154974.471417","155741.43696","156509.33991","157275.982677","158043.361273","158793.799755","162680.075425","163447.442272","164214.663809","150387.656583","151155.0831","151922.204156","152689.735173","153439.830166","163456.92672","Mapping"
"Blocked","Male","tile","13","M_gnash.wav","space","477.365724742","205","161929.815026","154207.038408","154974.471417","155741.43696","156509.33991","157275.982677","158043.361273","158793.799755","162680.075425","163447.442272","164214.663809","164981.91348","151155.0831","151922.204156","152689.735173","153439.830166","164224.772473","Mapping"
"Blocked","Male","tile","13","M_gnash.wav","None","727.351425681","205","161929.815026","154207.038408","154974.471417","155741.43696","156509.33991","157275.982677","158043.361273","158793.799755","162680.075425","163447.442272","164214.663809","164981.91348","165749.142436","151922.204156","152689.735173","153439.830166","164990.806791","Mapping"
"Blocked","Male","tile","13","M_gnash.wav","None","725.081180688","205","161929.815026","154207.038408","154974.471417","155741.43696","156509.33991","157275.982677","158043.361273","158793.799755","162680.075425","163447.442272","164214.663809","164981.91348","165749.142436","166516.099322","152689.735173","153439.830166","165757.991227","Mapping"
"Blocked","Male","tile","13","M_jolt.wav","None","722.528971732","205","161929.815026","154207.038408","154974.471417","155741.43696","156509.33991","157275.982677","158043.361273","158793.799755","162680.075425","163447.442272","164214.663809","164981.91348","165749.142436","166516.099322","167283.656927","153439.830166","166525.570166","Mapping"
"Blocked","Male","tile","13","M_greet.wav","None","719.667900354","205","161929.815026","154207.038408","154974.471417","155741.43696","156509.33991","157275.982677","158043.361273","158793.799755","162680.075425","163447.442272","164214.663809","164981.91348","165749.142436","166516.099322","167283.656927","168034.143022","167293.391804","Mapping"
"Blocked","Male","tile","13","M_greet.wav","None","735.155218281","205","161929.815026","168801.481425","154974.471417","155741.43696","156509.33991","157275.982677","158043.361273","158793.799755","162680.075425","163447.442272","164214.663809","164981.91348","165749.142436","166516.099322","167283.656927","168034.143022","168043.09353","Mapping"
"Blocked","Male","tile","13","M_tile.wav","None","732.417196967","205","161929.815026","168801.481425","169569.045214","155741.43696","156509.33991","157275.982677","158043.361273","158793.799755","162680.075425","163447.442272","164214.663809","164981.91348","165749.142436","166516.099322","167283.656927","168034.143022","168810.865392","Mapping"
"Blocked","Male","tile","13","M_ball.wav","space","419.186798856","205","161929.815026","168801.481425","169569.045214","170335.554729","156509.33991","157275.982677","158043.361273","158793.799755","162680.075425","163447.442272","164214.663809","164981.91348","165749.142436","166516.099322","167283.656927","168034.143022","169577.853813","Mapping"
"Blocked","Male","tile","13","M_cad.wav","None","728.083233815","205","161929.815026","168801.481425","169569.045214","170335.554729","171102.892823","157275.982677","158043.361273","158793.799755","162680.075425","163447.442272","164214.663809","164981.91348","165749.142436","166516.099322","167283.656927","168034.143022","170344.819047","Mapping"
"Blocked","Male","tile","13","M_lash.wav","None","726.249538828","205","161929.815026","168801.481425","169569.045214","170335.554729","171102.892823","171870.391686","158043.361273","158793.799755","162680.075425","163447.442272","164214.663809","164981.91348","165749.142436","166516.099322","167283.656927","168034.143022","171111.761711","Mapping"
"Blocked","Male","tile","13","M_tile.wav","None","723.29046065","205","161929.815026","168801.481425","169569.045214","170335.554729","171102.892823","171870.391686","172637.40515","158793.799755","162680.075425","163447.442272","164214.663809","164981.91348","165749.142436","166516.099322","167283.656927","168034.143022","171879.645182","Mapping"
"Blocked","Male","tile","13","M_depth.wav","space","343.346154783","205","161929.815026","168801.481425","169569.045214","170335.554729","171102.892823","171870.391686","172637.40515","173387.934837","162680.075425","163447.442272","164214.663809","164981.91348","165749.142436","166516.099322","167283.656927","168034.143022","172646.545181","Mapping"
"Blocked","Male","cave","8","M_jolt.wav","None","735.107296146","205","176523.978861","168801.481425","169569.045214","170335.554729","171102.892823","171870.391686","172637.40515","173387.934837","162680.075425","163447.442272","164214.663809","164981.91348","165749.142436","166516.099322","167283.656927","168034.143022","173397.500288","Mapping"
"Blocked","Male","cave","8","M_reek.wav","None","720.447012223","205","176523.978861","168801.481425","169569.045214","170335.554729","171102.892823","171870.391686","172637.40515","173387.934837","177274.019131","163447.442272","164214.663809","164981.91348","165749.142436","166516.099322","167283.656927","168034.143022","176533.420643","Mapping"
"Blocked","Male","cave","8","M_cave.wav","None","735.428525135","205","176523.978861","168801.481425","169569.045214","170335.554729","171102.892823","171870.391686","172637.40515","173387.934837","177274.019131","178041.394016","164214.663809","164981.91348","165749.142436","166516.099322","167283.656927","168034.143022","177283.497704","Mapping"
"Blocked","Male","cave","8","M_done.wav","space","450.316946954","205","176523.978861","168801.481425","169569.045214","170335.554729","171102.892823","171870.391686","172637.40515","173387.934837","177274.019131","178041.394016","178809.402702","164981.91348","165749.142436","166516.099322","167283.656927","168034.143022","178050.520443","Mapping"
"Blocked","Male","cave","8","M_jolt.wav","None","729.892195202","205","176523.978861","168801.481425","169569.045214","170335.554729","171102.892823","171870.391686","172637.40515","173387.934837","177274.019131","178041.394016","178809.402702","179575.696107","165749.142436","166516.099322","167283.656927","168034.143022","178818.489865","Mapping"
"Blocked","Male","cave","8","M_priest.wav","None","728.685499169","205","176523.978861","168801.481425","169569.045214","170335.554729","171102.892823","171870.391686","172637.40515","173387.934837","177274.019131","178041.394016","178809.402702","179575.696107","180343.292668","166516.099322","167283.656927","168034.143022","179584.641978","Mapping"
"Blocked","Male","cave","8","M_cave.wav","None","725.87080393","205","176523.978861","168801.481425","169569.045214","170335.554729","171102.892823","171870.391686","172637.40515","173387.934837","177274.019131","178041.394016","178809.402702","179575.696107","180343.292668","181110.367657","167283.656927","168034.143022","180352.861519","Mapping"
"Blocked","Male","cave","8","M_tile.wav","space","406.211807858","205","176523.978861","168801.481425","169569.045214","170335.554729","171102.892823","171870.391686","172637.40515","173387.934837","177274.019131","178041.394016","178809.402702","179575.696107","180343.292668","181110.367657","181877.689365","168034.143022","181119.51047","Mapping"
"Blocked","Male","cave","8","M_bluff.wav","None","720.810597762","205","176523.978861","168801.481425","169569.045214","170335.554729","171102.892823","171870.391686","172637.40515","173387.934837","177274.019131","178041.394016","178809.402702","179575.696107","180343.292668","181110.367657","181877.689365","182628.688684","181886.966668","Mapping"
"Blocked","Male","cave","8","M_cave.wav","None","734.800598118","205","176523.978861","183395.320631","169569.045214","170335.554729","171102.892823","171870.391686","172637.40515","173387.934837","177274.019131","178041.394016","178809.402702","179575.696107","180343.292668","181110.367657","181877.689365","182628.688684","182637.995358","Mapping"
"Blocked","Male","cave","8","M_jolt.wav","space","305.152370129","205","176523.978861","183395.320631","184162.700772","170335.554729","171102.892823","171870.391686","172637.40515","173387.934837","177274.019131","178041.394016","178809.402702","179575.696107","180343.292668","181110.367657","181877.689365","182628.688684","183404.542592","Mapping"
"Blocked","Male","cave","8","M_cave.wav","None","729.694634676","205","176523.978861","183395.320631","184162.700772","184930.042576","171102.892823","171870.391686","172637.40515","173387.934837","177274.019131","178041.394016","178809.402702","179575.696107","180343.292668","181110.367657","181877.689365","182628.688684","184172.369794","Mapping"
"Blocked","Male","cave","8","M_tile.wav","space","377.285123803","205","176523.978861","183395.320631","184162.700772","184930.042576","185697.568955","171870.391686","172637.40515","173387.934837","177274.019131","178041.394016","178809.402702","179575.696107","180343.292668","181110.367657","181877.689365","182628.688684","184939.36409","Mapping"
"Blocked","Male","cave","8","M_cling.wav","None","723.952087108","205","176523.978861","183395.320631","184162.700772","184930.042576","185697.568955","186464.6829","172637.40515","173387.934837","177274.019131","178041.394016","178809.402702","179575.696107","180343.292668","181110.367657","181877.689365","182628.688684","185707.47233","Mapping"
"Blocked","Male","cave","8","M_greet.wav","None","722.473011818","205","176523.978861","183395.320631","184162.700772","184930.042576","185697.568955","186464.6829","187231.677813","173387.934837","177274.019131","178041.394016","178809.402702","179575.696107","180343.292668","181110.367657","181877.689365","182628.688684","186473.93516","Mapping"
"Blocked","Male","cave","8","M_dime.wav","None","720.495243091","205","176523.978861","183395.320631","184162.700772","184930.042576","185697.568955","186464.6829","187231.677813","187981.940068","177274.019131","178041.394016","178809.402702","179575.696107","180343.292668","181110.367657","181877.689365","182628.688684","187240.926673","Mapping"
"Blocked","Male","ball","5","M_park.wav","None","735.353396274","205","191118.561314","183395.320631","184162.700772","184930.042576","185697.568955","186464.6829","187231.677813","187981.940068","177274.019131","178041.394016","178809.402702","179575.696107","180343.292668","181110.367657","181877.689365","182628.688684","187991.19913","Mapping"
"Blocked","Male","ball","5","M_jolt.wav","None","720.018191729","205","191118.561314","183395.320631","184162.700772","184930.042576","185697.568955","186464.6829","187231.677813","187981.940068","191868.505432","178041.394016","178809.402702","179575.696107","180343.292668","181110.367657","181877.689365","182628.688684","191127.6324","Mapping"
"Blocked","Male","ball","5","M_ball.wav","None","734.964768402","205","191118.561314","183395.320631","184162.700772","184930.042576","185697.568955","186464.6829","187231.677813","187981.940068","191868.505432","192635.372039","178809.402702","179575.696107","180343.292668","181110.367657","181877.689365","182628.688684","191877.76573","Mapping"
"Blocked","Male","ball","5","M_reek.wav","space","480.981482659","205","191118.561314","183395.320631","184162.700772","184930.042576","185697.568955","186464.6829","187231.677813","187981.940068","191868.505432","192635.372039","193402.548128","179575.696107","180343.292668","181110.367657","181877.689365","182628.688684","192644.431377","Mapping"
"Blocked","Male","ball","5","M_park.wav","None","736.052742228","205","191118.561314","183395.320631","184162.700772","184930.042576","185697.568955","186464.6829","187231.677813","187981.940068","191868.505432","192635.372039","193402.548128","194170.187664","180343.292668","181110.367657","181877.689365","182628.688684","193406.097105","Mapping"
"Blocked","Male","ball","5","M_tile.wav","None","727.707281709","205","191118.561314","183395.320631","184162.700772","184930.042576","185697.568955","186464.6829","187231.677813","187981.940068","191868.505432","192635.372039","193402.548128","194170.187664","194937.166192","181110.367657","181877.689365","182628.688684","194179.474551","Mapping"
"Blocked","Male","ball","5","M_dime.wav","None","726.261596661","205","191118.561314","183395.320631","184162.700772","184930.042576","185697.568955","186464.6829","187231.677813","187981.940068","191868.505432","192635.372039","193402.548128","194170.187664","194937.166192","195704.388346","181877.689365","182628.688684","194945.967989","Mapping"
"Blocked","Male","ball","5","M_ball.wav","None","724.138208199","205","191118.561314","183395.320631","184162.700772","184930.042576","185697.568955","186464.6829","187231.677813","187981.940068","191868.505432","192635.372039","193402.548128","194170.187664","194937.166192","195704.388346","196471.59968","182628.688684","195713.243939","Mapping"
"Blocked","Male","ball","5","M_bluff.wav","space","319.490807597","205","191118.561314","183395.320631","184162.700772","184930.042576","185697.568955","186464.6829","187231.677813","187981.940068","191868.505432","192635.372039","193402.548128","194170.187664","194937.166192","195704.388346","196471.59968","197222.302813","196476.914643","Mapping"
"Blocked","Male","ball","5","M_ball.wav","None","735.410902649","205","191118.561314","197989.246095","184162.700772","184930.042576","185697.568955","186464.6829","187231.677813","187981.940068","191868.505432","192635.372039","193402.548128","194170.187664","194937.166192","195704.388346","196471.59968","197222.302813","197231.735629","Mapping"
"Blocked","Male","ball","5","M_cling.wav","space","454.202611465","205","191118.561314","197989.246095","198756.89336","184930.042576","185697.568955","186464.6829","187231.677813","187981.940068","191868.505432","192635.372039","193402.548128","194170.187664","194937.166192","195704.388346","196471.59968","197222.302813","197998.129823","Mapping"
"Blocked","Male","ball","5","M_knife.wav","None","731.792052742","205","191118.561314","197989.246095","198756.89336","199523.949181","185697.568955","186464.6829","187231.677813","187981.940068","191868.505432","192635.372039","193402.548128","194170.187664","194937.166192","195704.388346","196471.59968","197222.302813","198766.083167","Mapping"
"Blocked","Male","ball","5","M_cad.wav","None","729.225931223","205","191118.561314","197989.246095","198756.89336","199523.949181","200290.981195","186464.6829","187231.677813","187981.940068","191868.505432","192635.372039","193402.548128","194170.187664","194937.166192","195704.388346","196471.59968","197222.302813","199533.454652","Mapping"
"Blocked","Male","ball","5","M_jaw.wav","None","727.893093601","205","191118.561314","197989.246095","198756.89336","199523.949181","200290.981195","201058.443885","187231.677813","187981.940068","191868.505432","192635.372039","193402.548128","194170.187664","194937.166192","195704.388346","196471.59968","197222.302813","200300.001577","Mapping"
"Blocked","Male","ball","5","M_ball.wav","None","725.646345876","205","191118.561314","197989.246095","198756.89336","199523.949181","200290.981195","201058.443885","201825.834538","187981.940068","191868.505432","192635.372039","193402.548128","194170.187664","194937.166192","195704.388346","196471.59968","197222.302813","201067.381718","Mapping"
"Blocked","Male","ball","5","M_cling.wav","space","490.149339195","205","191118.561314","197989.246095","198756.89336","199523.949181","200290.981195","201058.443885","201825.834538","202592.766381","191868.505432","192635.372039","193402.548128","194170.187664","194937.166192","195704.388346","196471.59968","197222.302813","201835.00765","Mapping"
"Blocked","Male","cave","10","M_done.wav","None","720.619220752","205","205711.509489","197989.246095","198756.89336","199523.949181","200290.981195","201058.443885","201825.834538","202592.766381","191868.505432","192635.372039","193402.548128","194170.187664","194937.166192","195704.388346","196471.59968","197222.302813","202601.776869","Mapping"
"Blocked","Male","cave","10","M_bluff.wav","None","722.178989556","205","205711.509489","197989.246095","198756.89336","199523.949181","200290.981195","201058.443885","201825.834538","202592.766381","206462.414201","192635.372039","193402.548128","194170.187664","194937.166192","195704.388346","196471.59968","197222.302813","205720.374666","Mapping"
"Blocked","Male","cave","10","M_cave.wav","None","735.970811918","205","205711.509489","197989.246095","198756.89336","199523.949181","200290.981195","201058.443885","201825.834538","202592.766381","206462.414201","207229.809801","193402.548128","194170.187664","194937.166192","195704.388346","196471.59968","197222.302813","206471.815172","Mapping"
"Blocked","Male","cave","10","M_done.wav","space","389.233048074","205","205711.509489","197989.246095","198756.89336","199523.949181","200290.981195","201058.443885","201825.834538","202592.766381","206462.414201","207229.809801","207996.956827","194170.187664","194937.166192","195704.388346","196471.59968","197222.302813","207239.846428","Mapping"
"Blocked","Male","cave","10","M_dime.wav","None","730.752309319","205","205711.509489","197989.246095","198756.89336","199523.949181","200290.981195","201058.443885","201825.834538","202592.766381","206462.414201","207229.809801","207996.956827","208764.11251","194937.166192","195704.388346","196471.59968","197222.302813","208006.227328","Mapping"
"Blocked","Male","cave","10","M_cave.wav","None","728.971173987","205","205711.509489","197989.246095","198756.89336","199523.949181","200290.981195","201058.443885","201825.834538","202592.766381","206462.414201","207229.809801","207996.956827","208764.11251","209531.636725","195704.388346","196471.59968","197222.302813","208773.120215","Mapping"
"Blocked","Male","cave","10","M_gnash.wav","space","407.311839052","205","205711.509489","197989.246095","198756.89336","199523.949181","200290.981195","201058.443885","201825.834538","202592.766381","206462.414201","207229.809801","207996.956827","208764.11251","209531.636725","210298.644933","196471.59968","197222.302813","209540.736254","Mapping"
"Blocked","Male","cave","10","M_cave.wav","None","723.364661448","205","205711.509489","197989.246095","198756.89336","199523.949181","200290.981195","201058.443885","201825.834538","202592.766381","206462.414201","207229.809801","207996.956827","208764.11251","209531.636725","210298.644933","211065.900478","197222.302813","210307.955008","Mapping"
"Blocked","Male","cave","10","M_bluff.wav","space","385.733538307","205","205711.509489","197989.246095","198756.89336","199523.949181","200290.981195","201058.443885","201825.834538","202592.766381","206462.414201","207229.809801","207996.956827","208764.11251","209531.636725","210298.644933","211065.900478","211816.315154","211075.247035","Mapping"
"Blocked","Male","cave","10","M_knife.wav","None","735.37782114","205","205711.509489","212583.552149","198756.89336","199523.949181","200290.981195","201058.443885","201825.834538","202592.766381","206462.414201","207229.809801","207996.956827","208764.11251","209531.636725","210298.644933","211065.900478","211816.315154","211825.430451","Mapping"
"Blocked","Male","cave","10","M_romp.wav","None","733.191362116","205","205711.509489","212583.552149","213350.974956","199523.949181","200290.981195","201058.443885","201825.834538","202592.766381","206462.414201","207229.809801","207996.956827","208764.11251","209531.636725","210298.644933","211065.900478","211816.315154","212593.015882","Mapping"
"Blocked","Male","cave","10","M_bluff.wav","None","731.338498183","205","205711.509489","212583.552149","213350.974956","214118.04438","200290.981195","201058.443885","201825.834538","202592.766381","206462.414201","207229.809801","207996.956827","208764.11251","209531.636725","210298.644933","211065.900478","211816.315154","213360.154252","Mapping"
"Blocked","Male","cave","10","M_greet.wav","None","729.34650816","205","205711.509489","212583.552149","213350.974956","214118.04438","214885.577561","201058.443885","201825.834538","202592.766381","206462.414201","207229.809801","207996.956827","208764.11251","209531.636725","210298.644933","211065.900478","211816.315154","214127.678157","Mapping"
"Blocked","Male","cave","10","M_cave.wav","None","727.240742184","205","205711.509489","212583.552149","213350.974956","214118.04438","214885.577561","215652.527027","201825.834538","202592.766381","206462.414201","207229.809801","207996.956827","208764.11251","209531.636725","210298.644933","211065.900478","211816.315154","214895.076231","Mapping"
"Blocked","Male","cave","10","M_cad.wav","space","326.181582641","205","205711.509489","212583.552149","213350.974956","214118.04438","214885.577561","215652.527027","216419.936848","202592.766381","206462.414201","207229.809801","207996.956827","208764.11251","209531.636725","210298.644933","211065.900478","211816.315154","215661.740331","Mapping"
"Blocked","Male","cave","10","M_cling.wav","None","722.620177083","205","205711.509489","212583.552149","213350.974956","214118.04438","214885.577561","215652.527027","216419.936848","217186.893425","206462.414201","207229.809801","207996.956827","208764.11251","209531.636725","210298.644933","211065.900478","211816.315154","216429.047199","Mapping"
"Blocked","Male","done","24","M_knife.wav","None","720.71784595","205","220305.909531","212583.552149","213350.974956","214118.04438","214885.577561","215652.527027","216419.936848","217186.893425","206462.414201","207229.809801","207996.956827","208764.11251","209531.636725","210298.644933","211065.900478","211816.315154","217196.226997","Mapping"
"Blocked","Male","done","24","M_done.wav","None","721.010940615","205","220305.909531","212583.552149","213350.974956","214118.04438","214885.577561","215652.527027","216419.936848","217186.893425","221056.430253","207229.809801","207996.956827","208764.11251","209531.636725","210298.644933","211065.900478","211816.315154","220314.945989","Mapping"
"Blocked","Male","done","24","M_priest.wav","space","435.351819731","205","220305.909531","212583.552149","213350.974956","214118.04438","214885.577561","215652.527027","216419.936848","217186.893425","221056.430253","221823.822142","207996.956827","208764.11251","209531.636725","210298.644933","211065.900478","211816.315154","221065.370559","Mapping"
"Blocked","Male","done","24","M_dime.wav","None","732.42585361","205","220305.909531","212583.552149","213350.974956","214118.04438","214885.577561","215652.527027","216419.936848","217186.893425","221056.430253","221823.822142","222591.318841","208764.11251","209531.636725","210298.644933","211065.900478","211816.315154","221832.766159","Mapping"
"Blocked","Male","done","24","M_done.wav","None","729.684432037","205","220305.909531","212583.552149","213350.974956","214118.04438","214885.577561","215652.527027","216419.936848","217186.893425","221056.430253","221823.822142","222591.318841","223358.16628","209531.636725","210298.644933","211065.900478","211816.315154","222600.876871","Mapping"
"Blocked","Male","done","24","M_cad.wav","space","409.931447823","205","220305.909531","212583.552149","213350.974956","214118.04438","214885.577561","215652.527027","216419.936848","217186.893425","221056.430253","221823.822142","222591.318841","223358.16628","224125.631444","210298.644933","211065.900478","211816.315154","223361.81481","Mapping"
"Blocked","Male","done","24","M_done.wav","None","724.921648391","205","220305.909531","212583.552149","213350.974956","214118.04438","214885.577561","215652.527027","216419.936848","217186.893425","221056.430253","221823.822142","222591.318841","223358.16628","224125.631444","224892.775687","211065.900478","211816.315154","224135.35148","Mapping"
"Blocked","Male","done","24","M_park.wav","space","406.88209096","205","220305.909531","212583.552149","213350.974956","214118.04438","214885.577561","215652.527027","216419.936848","217186.893425","221056.430253","221823.822142","222591.318841","223358.16628","224125.631444","224892.775687","225660.20004","211816.315154","224901.790194","Mapping"
"Blocked","Male","done","24","M_depth.wav","None","720.547492616","205","220305.909531","212583.552149","213350.974956","214118.04438","214885.577561","215652.527027","216419.936848","217186.893425","221056.430253","221823.822142","222591.318841","223358.16628","224125.631444","224892.775687","225660.20004","226410.409736","225669.36635","Mapping"
"Blocked","Male","done","24","M_reek.wav","None","735.637525097","205","220305.909531","227177.786476","213350.974956","214118.04438","214885.577561","215652.527027","216419.936848","217186.893425","221056.430253","221823.822142","222591.318841","223358.16628","224125.631444","224892.775687","225660.20004","226410.409736","226419.706207","Mapping"
"Blocked","Male","done","24","M_done.wav","None","738.710378762","205","220305.909531","227177.786476","227945.168163","214118.04438","214885.577561","215652.527027","216419.936848","217186.893425","221056.430253","221823.822142","222591.318841","223358.16628","224125.631444","224892.775687","225660.20004","226410.409736","227182.026451","Mapping"
"Blocked","Male","done","24","M_lash.wav","space","448.853021022","205","220305.909531","227177.786476","227945.168163","228712.289837","214885.577561","215652.527027","216419.936848","217186.893425","221056.430253","221823.822142","222591.318841","223358.16628","224125.631444","224892.775687","225660.20004","226410.409736","227954.787409","Mapping"
"Blocked","Male","done","24","M_bluff.wav","None","728.966845199","205","220305.909531","227177.786476","227945.168163","228712.289837","229479.634114","215652.527027","216419.936848","217186.893425","221056.430253","221823.822142","222591.318841","223358.16628","224125.631444","224892.775687","225660.20004","226410.409736","228721.540242","Mapping"
"Blocked","Male","done","24","M_tile.wav","None","726.950739045","205","220305.909531","227177.786476","227945.168163","228712.289837","229479.634114","230246.581725","216419.936848","217186.893425","221056.430253","221823.822142","222591.318841","223358.16628","224125.631444","224892.775687","225660.20004","226410.409736","229488.56329","Mapping"
"Blocked","Male","done","24","M_cave.wav","None","724.501793738","205","220305.909531","227177.786476","227945.168163","228712.289837","229479.634114","230246.581725","231014.004841","217186.893425","221056.430253","221823.822142","222591.318841","223358.16628","224125.631444","224892.775687","225660.20004","226410.409736","230256.264351","Mapping"
"Blocked","Male","done","24","M_dime.wav","None","723.054563161","205","220305.909531","227177.786476","227945.168163","228712.289837","229479.634114","230246.581725","231014.004841","231781.066845","221056.430253","221823.822142","222591.318841","223358.16628","224125.631444","224892.775687","225660.20004","226410.409736","231023.508457","Mapping"
"Blocked","Male","cave","9","M_romp.wav","None","721.423065756","205","234900.073366","227177.786476","227945.168163","228712.289837","229479.634114","230246.581725","231014.004841","231781.066845","221056.430253","221823.822142","222591.318841","223358.16628","224125.631444","224892.775687","225660.20004","226410.409736","231790.358988","Mapping"
"Blocked","Male","cave","9","M_priest.wav","None","721.743676346","205","234900.073366","227177.786476","227945.168163","228712.289837","229479.634114","230246.581725","231014.004841","231781.066845","235650.543075","221823.822142","222591.318841","223358.16628","224125.631444","224892.775687","225660.20004","226410.409736","234908.792924","Mapping"
"Blocked","Male","cave","9","M_jaw.wav","None","736.444771755","205","234900.073366","227177.786476","227945.168163","228712.289837","229479.634114","230246.581725","231014.004841","231781.066845","235650.543075","236417.939602","222591.318841","223358.16628","224125.631444","224892.775687","225660.20004","226410.409736","235659.519554","Mapping"
"Blocked","Male","cave","9","M_knife.wav","None","733.829800505","205","234900.073366","227177.786476","227945.168163","228712.289837","229479.634114","230246.581725","231014.004841","231781.066845","235650.543075","236417.939602","237185.118782","223358.16628","224125.631444","224892.775687","225660.20004","226410.409736","236427.057991","Mapping"
"Blocked","Male","cave","9","M_cave.wav","None","731.831317302","205","234900.073366","227177.786476","227945.168163","228712.289837","229479.634114","230246.581725","231014.004841","231781.066845","235650.543075","236417.939602","237185.118782","237952.421012","224125.631444","224892.775687","225660.20004","226410.409736","237194.444006","Mapping"
"Blocked","Male","cave","9","M_jolt.wav","space","554.987195879","205","234900.073366","227177.786476","227945.168163","228712.289837","229479.634114","230246.581725","231014.004841","231781.066845","235650.543075","236417.939602","237185.118782","237952.421012","238719.400467","224892.775687","225660.20004","226410.409736","237961.389762","Mapping"
"Blocked","Male","cave","9","M_jaw.wav","None","727.092340123","205","234900.073366","227177.786476","227945.168163","228712.289837","229479.634114","230246.581725","231014.004841","231781.066845","235650.543075","236417.939602","237185.118782","237952.421012","238719.400467","239486.71661","225660.20004","226410.409736","238728.87162","Mapping"
"Blocked","Male","cave","9","M_cave.wav","None","725.432089996","205","234900.073366","227177.786476","227945.168163","228712.289837","229479.634114","230246.581725","231014.004841","231781.066845","235650.543075","236417.939602","237185.118782","237952.421012","238719.400467","239486.71661","240253.87724","226410.409736","239496.000096","Mapping"
"Blocked","Male","cave","9","M_depth.wav","space","452.260397375","205","234900.073366","227177.786476","227945.168163","228712.289837","229479.634114","230246.581725","231014.004841","231781.066845","235650.543075","236417.939602","237185.118782","237952.421012","238719.400467","239486.71661","240253.87724","241021.363426","240263.031492","Mapping"
"Blocked","Male","cave","9","M_cave.wav","None","720.910151023","205","234900.073366","241771.899607","227945.168163","228712.289837","229479.634114","230246.581725","231014.004841","231781.066845","235650.543075","236417.939602","237185.118782","237952.421012","238719.400467","239486.71661","240253.87724","241021.363426","241030.746466","Mapping"
"Blocked","Male","cave","9","M_tile.wav","space","422.078168951","205","234900.073366","241771.899607","242539.269855","228712.289837","229479.634114","230246.581725","231014.004841","231781.066845","235650.543075","236417.939602","237185.118782","237952.421012","238719.400467","239486.71661","240253.87724","241021.363426","241781.200098","Mapping"
"Blocked","Male","cave","9","M_knife.wav","None","732.709673233","205","234900.073366","241771.899607","242539.269855","243306.142337","229479.634114","230246.581725","231014.004841","231781.066845","235650.543075","236417.939602","237185.118782","237952.421012","238719.400467","239486.71661","240253.87724","241021.363426","242548.686594","Mapping"
"Blocked","Male","cave","9","M_tile.wav","None","731.526165269","205","234900.073366","241771.899607","242539.269855","243306.142337","244073.780636","230246.581725","231014.004841","231781.066845","235650.543075","236417.939602","237185.118782","237952.421012","238719.400467","239486.71661","240253.87724","241021.363426","243315.418094","Mapping"
"Blocked","Male","cave","9","M_cave.wav","None","729.494291358","205","234900.073366","241771.899607","242539.269855","243306.142337","244073.780636","244840.818834","231014.004841","231781.066845","235650.543075","236417.939602","237185.118782","237952.421012","238719.400467","239486.71661","240253.87724","241021.363426","244082.974772","Mapping"
"Blocked","Male","cave","9","M_tile.wav","space","257.362836972","205","234900.073366","241771.899607","242539.269855","243306.142337","244073.780636","244840.818834","245608.10004","231781.066845","235650.543075","236417.939602","237185.118782","237952.421012","238719.400467","239486.71661","240253.87724","241021.363426","244850.809086","Mapping"
"Blocked","Male","cave","9","M_done.wav","None","725.015945267","205","234900.073366","241771.899607","242539.269855","243306.142337","244073.780636","244840.818834","245608.10004","246375.185851","235650.543075","236417.939602","237185.118782","237952.421012","238719.400467","239486.71661","240253.87724","241021.363426","245617.2478","Mapping"
"Blocked","Male","cave","12","M_tile.wav","None","723.731029779","205","249494.16702","241771.899607","242539.269855","243306.142337","244073.780636","244840.818834","245608.10004","246375.185851","235650.543075","236417.939602","237185.118782","237952.421012","238719.400467","239486.71661","240253.87724","241021.363426","246384.064322","Mapping"
"Blocked","Male","cave","12","M_done.wav","None","720.577172935","205","249494.16702","241771.899607","242539.269855","243306.142337","244073.780636","244840.818834","245608.10004","246375.185851","250244.669191","236417.939602","237185.118782","237952.421012","238719.400467","239486.71661","240253.87724","241021.363426","249503.391454","Mapping"
"Blocked","Male","cave","12","M_jolt.wav","None","735.395444091","205","249494.16702","241771.899607","242539.269855","243306.142337","244073.780636","244840.818834","245608.10004","246375.185851","250244.669191","251012.040366","237185.118782","237952.421012","238719.400467","239486.71661","240253.87724","241021.363426","250254.140963","Mapping"
"Blocked","Male","cave","12","M_reek.wav","None","734.334677458","205","249494.16702","241771.899607","242539.269855","243306.142337","244073.780636","244840.818834","245608.10004","246375.185851","250244.669191","251012.040366","251779.029097","237952.421012","238719.400467","239486.71661","240253.87724","241021.363426","251021.117326","Mapping"
"Blocked","Male","cave","12","M_greet.wav","None","733.042341191","205","249494.16702","241771.899607","242539.269855","243306.142337","244073.780636","244840.818834","245608.10004","246375.185851","250244.669191","251012.040366","251779.029097","252547.092816","238719.400467","239486.71661","240253.87724","241021.363426","251788.108839","Mapping"
"Blocked","Male","cave","12","M_bluff.wav","None","730.555985589","205","249494.16702","241771.899607","242539.269855","243306.142337","244073.780636","244840.818834","245608.10004","246375.185851","250244.669191","251012.040366","251779.029097","252547.092816","253313.619954","239486.71661","240253.87724","241021.363426","252556.123709","Mapping"
"Blocked","Male","cave","12","M_knife.wav","None","728.352831211","205","249494.16702","241771.899607","242539.269855","243306.142337","244073.780636","244840.818834","245608.10004","246375.185851","250244.669191","251012.040366","251779.029097","252547.092816","253313.619954","254081.022046","240253.87724","241021.363426","253323.546207","Mapping"
"Blocked","Male","cave","12","M_cave.wav","None","727.519923821","205","249494.16702","241771.899607","242539.269855","243306.142337","244073.780636","244840.818834","245608.10004","246375.185851","250244.669191","251012.040366","251779.029097","252547.092816","253313.619954","254081.022046","254847.986352","241021.363426","254090.078909","Mapping"
"Blocked","Male","cave","12","M_ball.wav","space","274.231531657","205","249494.16702","241771.899607","242539.269855","243306.142337","244073.780636","244840.818834","245608.10004","246375.185851","250244.669191","251012.040366","251779.029097","252547.092816","253313.619954","254081.022046","254847.986352","255615.321045","254856.768053","Mapping"
"Blocked","Male","cave","12","M_cave.wav","None","723.044669256","205","249494.16702","256382.478892","242539.269855","243306.142337","244073.780636","244840.818834","245608.10004","246375.185851","250244.669191","251012.040366","251779.029097","252547.092816","253313.619954","254081.022046","254847.986352","255615.321045","255624.443453","Mapping"
"Blocked","Male","cave","12","M_jaw.wav","space","299.377669115","205","249494.16702","256382.478892","257132.91892","243306.142337","244073.780636","244840.818834","245608.10004","246375.185851","250244.669191","251012.040366","251779.029097","252547.092816","253313.619954","254081.022046","254847.986352","255615.321045","256391.564818","Mapping"
"Blocked","Male","cave","12","M_cave.wav","None","735.088127665","205","249494.16702","256382.478892","257132.91892","257900.52321","244073.780636","244840.818834","245608.10004","246375.185851","250244.669191","251012.040366","251779.029097","252547.092816","253313.619954","254081.022046","254847.986352","255615.321045","257142.130679","Mapping"
"Blocked","Male","cave","12","M_cad.wav","space","349.295537453","205","249494.16702","256382.478892","257132.91892","257900.52321","258667.665599","244840.818834","245608.10004","246375.185851","250244.669191","251012.040366","251779.029097","252547.092816","253313.619954","254081.022046","254847.986352","255615.321045","257909.606045","Mapping"
"Blocked","Male","cave","12","M_cave.wav","None","730.245578103","205","249494.16702","256382.478892","257132.91892","257900.52321","258667.665599","259434.928255","245608.10004","246375.185851","250244.669191","251012.040366","251779.029097","252547.092816","253313.619954","254081.022046","254847.986352","255615.321045","258676.931153","Mapping"
"Blocked","Male","cave","12","M_tile.wav","space","366.463819519","205","249494.16702","256382.478892","257132.91892","257900.52321","258667.665599","259434.928255","260202.624988","246375.185851","250244.669191","251012.040366","251779.029097","252547.092816","253313.619954","254081.022046","254847.986352","255615.321045","259444.413321","Mapping"
"Blocked","Male","cave","12","M_reek.wav","None","724.940816872","205","249494.16702","256382.478892","257132.91892","257900.52321","258667.665599","259434.928255","260202.624988","260969.362053","250244.669191","251012.040366","251779.029097","252547.092816","253313.619954","254081.022046","254847.986352","255615.321045","260212.123966","Mapping"
"Blocked","Male","done","20","M_priest.wav","None","723.739068024","205","264105.060114","256382.478892","257132.91892","257900.52321","258667.665599","259434.928255","260202.624988","260969.362053","250244.669191","251012.040366","251779.029097","252547.092816","253313.619954","254081.022046","254847.986352","255615.321045","260978.880509","Mapping"
"Blocked","Male","done","20","M_depth.wav","None","720.44948535","205","264105.060114","256382.478892","257132.91892","257900.52321","258667.665599","259434.928255","260202.624988","260969.362053","264855.495813","251012.040366","251779.029097","252547.092816","253313.619954","254081.022046","254847.986352","255615.321045","264114.417492","Mapping"
"Blocked","Male","done","20","M_done.wav","None","734.899842646","205","264105.060114","256382.478892","257132.91892","257900.52321","258667.665599","259434.928255","260202.624988","260969.362053","264855.495813","265622.595845","251779.029097","252547.092816","253313.619954","254081.022046","254847.986352","255615.321045","264865.231308","Mapping"
"Blocked","Male","done","20","M_cave.wav","space","546.937611885","205","264105.060114","256382.478892","257132.91892","257900.52321","258667.665599","259434.928255","260202.624988","260969.362053","264855.495813","265622.595845","266390.282994","252547.092816","253313.619954","254081.022046","254847.986352","255615.321045","265631.765247","Mapping"
"Blocked","Male","done","20","M_done.wav","None","730.774569791","205","264105.060114","256382.478892","257132.91892","257900.52321","258667.665599","259434.928255","260202.624988","260969.362053","264855.495813","265622.595845","266390.282994","267157.319027","253313.619954","254081.022046","254847.986352","255615.321045","266399.520104","Mapping"
"Blocked","Male","done","20","M_tile.wav","space","444.002432749","205","264105.060114","256382.478892","257132.91892","257900.52321","258667.665599","259434.928255","260202.624988","260969.362053","264855.495813","265622.595845","266390.282994","267157.319027","267924.471309","254081.022046","254847.986352","255615.321045","267166.666512","Mapping"
"Blocked","Male","done","20","M_priest.wav","None","726.567057893","205","264105.060114","256382.478892","257132.91892","257900.52321","258667.665599","259434.928255","260202.624988","260969.362053","264855.495813","265622.595845","266390.282994","267157.319027","267924.471309","268691.458494","254847.986352","255615.321045","267933.527864","Mapping"
"Blocked","Male","done","20","M_bluff.wav","None","725.134976674","205","264105.060114","256382.478892","257132.91892","257900.52321","258667.665599","259434.928255","260202.624988","260969.362053","264855.495813","265622.595845","266390.282994","267157.319027","267924.471309","268691.458494","269458.589134","255615.321045","268700.620166","Mapping"
"Blocked","Male","done","20","M_lash.wav","None","723.573970608","205","264105.060114","256382.478892","257132.91892","257900.52321","258667.665599","259434.928255","260202.624988","260969.362053","264855.495813","265622.595845","266390.282994","267157.319027","267924.471309","268691.458494","269458.589134","270226.132518","269467.642287","Mapping"
"Blocked","Male","done","20","M_tile.wav","None","720.994245261","205","264105.060114","270993.652713","257132.91892","257900.52321","258667.665599","259434.928255","260202.624988","260969.362053","264855.495813","265622.595845","266390.282994","267157.319027","267924.471309","268691.458494","269458.589134","270226.132518","270235.744034","Mapping"
"Blocked","Male","done","20","M_done.wav","None","719.148183241","205","264105.060114","270993.652713","271744.095215","257900.52321","258667.665599","259434.928255","260202.624988","260969.362053","264855.495813","265622.595845","266390.282994","267157.319027","267924.471309","268691.458494","269458.589134","270226.132518","271003.169006","Mapping"
"Blocked","Male","done","20","M_reek.wav","space","395.706785843","205","264105.060114","270993.652713","271744.095215","272511.158455","258667.665599","259434.928255","260202.624988","260969.362053","264855.495813","265622.595845","266390.282994","267157.319027","267924.471309","268691.458494","269458.589134","270226.132518","271759.850584","Mapping"
"Blocked","Male","done","20","M_ball.wav","None","731.622008141","205","264105.060114","270993.652713","271744.095215","272511.158455","273278.505515","259434.928255","260202.624988","260969.362053","264855.495813","265622.595845","266390.282994","267157.319027","267924.471309","268691.458494","269458.589134","270226.132518","272520.347335","Mapping"
"Blocked","Male","done","20","M_bluff.wav","None","729.89930585","205","264105.060114","270993.652713","271744.095215","272511.158455","273278.505515","274045.557317","260202.624988","260969.362053","264855.495813","265622.595845","266390.282994","267157.319027","267924.471309","268691.458494","269458.589134","270226.132518","273287.671517","Mapping"
"Blocked","Male","done","20","M_done.wav","None","728.738058824","205","264105.060114","270993.652713","271744.095215","272511.158455","273278.505515","274045.557317","274812.742989","260969.362053","264855.495813","265622.595845","266390.282994","267157.319027","267924.471309","268691.458494","269458.589134","270226.132518","274054.564404","Mapping"
"Blocked","Male","done","20","M_priest.wav","space","389.923736453","205","264105.060114","270993.652713","271744.095215","272511.158455","273278.505515","274045.557317","274812.742989","275580.177545","264855.495813","265622.595845","266390.282994","267157.319027","267924.471309","268691.458494","269458.589134","270226.132518","274821.553753","Mapping"
"Blocked","Male","ball","6","M_priest.wav","None","723.661466036","205","278716.551145","270993.652713","271744.095215","272511.158455","273278.505515","274045.557317","274812.742989","275580.177545","264855.495813","265622.595845","266390.282994","267157.319027","267924.471309","268691.458494","269458.589134","270226.132518","275589.586245","Mapping"
"Blocked","Male","ball","6","M_depth.wav","None","719.343271106","205","278716.551145","270993.652713","271744.095215","272511.158455","273278.505515","274045.557317","274812.742989","275580.177545","279466.484441","265622.595845","266390.282994","267157.319027","267924.471309","268691.458494","269458.589134","270226.132518","278726.019515","Mapping"
"Blocked","Male","ball","6","M_greet.wav","None","735.794893466","205","278716.551145","270993.652713","271744.095215","272511.158455","273278.505515","274045.557317","274812.742989","275580.177545","279466.484441","280233.43638","266390.282994","267157.319027","267924.471309","268691.458494","269458.589134","270226.132518","279475.310663","Mapping"
"Blocked","Male","ball","6","M_jaw.wav","None","733.91822353","205","278716.551145","270993.652713","271744.095215","272511.158455","273278.505515","274045.557317","274812.742989","275580.177545","279466.484441","280233.43638","281000.86939","267157.319027","267924.471309","268691.458494","269458.589134","270226.132518","280242.802106","Mapping"
"Blocked","Male","ball","6","M_ball.wav","None","732.454297598","205","278716.551145","270993.652713","271744.095215","272511.158455","273278.505515","274045.557317","274812.742989","275580.177545","279466.484441","280233.43638","281000.86939","281768.096491","267924.471309","268691.458494","269458.589134","270226.132518","281009.9683","Mapping"
"Blocked","Male","ball","6","M_greet.wav","space","458.347980399","205","278716.551145","270993.652713","271744.095215","272511.158455","273278.505515","274045.557317","274812.742989","275580.177545","279466.484441","280233.43638","281000.86939","281768.096491","282534.917959","268691.458494","269458.589134","270226.132518","281776.978673","Mapping"
"Blocked","Male","ball","6","M_gnash.wav","None","728.670041077","205","278716.551145","270993.652713","271744.095215","272511.158455","273278.505515","274045.557317","274812.742989","275580.177545","279466.484441","280233.43638","281000.86939","281768.096491","282534.917959","283302.305212","269458.589134","270226.132518","282543.971423","Mapping"
"Blocked","Male","ball","6","M_cling.wav","None","727.000825107","205","278716.551145","270993.652713","271744.095215","272511.158455","273278.505515","274045.557317","274812.742989","275580.177545","279466.484441","280233.43638","281000.86939","281768.096491","282534.917959","283302.305212","284069.703904","270226.132518","283311.376607","Mapping"
"Blocked","Male","ball","6","M_ball.wav","None","725.43394519","205","278716.551145","270993.652713","271744.095215","272511.158455","273278.505515","274045.557317","274812.742989","275580.177545","279466.484441","280233.43638","281000.86939","281768.096491","282534.917959","283302.305212","284069.703904","284836.841964","284078.619476","Mapping"
"Blocked","Male","ball","6","M_depth.wav","space","405.38322879","205","278716.551145","285604.283321","271744.095215","272511.158455","273278.505515","274045.557317","274812.742989","275580.177545","279466.484441","280233.43638","281000.86939","281768.096491","282534.917959","283302.305212","284069.703904","284836.841964","284845.854925","Mapping"
"Blocked","Male","ball","6","M_ball.wav","None","720.625095069","205","278716.551145","285604.283321","286354.587622","272511.158455","273278.505515","274045.557317","274812.742989","275580.177545","279466.484441","280233.43638","281000.86939","281768.096491","282534.917959","283302.305212","284069.703904","284836.841964","285613.250525","Mapping"
"Blocked","Male","ball","6","M_jolt.wav","space","373.767991085","205","278716.551145","285604.283321","286354.587622","287121.963126","273278.505515","274045.557317","274812.742989","275580.177545","279466.484441","280233.43638","281000.86939","281768.096491","282534.917959","283302.305212","284069.703904","284836.841964","286364.409376","Mapping"
"Blocked","Male","ball","6","M_ball.wav","None","733.157662209","205","278716.551145","285604.283321","286354.587622","287121.963126","287889.243405","274045.557317","274812.742989","275580.177545","279466.484441","280233.43638","281000.86939","281768.096491","282534.917959","283302.305212","284069.703904","284836.841964","287130.915799","Mapping"
"Blocked","Male","ball","6","M_cling.wav","space","359.418733045","205","278716.551145","285604.283321","286354.587622","287121.963126","287889.243405","288656.358277","274812.742989","275580.177545","279466.484441","280233.43638","281000.86939","281768.096491","282534.917959","283302.305212","284069.703904","284836.841964","287898.763407","Mapping"
"Blocked","Male","ball","6","M_jaw.wav","None","728.534005582","205","278716.551145","285604.283321","286354.587622","287121.963126","287889.243405","288656.358277","289423.803036","275580.177545","279466.484441","280233.43638","281000.86939","281768.096491","282534.917959","283302.305212","284069.703904","284836.841964","288665.746573","Mapping"
"Blocked","Male","ball","6","M_dime.wav","None","726.968053263","205","278716.551145","285604.283321","286354.587622","287121.963126","287889.243405","288656.358277","289423.803036","290191.243156","279466.484441","280233.43638","281000.86939","281768.096491","282534.917959","283302.305212","284069.703904","284836.841964","289433.28501","Mapping"
"Blocked","Male","done","22","M_cad.wav","None","725.326662418","205","293326.679349","285604.283321","286354.587622","287121.963126","287889.243405","288656.358277","289423.803036","290191.243156","279466.484441","280233.43638","281000.86939","281768.096491","282534.917959","283302.305212","284069.703904","284836.841964","290200.870441","Mapping"
"Blocked","Male","done","22","M_knife.wav","None","719.963777345","205","293326.679349","285604.283321","286354.587622","287121.963126","287889.243405","288656.358277","289423.803036","290191.243156","294077.063107","280233.43638","281000.86939","281768.096491","282534.917959","283302.305212","284069.703904","284836.841964","293335.961598","Mapping"
"Blocked","Male","done","22","M_done.wav","None","735.08163495","205","293326.679349","285604.283321","286354.587622","287121.963126","287889.243405","288656.358277","289423.803036","290191.243156","294077.063107","294844.624732","281000.86939","281768.096491","282534.917959","283302.305212","284069.703904","284836.841964","294086.596404","Mapping"
"Blocked","Male","done","22","M_park.wav","space","356.420081109","205","293326.679349","285604.283321","286354.587622","287121.963126","287889.243405","288656.358277","289423.803036","290191.243156","294077.063107","294844.624732","295611.666022","281768.096491","282534.917959","283302.305212","284069.703904","284836.841964","294853.582043","Mapping"
"Blocked","Male","done","22","M_cave.wav","None","730.376975611","205","293326.679349","285604.283321","286354.587622","287121.963126","287889.243405","288656.358277","289423.803036","290191.243156","294077.063107","294844.624732","295611.666022","296378.766981","282534.917959","283302.305212","284069.703904","284836.841964","295621.035458","Mapping"
"Blocked","Male","done","22","M_done.wav","None","729.697726201","205","293326.679349","285604.283321","286354.587622","287121.963126","287889.243405","288656.358277","289423.803036","290191.243156","294077.063107","294844.624732","295611.666022","296378.766981","297146.08096","283302.305212","284069.703904","284836.841964","296388.122814","Mapping"
"Blocked","Male","done","22","M_jolt.wav","space","351.38151655","205","293326.679349","285604.283321","286354.587622","287121.963126","287889.243405","288656.358277","289423.803036","290191.243156","294077.063107","294844.624732","295611.666022","296378.766981","297146.08096","297913.489854","284069.703904","284836.841964","297155.512539","Mapping"
"Blocked","Male","done","22","M_lash.wav","None","725.837104488","205","293326.679349","285604.283321","286354.587622","287121.963126","287889.243405","288656.358277","289423.803036","290191.243156","294077.063107","294844.624732","295611.666022","296378.766981","297146.08096","297913.489854","298680.458798","284836.841964","297922.584128","Mapping"
"Blocked","Male","done","22","M_cad.wav","None","724.144700915","205","293326.679349","285604.283321","286354.587622","287121.963126","287889.243405","288656.358277","289423.803036","290191.243156","294077.063107","294844.624732","295611.666022","296378.766981","297146.08096","297913.489854","298680.458798","299448.059378","298690.067532","Mapping"
"Blocked","Male","done","22","M_done.wav","None","722.886682954","205","293326.679349","300214.951647","286354.587622","287121.963126","287889.243405","288656.358277","289423.803036","290191.243156","294077.063107","294844.624732","295611.666022","296378.766981","297146.08096","297913.489854","298680.458798","299448.059378","299457.044823","Mapping"
"Blocked","Male","done","22","M_park.wav","space","362.539199181","205","293326.679349","300214.951647","300965.467113","287121.963126","287889.243405","288656.358277","289423.803036","290191.243156","294077.063107","294844.624732","295611.666022","296378.766981","297146.08096","297913.489854","298680.458798","299448.059378","300224.276562","Mapping"
"Blocked","Male","done","22","M_cling.wav","None","735.181806609","205","293326.679349","300214.951647","300965.467113","301732.888683","287889.243405","288656.358277","289423.803036","290191.243156","294077.063107","294844.624732","295611.666022","296378.766981","297146.08096","297913.489854","298680.458798","299448.059378","300975.006284","Mapping"
"Blocked","Male","done","22","M_reek.wav","None","733.613380697","205","293326.679349","300214.951647","300965.467113","301732.888683","302499.858245","288656.358277","289423.803036","290191.243156","294077.063107","294844.624732","295611.666022","296378.766981","297146.08096","297913.489854","298680.458798","299448.059378","301741.953894","Mapping"
"Blocked","Male","done","22","M_greet.wav","None","732.420288958","205","293326.679349","300214.951647","300965.467113","301732.888683","302499.858245","303266.99445","289423.803036","290191.243156","294077.063107","294844.624732","295611.666022","296378.766981","297146.08096","297913.489854","298680.458798","299448.059378","302508.922528","Mapping"
"Blocked","Male","done","22","M_done.wav","None","730.996245984","205","293326.679349","300214.951647","300965.467113","301732.888683","302499.858245","303266.99445","304034.383248","290191.243156","294077.063107","294844.624732","295611.666022","296378.766981","297146.08096","297913.489854","298680.458798","299448.059378","303276.133862","Mapping"
"Blocked","Male","done","22","M_bluff.wav","space","343.091088347","205","293326.679349","300214.951647","300965.467113","301732.888683","302499.858245","303266.99445","304034.383248","304801.66631","294077.063107","294844.624732","295611.666022","296378.766981","297146.08096","297913.489854","298680.458798","299448.059378","304043.67199","Mapping"
"Blocked","Male","done","23","M_greet.wav","None","726.532740053","205","307937.343656","300214.951647","300965.467113","301732.888683","302499.858245","303266.99445","304034.383248","304801.66631","294077.063107","294844.624732","295611.666022","296378.766981","297146.08096","297913.489854","298680.458798","299448.059378","304810.771713","Mapping"
"Blocked","Male","done","23","M_done.wav","None","721.192733385","205","307937.343656","300214.951647","300965.467113","301732.888683","302499.858245","303266.99445","304034.383248","304801.66631","308704.640939","294844.624732","295611.666022","296378.766981","297146.08096","297913.489854","298680.458798","299448.059378","307946.397428","Mapping"
"Blocked","Male","done","23","M_bluff.wav","space","335.830509663","205","307937.343656","300214.951647","300965.467113","301732.888683","302499.858245","303266.99445","304034.383248","304801.66631","308704.640939","309455.022534","295611.666022","296378.766981","297146.08096","297913.489854","298680.458798","299448.059378","308713.850843","Mapping"
"Blocked","Male","done","23","M_done.wav","None","733.456630725","205","307937.343656","300214.951647","300965.467113","301732.888683","302499.858245","303266.99445","304034.383248","304801.66631","308704.640939","309455.022534","310222.338058","296378.766981","297146.08096","297913.489854","298680.458798","299448.059378","309464.694339","Mapping"
"Blocked","Male","done","23","M_dime.wav","space","579.2568326","205","307937.343656","300214.951647","300965.467113","301732.888683","302499.858245","303266.99445","304034.383248","304801.66631","308704.640939","309455.022534","310222.338058","310989.657602","297146.08096","297913.489854","298680.458798","299448.059378","310231.35473","Mapping"
"Blocked","Male","done","23","M_done.wav","None","729.568493087","205","307937.343656","300214.951647","300965.467113","301732.888683","302499.858245","303266.99445","304034.383248","304801.66631","308704.640939","309455.022534","310222.338058","310989.657602","311756.484326","297913.489854","298680.458798","299448.059378","310998.70148","Mapping"
"Blocked","Male","done","23","M_romp.wav","space","356.208607554","205","307937.343656","300214.951647","300965.467113","301732.888683","302499.858245","303266.99445","304034.383248","304801.66631","308704.640939","309455.022534","310222.338058","310989.657602","311756.484326","312524.161272","298680.458798","299448.059378","311765.390933","Mapping"
"Blocked","Male","done","23","M_gnash.wav","None","725.463934708","205","307937.343656","300214.951647","300965.467113","301732.888683","302499.858245","303266.99445","304034.383248","304801.66631","308704.640939","309455.022534","310222.338058","310989.657602","311756.484326","312524.161272","313291.022006","299448.059378","312533.311506","Mapping"
"Blocked","Male","done","23","M_reek.wav","None","724.447688553","205","307937.343656","300214.951647","300965.467113","301732.888683","302499.858245","303266.99445","304034.383248","304801.66631","308704.640939","309455.022534","310222.338058","310989.657602","311756.484326","312524.161272","313291.022006","314058.627533","313300.266536","Mapping"
"Blocked","Male","done","23","M_tile.wav","None","722.956865095","205","307937.343656","314825.67717","300965.467113","301732.888683","302499.858245","303266.99445","304034.383248","304801.66631","308704.640939","309455.022534","310222.338058","310989.657602","311756.484326","312524.161272","313291.022006","314058.627533","314067.557636","Mapping"
"Blocked","Male","done","23","M_jolt.wav","None","721.591255162","205","307937.343656","314825.67717","315592.982492","301732.888683","302499.858245","303266.99445","304034.383248","304801.66631","308704.640939","309455.022534","310222.338058","310989.657602","311756.484326","312524.161272","313291.022006","314058.627533","314835.213249","Mapping"
"Blocked","Male","done","23","M_dime.wav","None","720.326744486","205","307937.343656","314825.67717","315592.982492","316343.346154","302499.858245","303266.99445","304034.383248","304801.66631","308704.640939","309455.022534","310222.338058","310989.657602","311756.484326","312524.161272","313291.022006","314058.627533","315602.357802","Mapping"
"Blocked","Male","done","23","M_jaw.wav","None","735.883316025","205","307937.343656","314825.67717","315592.982492","316343.346154","317110.533064","303266.99445","304034.383248","304801.66631","308704.640939","309455.022534","310222.338058","310989.657602","311756.484326","312524.161272","313291.022006","314058.627533","316352.782371","Mapping"
"Blocked","Male","done","23","M_depth.wav","None","735.278267879","205","307937.343656","314825.67717","315592.982492","316343.346154","317110.533064","317878.175382","304034.383248","304801.66631","308704.640939","309455.022534","310222.338058","310989.657602","311756.484326","312524.161272","313291.022006","314058.627533","317119.354648","Mapping"
"Blocked","Male","done","23","M_done.wav","None","733.14251285","205","307937.343656","314825.67717","315592.982492","316343.346154","317110.533064","317878.175382","318645.26954","304801.66631","308704.640939","309455.022534","310222.338058","310989.657602","311756.484326","312524.161272","313291.022006","314058.627533","317887.433516","Mapping"
"Blocked","Male","done","23","M_reek.wav","space","545.729061589","205","307937.343656","314825.67717","315592.982492","316343.346154","317110.533064","317878.175382","318645.26954","319412.445628","308704.640939","309455.022534","310222.338058","310989.657602","311756.484326","312524.161272","313291.022006","314058.627533","318656.673941","Mapping"
"Blocked","Male","tile","15","M_jolt.wav","None","729.824177455","205","322548.383915","314825.67717","315592.982492","316343.346154","317110.533064","317878.175382","318645.26954","319412.445628","308704.640939","309455.022534","310222.338058","310989.657602","311756.484326","312524.161272","313291.022006","314058.627533","319421.109226","Mapping"
"Blocked","Male","tile","15","M_cling.wav","None","721.16150707","205","322548.383915","314825.67717","315592.982492","316343.346154","317110.533064","317878.175382","318645.26954","319412.445628","323315.107995","309455.022534","310222.338058","310989.657602","311756.484326","312524.161272","313291.022006","314058.627533","322557.393475","Mapping"
"Blocked","Male","tile","15","M_tile.wav","None","720.208641142","205","322548.383915","314825.67717","315592.982492","316343.346154","317110.533064","317878.175382","318645.26954","319412.445628","323315.107995","324065.938506","310222.338058","310989.657602","311756.484326","312524.161272","313291.022006","314058.627533","323324.437548","Mapping"
"Blocked","Male","tile","15","M_greet.wav","space","350.533150602","205","322548.383915","314825.67717","315592.982492","316343.346154","317110.533064","317878.175382","318645.26954","319412.445628","323315.107995","324065.938506","324833.178593","310989.657602","311756.484326","312524.161272","313291.022006","314058.627533","324074.792554","Mapping"
"Blocked","Male","tile","15","M_reek.wav","None","733.23279107","205","322548.383915","314825.67717","315592.982492","316343.346154","317110.533064","317878.175382","318645.26954","319412.445628","323315.107995","324065.938506","324833.178593","325600.362101","311756.484326","312524.161272","313291.022006","314058.627533","324842.114261","Mapping"
"Blocked","Male","tile","15","M_reek.wav","None","731.758662034","205","322548.383915","314825.67717","315592.982492","316343.346154","317110.533064","317878.175382","318645.26954","319412.445628","323315.107995","324065.938506","324833.178593","325600.362101","326367.761102","312524.161272","313291.022006","314058.627533","325609.618071","Mapping"
"Blocked","Male","tile","15","M_romp.wav","None","730.333691929","205","322548.383915","314825.67717","315592.982492","316343.346154","317110.533064","317878.175382","318645.26954","319412.445628","323315.107995","324065.938506","324833.178593","325600.362101","326367.761102","327135.359209","313291.022006","314058.627533","326376.902988","Mapping"
"Blocked","Male","tile","15","M_greet.wav","None","728.34819369","205","322548.383915","314825.67717","315592.982492","316343.346154","317110.533064","317878.175382","318645.26954","319412.445628","323315.107995","324065.938506","324833.178593","325600.362101","326367.761102","327135.359209","327902.227053","314058.627533","327144.900544","Mapping"
"Blocked","Male","tile","15","M_knife.wav","None","727.955855429","205","322548.383915","314825.67717","315592.982492","316343.346154","317110.533064","317878.175382","318645.26954","319412.445628","323315.107995","324065.938506","324833.178593","325600.362101","326367.761102","327135.359209","327902.227053","328669.571331","327911.287936","Mapping"
"Blocked","Male","tile","15","M_tile.wav","None","726.940846071","205","322548.383915","329436.14268","315592.982492","316343.346154","317110.533064","317878.175382","318645.26954","319412.445628","323315.107995","324065.938506","324833.178593","325600.362101","326367.761102","327135.359209","327902.227053","328669.571331","328678.814316","Mapping"
"Blocked","Male","tile","15","M_romp.wav","space","523.983189836","205","322548.383915","329436.14268","330203.819316","316343.346154","317110.533064","317878.175382","318645.26954","319412.445628","323315.107995","324065.938506","324833.178593","325600.362101","326367.761102","327135.359209","327902.227053","328669.571331","329445.210983","Mapping"
"Blocked","Male","tile","15","M_knife.wav","None","726.852113847","205","322548.383915","329436.14268","330203.819316","330971.185545","317110.533064","317878.175382","318645.26954","319412.445628","323315.107995","324065.938506","324833.178593","325600.362101","326367.761102","327135.359209","327902.227053","328669.571331","330212.89102","Mapping"
"Blocked","Male","tile","15","M_tile.wav","None","725.737242028","205","322548.383915","329436.14268","330203.819316","330971.185545","331738.131301","317878.175382","318645.26954","319412.445628","323315.107995","324065.938506","324833.178593","325600.362101","326367.761102","327135.359209","327902.227053","328669.571331","330980.199125","Mapping"
"Blocked","Male","tile","15","M_cling.wav","space","422.967345454","205","322548.383915","329436.14268","330203.819316","330971.185545","331738.131301","332505.705602","318645.26954","319412.445628","323315.107995","324065.938506","324833.178593","325600.362101","326367.761102","327135.359209","327902.227053","328669.571331","331747.145499","Mapping"
"Blocked","Male","tile","15","M_tile.wav","None","721.972153988","205","322548.383915","329436.14268","330203.819316","330971.185545","331738.131301","332505.705602","333272.71752","319412.445628","323315.107995","324065.938506","324833.178593","325600.362101","326367.761102","327135.359209","327902.227053","328669.571331","332514.699394","Mapping"
"Blocked","Male","tile","15","M_done.wav","space","407.333172392","205","322548.383915","329436.14268","330203.819316","330971.185545","331738.131301","332505.705602","333272.71752","334022.993687","323315.107995","324065.938506","324833.178593","325600.362101","326367.761102","327135.359209","327902.227053","328669.571331","333281.770055","Mapping"
"Blocked","Male","cave","7","M_reek.wav","None","735.126465093","205","337159.00061","329436.14268","330203.819316","330971.185545","331738.131301","332505.705602","333272.71752","334022.993687","323315.107995","324065.938506","324833.178593","325600.362101","326367.761102","327135.359209","327902.227053","328669.571331","334032.097235","Mapping"
"Blocked","Male","cave","7","M_cling.wav","None","721.094726119","205","337159.00061","329436.14268","330203.819316","330971.185545","331738.131301","332505.705602","333272.71752","334022.993687","337909.648092","324065.938506","324833.178593","325600.362101","326367.761102","327135.359209","327902.227053","328669.571331","337168.036759","Mapping"
"Blocked","Male","cave","7","M_cling.wav","None","736.558855511","205","337159.00061","329436.14268","330203.819316","330971.185545","331738.131301","332505.705602","333272.71752","334022.993687","337909.648092","338676.894053","324833.178593","325600.362101","326367.761102","327135.359209","327902.227053","328669.571331","337918.606639","Mapping"
"Blocked","Male","cave","7","M_ball.wav","None","734.853775706","205","337159.00061","329436.14268","330203.819316","330971.185545","331738.131301","332505.705602","333272.71752","334022.993687","337909.648092","338676.894053","339443.854649","325600.362101","326367.761102","327135.359209","327902.227053","328669.571331","338686.097464","Mapping"
"Blocked","Male","cave","7","M_depth.wav","None","734.313035384","205","337159.00061","329436.14268","330203.819316","330971.185545","331738.131301","332505.705602","333272.71752","334022.993687","337909.648092","338676.894053","339443.854649","340211.335579","326367.761102","327135.359209","327902.227053","328669.571331","339452.705604","Mapping"
"Blocked","Male","cave","7","M_cad.wav","None","732.116682455","205","337159.00061","329436.14268","330203.819316","330971.185545","331738.131301","332505.705602","333272.71752","334022.993687","337909.648092","338676.894053","339443.854649","340211.335579","340978.523107","327135.359209","327902.227053","328669.571331","340221.054997","Mapping"
"Blocked","Male","cave","7","M_cave.wav","space","341.415070463","205","337159.00061","329436.14268","330203.819316","330971.185545","331738.131301","332505.705602","333272.71752","334022.993687","337909.648092","338676.894053","339443.854649","340211.335579","340978.523107","341745.864911","327902.227053","328669.571331","340987.480727","Mapping"
"Blocked","Male","cave","7","M_priest.wav","space","646.036594175","205","337159.00061","329436.14268","330203.819316","330971.185545","331738.131301","332505.705602","333272.71752","334022.993687","337909.648092","338676.894053","339443.854649","340211.335579","340978.523107","341745.864911","342512.837874","328669.571331","341754.840154","Mapping"
"Blocked","Male","cave","7","M_cave.wav","None","726.1620434","205","337159.00061","329436.14268","330203.819316","330971.185545","331738.131301","332505.705602","333272.71752","334022.993687","337909.648092","338676.894053","339443.854649","340211.335579","340978.523107","341745.864911","342512.837874","343279.89926","342521.702433","Mapping"
"Blocked","Male","cave","7","M_jaw.wav","space","592.772255186","205","337159.00061","344047.432131","330203.819316","330971.185545","331738.131301","332505.705602","333272.71752","334022.993687","337909.648092","338676.894053","339443.854649","340211.335579","340978.523107","341745.864911","342512.837874","343279.89926","343289.038363","Mapping"
"Blocked","Male","cave","7","M_depth.wav","None","721.759753302","205","337159.00061","344047.432131","344814.915227","330971.185545","331738.131301","332505.705602","333272.71752","334022.993687","337909.648092","338676.894053","339443.854649","340211.335579","340978.523107","341745.864911","342512.837874","343279.89926","344056.407992","Mapping"
"Blocked","Male","cave","7","M_cad.wav","None","720.594486687","205","337159.00061","344047.432131","344814.915227","345581.783999","331738.131301","332505.705602","333272.71752","334022.993687","337909.648092","338676.894053","339443.854649","340211.335579","340978.523107","341745.864911","342512.837874","343279.89926","344823.850895","Mapping"
"Blocked","Male","cave","7","M_cave.wav","None","719.454263337","205","337159.00061","344047.432131","344814.915227","345581.783999","346332.39067","332505.705602","333272.71752","334022.993687","337909.648092","338676.894053","339443.854649","340211.335579","340978.523107","341745.864911","342512.837874","343279.89926","345590.881363","Mapping"
"Blocked","Male","cave","7","M_dime.wav","space","538.700979669","205","337159.00061","344047.432131","344814.915227","345581.783999","346332.39067","347099.404443","333272.71752","334022.993687","337909.648092","338676.894053","339443.854649","340211.335579","340978.523107","341745.864911","342512.837874","343279.89926","346342.06804","Mapping"
