"Condition","Talker","Target","Trial","current_stimulus","response_response","response_time_response","subject_nr","time_Audio1","time_Audio10","time_Audio11","time_Audio12","time_Audio13","time_Audio14","time_Audio15","time_Audio16","time_Audio2","time_Audio3","time_Audio4","time_Audio5","time_Audio6","time_Audio7","time_Audio8","time_Audio9","time_response","title"
"Mixed","Male","tile","25","F_jaw.wav","NA","NA","228","91740.9307907","NA","NA","NA","NA","NA","NA","NA","NA","NA","NA","NA","NA","NA","NA","NA","NA","Mapping"
"Mixed","Male","tile","25","F_done.wav","None","716.17714758","228","91740.9307907","NA","NA","NA","NA","NA","NA","NA","92507.8911821","NA","NA","NA","NA","NA","NA","NA","91755.8357214","Mapping"
"Mixed","Male","tile","25","M_bluff.wav","None","718.650842318","228","91740.9307907","NA","NA","NA","NA","NA","NA","NA","92507.8911821","93257.0552551","NA","NA","NA","NA","NA","NA","92517.9761028","Mapping"
"Mixed","Male","tile","25","M_tile.wav","None","735.330736497","228","91740.9307907","NA","NA","NA","NA","NA","NA","NA","92507.8911821","93257.0552551","94023.8981608","NA","NA","NA","NA","NA","93266.3437455","Mapping"
"Mixed","Male","tile","25","F_greet.wav","space","527.6841413","228","91740.9307907","NA","NA","NA","NA","NA","NA","NA","92507.8911821","93257.0552551","94023.8981608","94790.4204539","NA","NA","NA","NA","94033.6748357","Mapping"
"Mixed","Male","tile","25","F_jolt.wav","None","731.169883511","228","91740.9307907","NA","NA","NA","NA","NA","NA","NA","92507.8911821","93257.0552551","94023.8981608","94790.4204539","95556.9823212","NA","NA","NA","94799.8638401","Mapping"
"Mixed","Male","tile","25","M_jaw.wav","None","729.416253162","228","91740.9307907","NA","NA","NA","NA","NA","NA","NA","92507.8911821","93257.0552551","94023.8981608","94790.4204539","95556.9823212","96323.9260173","NA","NA","95566.3648002","Mapping"
"Mixed","Male","tile","25","M_tile.wav","None","727.126207319","228","91740.9307907","NA","NA","NA","NA","NA","NA","NA","92507.8911821","93257.0552551","94023.8981608","94790.4204539","95556.9823212","96323.9260173","97090.3518484","NA","96333.3975383","Mapping"
"Mixed","Male","tile","25","M_gnash.wav","space","437.201512628","228","91740.9307907","NA","NA","NA","NA","NA","NA","NA","92507.8911821","93257.0552551","94023.8981608","94790.4204539","95556.9823212","96323.9260173","97090.3518484","97857.5181492","97100.12976","Mapping"
"Mixed","Male","tile","25","M_tile.wav","None","722.821588861","228","91740.9307907","98623.4186949","NA","NA","NA","NA","NA","NA","92507.8911821","93257.0552551","94023.8981608","94790.4204539","95556.9823212","96323.9260173","97090.3518484","97857.5181492","97867.2286611","Mapping"
"Mixed","Male","tile","25","F_jolt.wav","space","608.375872951","228","91740.9307907","98623.4186949","99390.1400956","NA","NA","NA","NA","NA","92507.8911821","93257.0552551","94023.8981608","94790.4204539","95556.9823212","96323.9260173","97090.3518484","97857.5181492","98632.9279351","Mapping"
"Mixed","Male","tile","25","M_cad.wav","None","720.570189529","228","91740.9307907","98623.4186949","99390.1400956","100140.233234","NA","NA","NA","NA","92507.8911821","93257.0552551","94023.8981608","94790.4204539","95556.9823212","96323.9260173","97090.3518484","97857.5181492","99399.1917594","Mapping"
"Mixed","Male","tile","25","F_priest.wav","None","734.69136632","228","91740.9307907","98623.4186949","99390.1400956","100140.233234","100906.683181","NA","NA","NA","92507.8911821","93257.0552551","94023.8981608","94790.4204539","95556.9823212","96323.9260173","97090.3518484","97857.5181492","100149.863361","Mapping"
"Mixed","Male","tile","25","M_tile.wav","None","733.860308654","228","91740.9307907","98623.4186949","99390.1400956","100140.233234","100906.683181","101673.771879","NA","NA","92507.8911821","93257.0552551","94023.8981608","94790.4204539","95556.9823212","96323.9260173","97090.3518484","97857.5181492","100915.512858","Mapping"
"Mixed","Male","tile","25","F_lash.wav","space","502.001432702","228","91740.9307907","98623.4186949","99390.1400956","100140.233234","100906.683181","101673.771879","102439.976342","NA","92507.8911821","93257.0552551","94023.8981608","94790.4204539","95556.9823212","96323.9260173","97090.3518484","97857.5181492","101683.206299","Mapping"
"Mixed","Male","tile","25","F_greet.wav","None","729.84383977","228","91740.9307907","98623.4186949","99390.1400956","100140.233234","100906.683181","101673.771879","102439.976342","103206.665898","92507.8911821","93257.0552551","94023.8981608","94790.4204539","95556.9823212","96323.9260173","97090.3518484","97857.5181492","102448.854869","Mapping"
"Mixed","Male","cave","16","M_jolt.wav","None","727.98972798","228","106357.631152","98623.4186949","99390.1400956","100140.233234","100906.683181","101673.771879","102439.976342","103206.665898","92507.8911821","93257.0552551","94023.8981608","94790.4204539","95556.9823212","96323.9260173","97090.3518484","97857.5181492","103215.538859","Mapping"
"Mixed","Male","cave","16","F_reek.wav","None","721.471429453","228","106357.631152","98623.4186949","99390.1400956","100140.233234","100906.683181","101673.771879","102439.976342","103206.665898","107124.082644","93257.0552551","94023.8981608","94790.4204539","95556.9823212","96323.9260173","97090.3518484","97857.5181492","106367.102364","Mapping"
"Mixed","Male","cave","16","F_jolt.wav","None","719.086158206","228","106357.631152","98623.4186949","99390.1400956","100140.233234","100906.683181","101673.771879","102439.976342","103206.665898","107124.082644","107873.26434","94023.8981608","94790.4204539","95556.9823212","96323.9260173","97090.3518484","97857.5181492","107133.972786","Mapping"
"Mixed","Male","cave","16","F_gnash.wav","None","736.861453042","228","106357.631152","98623.4186949","99390.1400956","100140.233234","100906.683181","101673.771879","102439.976342","103206.665898","107124.082644","107873.26434","108640.320885","94790.4204539","95556.9823212","96323.9260173","97090.3518484","97857.5181492","107882.023835","Mapping"
"Mixed","Male","cave","16","M_cave.wav","None","734.94767095","228","106357.631152","98623.4186949","99390.1400956","100140.233234","100906.683181","101673.771879","102439.976342","103206.665898","107124.082644","107873.26434","108640.320885","109406.704359","95556.9823212","96323.9260173","97090.3518484","97857.5181492","108649.167876","Mapping"
"Mixed","Male","cave","16","M_depth.wav","space","433.351687971","228","106357.631152","98623.4186949","99390.1400956","100140.233234","100906.683181","101673.771879","102439.976342","103206.665898","107124.082644","107873.26434","108640.320885","109406.704359","110173.24613","96323.9260173","97090.3518484","97857.5181492","109415.744274","Mapping"
"Mixed","Male","cave","16","F_priest.wav","None","730.59760395","228","106357.631152","98623.4186949","99390.1400956","100140.233234","100906.683181","101673.771879","102439.976342","103206.665898","107124.082644","107873.26434","108640.320885","109406.704359","110173.24613","110940.143141","97090.3518484","97857.5181492","110182.602638","Mapping"
"Mixed","Male","cave","16","M_cave.wav","None","728.714430006","228","106357.631152","98623.4186949","99390.1400956","100140.233234","100906.683181","101673.771879","102439.976342","103206.665898","107124.082644","107873.26434","108640.320885","109406.704359","110173.24613","110940.143141","111706.997177","97857.5181492","110949.176254","Mapping"
"Mixed","Male","cave","16","M_bluff.wav","space","452.453644946","228","106357.631152","98623.4186949","99390.1400956","100140.233234","100906.683181","101673.771879","102439.976342","103206.665898","107124.082644","107873.26434","108640.320885","109406.704359","110173.24613","110940.143141","111706.997177","112473.94211","111716.585565","Mapping"
"Mixed","Male","cave","16","F_bluff.wav","None","723.450138001","228","106357.631152","113240.592091","99390.1400956","100140.233234","100906.683181","101673.771879","102439.976342","103206.665898","107124.082644","107873.26434","108640.320885","109406.704359","110173.24613","110940.143141","111706.997177","112473.94211","112483.618613","Mapping"
"Mixed","Male","cave","16","M_cave.wav","None","721.275104559","228","106357.631152","113240.592091","114007.217339","100140.233234","100906.683181","101673.771879","102439.976342","103206.665898","107124.082644","107873.26434","108640.320885","109406.704359","110173.24613","110940.143141","111706.997177","112473.94211","113250.427509","Mapping"
"Mixed","Male","cave","16","M_priest.wav","space","504.01507772","228","106357.631152","113240.592091","114007.217339","114756.690894","100906.683181","101673.771879","102439.976342","103206.665898","107124.082644","107873.26434","108640.320885","109406.704359","110173.24613","110940.143141","111706.997177","112473.94211","114016.977628","Mapping"
"Mixed","Male","cave","16","F_tile.wav","None","734.624894103","228","106357.631152","113240.592091","114007.217339","114756.690894","115523.556988","101673.771879","102439.976342","103206.665898","107124.082644","107873.26434","108640.320885","109406.704359","110173.24613","110940.143141","111706.997177","112473.94211","114766.475608","Mapping"
"Mixed","Male","cave","16","M_cave.wav","None","732.747285278","228","106357.631152","113240.592091","114007.217339","114756.690894","115523.556988","116290.030741","102439.976342","103206.665898","107124.082644","107873.26434","108640.320885","109406.704359","110173.24613","110940.143141","111706.997177","112473.94211","115533.111677","Mapping"
"Mixed","Male","cave","16","F_cad.wav","space","453.581817797","228","106357.631152","113240.592091","114007.217339","114756.690894","115523.556988","116290.030741","117056.911675","103206.665898","107124.082644","107873.26434","108640.320885","109406.704359","110173.24613","110940.143141","111706.997177","112473.94211","116299.359733","Mapping"
"Mixed","Male","cave","16","F_greet.wav","None","729.044008651","228","106357.631152","113240.592091","114007.217339","114756.690894","115523.556988","116290.030741","117056.911675","117823.471687","107124.082644","107873.26434","108640.320885","109406.704359","110173.24613","110940.143141","111706.997177","112473.94211","117065.929639","Mapping"
"Mixed","Female","ball","9","F_reek.wav","None","725.939909695","228","120957.168382","113240.592091","114007.217339","114756.690894","115523.556988","116290.030741","117056.911675","117823.471687","107124.082644","107873.26434","108640.320885","109406.704359","110173.24613","110940.143141","111706.997177","112473.94211","117833.751696","Mapping"
"Mixed","Female","ball","9","M_knife.wav","None","721.963633201","228","120957.168382","113240.592091","114007.217339","114756.690894","115523.556988","116290.030741","117056.911675","117823.471687","121723.666868","107873.26434","108640.320885","109406.704359","110173.24613","110940.143141","111706.997177","112473.94211","120966.83901","Mapping"
"Mixed","Female","ball","9","F_gnash.wav","None","719.784889603","228","120957.168382","113240.592091","114007.217339","114756.690894","115523.556988","116290.030741","117056.911675","117823.471687","121723.666868","122473.303976","108640.320885","109406.704359","110173.24613","110940.143141","111706.997177","112473.94211","121733.797547","Mapping"
"Mixed","Female","ball","9","M_park.wav","None","735.529843951","228","120957.168382","113240.592091","114007.217339","114756.690894","115523.556988","116290.030741","117056.911675","117823.471687","121723.666868","122473.303976","123239.925514","109406.704359","110173.24613","110940.143141","111706.997177","112473.94211","122482.871959","Mapping"
"Mixed","Female","ball","9","F_ball.wav","None","733.623791253","228","120957.168382","113240.592091","114007.217339","114756.690894","115523.556988","116290.030741","117056.911675","117823.471687","121723.666868","122473.303976","123239.925514","124006.344852","110173.24613","110940.143141","111706.997177","112473.94211","123249.602017","Mapping"
"Mixed","Female","ball","9","M_reek.wav","space","409.45878299","228","120957.168382","113240.592091","114007.217339","114756.690894","115523.556988","116290.030741","117056.911675","117823.471687","121723.666868","122473.303976","123239.925514","124006.344852","124773.361513","110940.143141","111706.997177","112473.94211","124015.400845","Mapping"
"Mixed","Female","ball","9","M_bluff.wav","None","729.752015206","228","120957.168382","113240.592091","114007.217339","114756.690894","115523.556988","116290.030741","117056.911675","117823.471687","121723.666868","122473.303976","123239.925514","124006.344852","124773.361513","125539.824754","111706.997177","112473.94211","124782.959486","Mapping"
"Mixed","Female","ball","9","F_ball.wav","None","728.407421033","228","120957.168382","113240.592091","114007.217339","114756.690894","115523.556988","116290.030741","117056.911675","117823.471687","121723.666868","122473.303976","123239.925514","124006.344852","124773.361513","125539.824754","126306.265735","112473.94211","125549.2162","Mapping"
"Mixed","Female","ball","9","F_cave.wav","space","493.365606875","228","120957.168382","113240.592091","114007.217339","114756.690894","115523.556988","116290.030741","117056.911675","117823.471687","121723.666868","122473.303976","123239.925514","124006.344852","124773.361513","125539.824754","126306.265735","127073.738426","126315.397475","Mapping"
"Mixed","Female","ball","9","M_jolt.wav","None","723.334198003","228","120957.168382","127839.978754","114007.217339","114756.690894","115523.556988","116290.030741","117056.911675","117823.471687","121723.666868","122473.303976","123239.925514","124006.344852","124773.361513","125539.824754","126306.265735","127073.738426","127083.680509","Mapping"
"Mixed","Female","ball","9","M_lash.wav","None","721.720313886","228","120957.168382","127839.978754","128606.363155","114756.690894","115523.556988","116290.030741","117056.911675","117823.471687","121723.666868","122473.303976","123239.925514","124006.344852","124773.361513","125539.824754","126306.265735","127073.738426","127850.119944","Mapping"
"Mixed","Female","ball","9","F_ball.wav","None","721.200593747","228","120957.168382","127839.978754","128606.363155","129356.201226","115523.556988","116290.030741","117056.911675","117823.471687","121723.666868","122473.303976","123239.925514","124006.344852","124773.361513","125539.824754","126306.265735","127073.738426","128615.569406","Mapping"
"Mixed","Female","ball","9","M_cad.wav","space","475.314838812","228","120957.168382","127839.978754","128606.363155","129356.201226","130122.851517","116290.030741","117056.911675","117823.471687","121723.666868","122473.303976","123239.925514","124006.344852","124773.361513","125539.824754","126306.265735","127073.738426","129365.374395","Mapping"
"Mixed","Female","ball","9","F_ball.wav","None","734.599851072","228","120957.168382","127839.978754","128606.363155","129356.201226","130122.851517","130889.411529","117056.911675","117823.471687","121723.666868","122473.303976","123239.925514","124006.344852","124773.361513","125539.824754","126306.265735","127073.738426","130131.740246","Mapping"
"Mixed","Female","ball","9","M_jaw.wav","space","486.128789838","228","120957.168382","127839.978754","128606.363155","129356.201226","130122.851517","130889.411529","131656.524343","117823.471687","121723.666868","122473.303976","123239.925514","124006.344852","124773.361513","125539.824754","126306.265735","127073.738426","130898.55038","Mapping"
"Mixed","Female","ball","9","F_cling.wav","None","729.70440262","228","120957.168382","127839.978754","128606.363155","129356.201226","130122.851517","130889.411529","131656.524343","132423.227502","121723.666868","122473.303976","123239.925514","124006.344852","124773.361513","125539.824754","126306.265735","127073.738426","131665.990299","Mapping"
"Mixed","Male","cave","13","F_done.wav","None","727.47433628","228","135557.084657","127839.978754","128606.363155","129356.201226","130122.851517","130889.411529","131656.524343","132423.227502","121723.666868","122473.303976","123239.925514","124006.344852","124773.361513","125539.824754","126306.265735","127073.738426","132433.100639","Mapping"
"Mixed","Male","cave","13","M_cave.wav","None","721.495544887","228","135557.084657","127839.978754","128606.363155","129356.201226","130122.851517","130889.411529","131656.524343","132423.227502","136322.871428","122473.303976","123239.925514","124006.344852","124773.361513","125539.824754","126306.265735","127073.738426","135566.569782","Mapping"
"Mixed","Male","cave","13","M_gnash.wav","space","564.420719165","228","135557.084657","127839.978754","128606.363155","129356.201226","130122.851517","130889.411529","131656.524343","132423.227502","136322.871428","137072.642717","123239.925514","124006.344852","124773.361513","125539.824754","126306.265735","127073.738426","136332.182488","Mapping"
"Mixed","Male","cave","13","M_done.wav","None","736.221464467","228","135557.084657","127839.978754","128606.363155","129356.201226","130122.851517","130889.411529","131656.524343","132423.227502","136322.871428","137072.642717","137839.592905","124006.344852","124773.361513","125539.824754","126306.265735","127073.738426","137081.599773","Mapping"
"Mixed","Male","cave","13","M_cave.wav","None","739.348442177","228","135557.084657","127839.978754","128606.363155","129356.201226","130122.851517","130889.411529","131656.524343","132423.227502","136322.871428","137072.642717","137839.592905","138606.461782","124773.361513","125539.824754","126306.265735","127073.738426","137843.62607","Mapping"
"Mixed","Male","cave","13","F_romp.wav","space","392.486101948","228","135557.084657","127839.978754","128606.363155","129356.201226","130122.851517","130889.411529","131656.524343","132423.227502","136322.871428","137072.642717","137839.592905","138606.461782","139373.140207","125539.824754","126306.265735","127073.738426","138616.083252","Mapping"
"Mixed","Male","cave","13","M_ball.wav","None","729.566820548","228","135557.084657","127839.978754","128606.363155","129356.201226","130122.851517","130889.411529","131656.524343","132423.227502","136322.871428","137072.642717","137839.592905","138606.461782","139373.140207","140139.597883","126306.265735","127073.738426","139382.673872","Mapping"
"Mixed","Male","cave","13","M_cave.wav","None","727.72662167","228","135557.084657","127839.978754","128606.363155","129356.201226","130122.851517","130889.411529","131656.524343","132423.227502","136322.871428","137072.642717","137839.592905","138606.461782","139373.140207","140139.597883","140906.35793","127073.738426","140149.441339","Mapping"
"Mixed","Male","cave","13","F_romp.wav","space","484.46110962","228","135557.084657","127839.978754","128606.363155","129356.201226","130122.851517","130889.411529","131656.524343","132423.227502","136322.871428","137072.642717","137839.592905","138606.461782","139373.140207","140139.597883","140906.35793","141673.391596","140916.045563","Mapping"
"Mixed","Male","cave","13","M_cave.wav","None","722.928871866","228","135557.084657","142439.557412","128606.363155","129356.201226","130122.851517","130889.411529","131656.524343","132423.227502","136322.871428","137072.642717","137839.592905","138606.461782","139373.140207","140139.597883","140906.35793","141673.391596","141683.508052","Mapping"
"Mixed","Male","cave","13","F_reek.wav","space","575.915778754","228","135557.084657","142439.557412","143206.625396","129356.201226","130122.851517","130889.411529","131656.524343","132423.227502","136322.871428","137072.642717","137839.592905","138606.461782","139373.140207","140139.597883","140906.35793","141673.391596","142448.637829","Mapping"
"Mixed","Male","cave","13","F_knife.wav","None","719.590110471","228","135557.084657","142439.557412","143206.625396","143955.767518","130122.851517","130889.411529","131656.524343","132423.227502","136322.871428","137072.642717","137839.592905","138606.461782","139373.140207","140139.597883","140906.35793","141673.391596","143216.461123","Mapping"
"Mixed","Male","cave","13","M_lash.wav","None","736.057293485","228","135557.084657","142439.557412","143206.625396","143955.767518","144722.500667","130889.411529","131656.524343","132423.227502","136322.871428","137072.642717","137839.592905","138606.461782","139373.140207","140139.597883","140906.35793","141673.391596","143964.951199","Mapping"
"Mixed","Male","cave","13","F_greet.wav","None","734.411564539","228","135557.084657","142439.557412","143206.625396","143955.767518","144722.500667","145489.498159","131656.524343","132423.227502","136322.871428","137072.642717","137839.592905","138606.461782","139373.140207","140139.597883","140906.35793","141673.391596","144731.475965","Mapping"
"Mixed","Male","cave","13","F_dime.wav","None","731.813272927","228","135557.084657","142439.557412","143206.625396","143955.767518","144722.500667","145489.498159","146256.245221","132423.227502","136322.871428","137072.642717","137839.592905","138606.461782","139373.140207","140139.597883","140906.35793","141673.391596","145499.023167","Mapping"
"Mixed","Male","cave","13","F_tile.wav","None","730.053149979","228","135557.084657","142439.557412","143206.625396","143955.767518","144722.500667","145489.498159","146256.245221","147022.9861","136322.871428","137072.642717","137839.592905","138606.461782","139373.140207","140139.597883","140906.35793","141673.391596","146265.791562","Mapping"
"Mixed","Male","cave","14","F_romp.wav","None","728.069494711","228","150156.442876","142439.557412","143206.625396","143955.767518","144722.500667","145489.498159","146256.245221","147022.9861","136322.871428","137072.642717","137839.592905","138606.461782","139373.140207","140139.597883","140906.35793","141673.391596","147032.676825","Mapping"
"Mixed","Male","cave","14","M_cave.wav","None","721.194410231","228","150156.442876","142439.557412","143206.625396","143955.767518","144722.500667","145489.498159","146256.245221","147022.9861","150923.469121","137072.642717","137839.592905","138606.461782","139373.140207","140139.597883","140906.35793","141673.391596","150166.382485","Mapping"
"Mixed","Male","cave","14","F_jolt.wav","space","643.026150181","228","150156.442876","142439.557412","143206.625396","143955.767518","144722.500667","145489.498159","146256.245221","147022.9861","150923.469121","151672.353702","137839.592905","138606.461782","139373.140207","140139.597883","140906.35793","141673.391596","150933.290935","Mapping"
"Mixed","Male","cave","14","F_cling.wav","None","735.847055796","228","150156.442876","142439.557412","143206.625396","143955.767518","144722.500667","145489.498159","146256.245221","147022.9861","150923.469121","151672.353702","152439.282248","138606.461782","139373.140207","140139.597883","140906.35793","141673.391596","151681.099902","Mapping"
"Mixed","Male","cave","14","F_lash.wav","None","732.69317986","228","150156.442876","142439.557412","143206.625396","143955.767518","144722.500667","145489.498159","146256.245221","147022.9861","150923.469121","151672.353702","152439.282248","153205.70035","139373.140207","140139.597883","140906.35793","141673.391596","152449.245355","Mapping"
"Mixed","Male","cave","14","M_cave.wav","None","732.333920663","228","150156.442876","142439.557412","143206.625396","143955.767518","144722.500667","145489.498159","146256.245221","147022.9861","150923.469121","151672.353702","152439.282248","153205.70035","153972.352496","140139.597883","140906.35793","141673.391596","153214.680595","Mapping"
"Mixed","Male","cave","14","F_jaw.wav","space","299.125379883","228","150156.442876","142439.557412","143206.625396","143955.767518","144722.500667","145489.498159","146256.245221","147022.9861","150923.469121","151672.353702","152439.282248","153205.70035","153972.352496","154739.052254","140906.35793","141673.391596","153981.145382","Mapping"
"Mixed","Male","cave","14","F_jolt.wav","None","728.603127645","228","150156.442876","142439.557412","143206.625396","143955.767518","144722.500667","145489.498159","146256.245221","147022.9861","150923.469121","151672.353702","152439.282248","153205.70035","153972.352496","154739.052254","155506.211753","141673.391596","154747.911612","Mapping"
"Mixed","Male","cave","14","M_cave.wav","None","725.402257522","228","150156.442876","142439.557412","143206.625396","143955.767518","144722.500667","145489.498159","146256.245221","147022.9861","150923.469121","151672.353702","152439.282248","153205.70035","153972.352496","154739.052254","155506.211753","156273.112165","155516.026147","Mapping"
"Mixed","Male","cave","14","F_greet.wav","space","517.419590964","228","150156.442876","157039.687636","143206.625396","143955.767518","144722.500667","145489.498159","146256.245221","147022.9861","150923.469121","151672.353702","152439.282248","153205.70035","153972.352496","154739.052254","155506.211753","156273.112165","156282.833498","Mapping"
"Mixed","Male","cave","14","M_depth.wav","None","721.68012138","228","150156.442876","157039.687636","157805.878496","143955.767518","144722.500667","145489.498159","146256.245221","147022.9861","150923.469121","151672.353702","152439.282248","153205.70035","153972.352496","154739.052254","155506.211753","156273.112165","157049.212026","Mapping"
"Mixed","Male","cave","14","F_reek.wav","None","721.084962948","228","150156.442876","157039.687636","157805.878496","158555.80468","144722.500667","145489.498159","146256.245221","147022.9861","150923.469121","151672.353702","152439.282248","153205.70035","153972.352496","154739.052254","155506.211753","156273.112165","157814.784539","Mapping"
"Mixed","Male","cave","14","M_cad.wav","None","735.084325424","228","150156.442876","157039.687636","157805.878496","158555.80468","159322.652533","145489.498159","146256.245221","147022.9861","150923.469121","151672.353702","152439.282248","153205.70035","153972.352496","154739.052254","155506.211753","156273.112165","158565.77768","Mapping"
"Mixed","Male","cave","14","M_priest.wav","None","734.318503411","228","150156.442876","157039.687636","157805.878496","158555.80468","159322.652533","160089.195541","146256.245221","147022.9861","150923.469121","151672.353702","152439.282248","153205.70035","153972.352496","154739.052254","155506.211753","156273.112165","159331.985853","Mapping"
"Mixed","Male","cave","14","M_cave.wav","None","733.681915794","228","150156.442876","157039.687636","157805.878496","158555.80468","159322.652533","160089.195541","160855.712578","147022.9861","150923.469121","151672.353702","152439.282248","153205.70035","153972.352496","154739.052254","155506.211753","156273.112165","160098.197737","Mapping"
"Mixed","Male","cave","14","M_cling.wav","space","567.67353043","228","150156.442876","157039.687636","157805.878496","158555.80468","159322.652533","160089.195541","160855.712578","161622.164689","150923.469121","151672.353702","152439.282248","153205.70035","153972.352496","154739.052254","155506.211753","156273.112165","160864.446721","Mapping"
"Mixed","Male","done","41","F_jolt.wav","None","732.048553764","228","164756.243521","157039.687636","157805.878496","158555.80468","159322.652533","160089.195541","160855.712578","161622.164689","150923.469121","151672.353702","152439.282248","153205.70035","153972.352496","154739.052254","155506.211753","156273.112165","161631.028375","Mapping"
"Mixed","Male","done","41","F_depth.wav","None","721.529244911","228","164756.243521","157039.687636","157805.878496","158555.80468","159322.652533","160089.195541","160855.712578","161622.164689","165523.122909","151672.353702","152439.282248","153205.70035","153972.352496","154739.052254","155506.211753","156273.112165","164766.095016","Mapping"
"Mixed","Male","done","41","M_done.wav","None","719.664621283","228","164756.243521","157039.687636","157805.878496","158555.80468","159322.652533","160089.195541","160855.712578","161622.164689","165523.122909","166272.688598","152439.282248","153205.70035","153972.352496","154739.052254","155506.211753","156273.112165","165532.99079","Mapping"
"Mixed","Male","done","41","F_bluff.wav","space","613.919657539","228","164756.243521","157039.687636","157805.878496","158555.80468","159322.652533","160089.195541","160855.712578","161622.164689","165523.122909","166272.688598","167039.141018","153205.70035","153972.352496","154739.052254","155506.211753","156273.112165","166282.141259","Mapping"
"Mixed","Male","done","41","M_done.wav","None","733.716543182","228","164756.243521","157039.687636","157805.878496","158555.80468","159322.652533","160089.195541","160855.712578","161622.164689","165523.122909","166272.688598","167039.141018","167805.972484","153972.352496","154739.052254","155506.211753","156273.112165","167048.558434","Mapping"
"Mixed","Male","done","41","F_priest.wav","space","576.410765061","228","164756.243521","157039.687636","157805.878496","158555.80468","159322.652533","160089.195541","160855.712578","161622.164689","165523.122909","166272.688598","167039.141018","167805.972484","168572.552902","154739.052254","155506.211753","156273.112165","167815.607249","Mapping"
"Mixed","Male","done","41","M_reek.wav","None","733.607714297","228","164756.243521","157039.687636","157805.878496","158555.80468","159322.652533","160089.195541","160855.712578","161622.164689","165523.122909","166272.688598","167039.141018","167805.972484","168572.552902","169338.843933","155506.211753","156273.112165","168578.118019","Mapping"
"Mixed","Male","done","41","M_done.wav","None","729.336795746","228","164756.243521","157039.687636","157805.878496","158555.80468","159322.652533","160089.195541","160855.712578","161622.164689","165523.122909","166272.688598","167039.141018","167805.972484","168572.552902","169338.843933","170105.608","156273.112165","169347.839946","Mapping"
"Mixed","Male","done","41","F_ball.wav","space","573.250087444","228","164756.243521","157039.687636","157805.878496","158555.80468","159322.652533","160089.195541","160855.712578","161622.164689","165523.122909","166272.688598","167039.141018","167805.972484","168572.552902","169338.843933","170105.608","170872.517069","170114.730464","Mapping"
"Mixed","Male","done","41","M_done.wav","None","724.717438919","228","164756.243521","171639.161485","157805.878496","158555.80468","159322.652533","160089.195541","160855.712578","161622.164689","165523.122909","166272.688598","167039.141018","167805.972484","168572.552902","169338.843933","170105.608","170872.517069","170882.125863","Mapping"
"Mixed","Male","done","41","M_tile.wav","space","439.950989792","228","164756.243521","171639.161485","172406.307381","158555.80468","159322.652533","160089.195541","160855.712578","161622.164689","165523.122909","166272.688598","167039.141018","167805.972484","168572.552902","169338.843933","170105.608","170872.517069","171648.050833","Mapping"
"Mixed","Male","done","41","F_greet.wav","None","720.824329997","228","164756.243521","171639.161485","172406.307381","173172.32232","159322.652533","160089.195541","160855.712578","161622.164689","165523.122909","166272.688598","167039.141018","167805.972484","168572.552902","169338.843933","170105.608","170872.517069","172416.076326","Mapping"
"Mixed","Male","done","41","F_reek.wav","None","720.713645918","228","164756.243521","171639.161485","172406.307381","173172.32232","173922.190072","160089.195541","160855.712578","161622.164689","165523.122909","166272.688598","167039.141018","167805.972484","168572.552902","169338.843933","170105.608","170872.517069","173181.301019","Mapping"
"Mixed","Male","done","41","M_dime.wav","None","735.333209857","228","164756.243521","171639.161485","172406.307381","173172.32232","173922.190072","174688.95352","160855.712578","161622.164689","165523.122909","166272.688598","167039.141018","167805.972484","168572.552902","169338.843933","170105.608","170872.517069","173931.859773","Mapping"
"Mixed","Male","done","41","F_cave.wav","None","734.095280292","228","164756.243521","171639.161485","172406.307381","173172.32232","173922.190072","174688.95352","175455.842183","161622.164689","165523.122909","166272.688598","167039.141018","167805.972484","168572.552902","169338.843933","170105.608","170872.517069","174698.011058","Mapping"
"Mixed","Male","done","41","M_jolt.wav","None","732.413996477","228","164756.243521","171639.161485","172406.307381","173172.32232","173922.190072","174688.95352","175455.842183","176222.429712","165523.122909","166272.688598","167039.141018","167805.972484","168572.552902","169338.843933","170105.608","170872.517069","175464.917962","Mapping"
"Mixed","Female","done","44","M_lash.wav","None","730.517528136","228","179356.163816","171639.161485","172406.307381","173172.32232","173922.190072","174688.95352","175455.842183","176222.429712","165523.122909","166272.688598","167039.141018","167805.972484","168572.552902","169338.843933","170105.608","170872.517069","176231.870934","Mapping"
"Mixed","Female","done","44","F_done.wav","None","720.67530849","228","179356.163816","171639.161485","172406.307381","173172.32232","173922.190072","174688.95352","175455.842183","176222.429712","180122.704041","166272.688598","167039.141018","167805.972484","168572.552902","169338.843933","170105.608","170872.517069","179366.731356","Mapping"
"Mixed","Female","done","44","M_priest.wav","space","331.298561534","228","179356.163816","171639.161485","172406.307381","173172.32232","173922.190072","174688.95352","175455.842183","176222.429712","180122.704041","180872.203258","167039.141018","167805.972484","168572.552902","169338.843933","170105.608","170872.517069","180132.497721","Mapping"
"Mixed","Female","done","44","F_park.wav","None","735.571891535","228","179356.163816","171639.161485","172406.307381","173172.32232","173922.190072","174688.95352","175455.842183","176222.429712","180122.704041","180872.203258","181638.774709","167805.972484","168572.552902","169338.843933","170105.608","170872.517069","180881.7193","Mapping"
"Mixed","Female","done","44","M_gnash.wav","None","735.191608546","228","179356.163816","171639.161485","172406.307381","173172.32232","173922.190072","174688.95352","175455.842183","176222.429712","180122.704041","180872.203258","181638.774709","182405.723043","168572.552902","169338.843933","170105.608","170872.517069","181647.822663","Mapping"
"Mixed","Female","done","44","F_done.wav","None","732.57291154","228","179356.163816","171639.161485","172406.307381","173172.32232","173922.190072","174688.95352","175455.842183","176222.429712","180122.704041","180872.203258","181638.774709","182405.723043","183172.313354","169338.843933","170105.608","170872.517069","182415.568045","Mapping"
"Mixed","Female","done","44","F_priest.wav","space","353.941479116","228","179356.163816","171639.161485","172406.307381","173172.32232","173922.190072","174688.95352","175455.842183","176222.429712","180122.704041","180872.203258","181638.774709","182405.723043","183172.313354","183938.560793","170105.608","170872.517069","183181.832488","Mapping"
"Mixed","Female","done","44","M_reek.wav","None","736.388727208","228","179356.163816","171639.161485","172406.307381","173172.32232","173922.190072","174688.95352","175455.842183","176222.429712","180122.704041","180872.203258","181638.774709","182405.723043","183172.313354","183938.560793","184705.259005","170872.517069","183941.876675","Mapping"
"Mixed","Female","done","44","M_tile.wav","None","729.429238476","228","179356.163816","171639.161485","172406.307381","173172.32232","173922.190072","174688.95352","175455.842183","176222.429712","180122.704041","180872.203258","181638.774709","182405.723043","183172.313354","183938.560793","184705.259005","185471.786245","184714.038906","Mapping"
"Mixed","Female","done","44","M_dime.wav","None","727.696322603","228","179356.163816","186238.415821","172406.307381","173172.32232","173922.190072","174688.95352","175455.842183","176222.429712","180122.704041","180872.203258","181638.774709","182405.723043","183172.313354","183938.560793","184705.259005","185471.786245","185480.884285","Mapping"
"Mixed","Female","done","44","F_done.wav","None","726.534449845","228","179356.163816","186238.415821","187005.157627","173172.32232","173922.190072","174688.95352","175455.842183","176222.429712","180122.704041","180872.203258","181638.774709","182405.723043","183172.313354","183938.560793","184705.259005","185471.786245","186247.362675","Mapping"
"Mixed","Female","done","44","M_depth.wav","space","481.760790804","228","179356.163816","186238.415821","187005.157627","187771.977036","173922.190072","174688.95352","175455.842183","176222.429712","180122.704041","180872.203258","181638.774709","182405.723043","183172.313354","183938.560793","184705.259005","185471.786245","187013.92547","Mapping"
"Mixed","Female","done","44","F_done.wav","None","722.829627339","228","179356.163816","186238.415821","187005.157627","187771.977036","188539.146428","174688.95352","175455.842183","176222.429712","180122.704041","180872.203258","181638.774709","182405.723043","183172.313354","183938.560793","184705.259005","185471.786245","187780.819698","Mapping"
"Mixed","Female","done","44","M_priest.wav","space","530.41785059","228","179356.163816","186238.415821","187005.157627","187771.977036","188539.146428","189288.597414","175455.842183","176222.429712","180122.704041","180872.203258","181638.774709","182405.723043","183172.313354","183938.560793","184705.259005","185471.786245","188549.25701","Mapping"
"Mixed","Female","done","44","F_knife.wav","None","735.509438557","228","179356.163816","186238.415821","187005.157627","187771.977036","188539.146428","189288.597414","190055.127127","176222.429712","180122.704041","180872.203258","181638.774709","182405.723043","183172.313354","183938.560793","184705.259005","185471.786245","189297.679068","Mapping"
"Mixed","Female","done","44","F_knife.wav","None","734.657357214","228","179356.163816","186238.415821","187005.157627","187771.977036","188539.146428","189288.597414","190055.127127","190822.258182","180122.704041","180872.203258","181638.774709","182405.723043","183172.313354","183938.560793","184705.259005","185471.786245","190063.92496","Mapping"
"Mixed","Female","tile","35","F_knife.wav","None","732.149035088","228","193955.922104","186238.415821","187005.157627","187771.977036","188539.146428","189288.597414","190055.127127","190822.258182","180122.704041","180872.203258","181638.774709","182405.723043","183172.313354","183938.560793","184705.259005","185471.786245","190831.625203","Mapping"
"Mixed","Female","tile","35","F_romp.wav","None","721.165038878","228","193955.922104","186238.415821","187005.157627","187771.977036","188539.146428","189288.597414","190055.127127","190822.258182","194722.551681","180872.203258","181638.774709","182405.723043","183172.313354","183938.560793","184705.259005","185471.786245","193966.055565","Mapping"
"Mixed","Female","tile","35","M_reek.wav","None","720.271837432","228","193955.922104","186238.415821","187005.157627","187771.977036","188539.146428","189288.597414","190055.127127","190822.258182","194722.551681","195488.567239","181638.774709","182405.723043","183172.313354","183938.560793","184705.259005","185471.786245","194732.130485","Mapping"
"Mixed","Female","tile","35","M_knife.wav","None","720.301208901","228","193955.922104","186238.415821","187005.157627","187771.977036","188539.146428","189288.597414","190055.127127","190822.258182","194722.551681","195488.567239","196238.10603","182405.723043","183172.313354","183938.560793","184705.259005","185471.786245","195497.528624","Mapping"
"Mixed","Female","tile","35","M_depth.wav","None","736.096249311","228","193955.922104","186238.415821","187005.157627","187771.977036","188539.146428","189288.597414","190055.127127","190822.258182","194722.551681","195488.567239","196238.10603","197004.945844","183172.313354","183938.560793","184705.259005","185471.786245","196247.024131","Mapping"
"Mixed","Female","tile","35","F_tile.wav","None","734.713935992","228","193955.922104","186238.415821","187005.157627","187771.977036","188539.146428","189288.597414","190055.127127","190822.258182","194722.551681","195488.567239","196238.10603","197004.945844","197772.048764","183938.560793","184705.259005","185471.786245","197013.840447","Mapping"
"Mixed","Female","tile","35","M_reek.wav","space","505.944318487","228","193955.922104","186238.415821","187005.157627","187771.977036","188539.146428","189288.597414","190055.127127","190822.258182","194722.551681","195488.567239","196238.10603","197004.945844","197772.048764","198538.581878","184705.259005","185471.786245","197781.534507","Mapping"
"Mixed","Female","tile","35","F_tile.wav","None","730.352738872","228","193955.922104","186238.415821","187005.157627","187771.977036","188539.146428","189288.597414","190055.127127","190822.258182","194722.551681","195488.567239","196238.10603","197004.945844","197772.048764","198538.581878","199305.240826","185471.786245","198548.070094","Mapping"
"Mixed","Female","tile","35","M_jaw.wav","space","476.913573453","228","193955.922104","186238.415821","187005.157627","187771.977036","188539.146428","189288.597414","190055.127127","190822.258182","194722.551681","195488.567239","196238.10603","197004.945844","197772.048764","198538.581878","199305.240826","200072.036119","199314.523133","Mapping"
"Mixed","Female","tile","35","F_tile.wav","None","726.744996733","228","193955.922104","200838.435361","187005.157627","187771.977036","188539.146428","189288.597414","190055.127127","190822.258182","194722.551681","195488.567239","196238.10603","197004.945844","197772.048764","198538.581878","199305.240826","200072.036119","200081.457245","Mapping"
"Mixed","Female","tile","35","F_priest.wav","space","495.594127337","228","193955.922104","200838.435361","201605.713273","187771.977036","188539.146428","189288.597414","190055.127127","190822.258182","194722.551681","195488.567239","196238.10603","197004.945844","197772.048764","198538.581878","199305.240826","200072.036119","200847.895752","Mapping"
"Mixed","Female","tile","35","M_jolt.wav","None","722.515816451","228","193955.922104","200838.435361","201605.713273","202371.638862","188539.146428","189288.597414","190055.127127","190822.258182","194722.551681","195488.567239","196238.10603","197004.945844","197772.048764","198538.581878","199305.240826","200072.036119","201615.515301","Mapping"
"Mixed","Female","tile","35","F_tile.wav","None","722.631756449","228","193955.922104","200838.435361","201605.713273","202371.638862","203138.48115","189288.597414","190055.127127","190822.258182","194722.551681","195488.567239","196238.10603","197004.945844","197772.048764","198538.581878","199305.240826","200072.036119","202380.800282","Mapping"
"Mixed","Female","tile","35","F_knife.wav","space","516.031094128","228","193955.922104","200838.435361","201605.713273","202371.638862","203138.48115","203888.351374","190055.127127","190822.258182","194722.551681","195488.567239","196238.10603","197004.945844","197772.048764","198538.581878","199305.240826","200072.036119","203147.369261","Mapping"
"Mixed","Female","tile","35","M_lash.wav","None","735.212941421","228","193955.922104","200838.435361","201605.713273","202371.638862","203138.48115","203888.351374","204655.124716","190822.258182","194722.551681","195488.567239","196238.10603","197004.945844","197772.048764","198538.581878","199305.240826","200072.036119","203897.982738","Mapping"
"Mixed","Female","tile","35","M_cave.wav","None","734.094043728","228","193955.922104","200838.435361","201605.713273","202371.638862","203138.48115","203888.351374","204655.124716","205421.437389","194722.551681","195488.567239","196238.10603","197004.945844","197772.048764","198538.581878","199305.240826","200072.036119","204664.495755","Mapping"
"Mixed","Female","done","45","M_romp.wav","None","733.837739099","228","208555.522715","200838.435361","201605.713273","202371.638862","203138.48115","203888.351374","204655.124716","205421.437389","194722.551681","195488.567239","196238.10603","197004.945844","197772.048764","198538.581878","199305.240826","200072.036119","205430.106606","Mapping"
"Mixed","Female","done","45","M_reek.wav","None","721.503274282","228","208555.522715","200838.435361","201605.713273","202371.638862","203138.48115","203888.351374","204655.124716","205421.437389","209321.567026","195488.567239","196238.10603","197004.945844","197772.048764","198538.581878","199305.240826","200072.036119","208565.38534","Mapping"
"Mixed","Female","done","45","F_bluff.wav","None","721.705164411","228","208555.522715","200838.435361","201605.713273","202371.638862","203138.48115","203888.351374","204655.124716","205421.437389","209321.567026","210088.197839","196238.10603","197004.945844","197772.048764","198538.581878","199305.240826","200072.036119","209330.620235","Mapping"
"Mixed","Female","done","45","M_cave.wav","None","720.636971062","228","208555.522715","200838.435361","201605.713273","202371.638862","203138.48115","203888.351374","204655.124716","205421.437389","209321.567026","210088.197839","210838.189877","197004.945844","197772.048764","198538.581878","199305.240826","200072.036119","210097.131089","Mapping"
"Mixed","Female","done","45","M_romp.wav","None","736.103051109","228","208555.522715","200838.435361","201605.713273","202371.638862","203138.48115","203888.351374","204655.124716","205421.437389","209321.567026","210088.197839","210838.189877","211605.148105","197772.048764","198538.581878","199305.240826","200072.036119","210847.280497","Mapping"
"Mixed","Female","done","45","F_done.wav","None","734.052614425","228","208555.522715","200838.435361","201605.713273","202371.638862","203138.48115","203888.351374","204655.124716","205421.437389","209321.567026","210088.197839","210838.189877","211605.148105","212371.282695","198538.581878","199305.240826","200072.036119","211614.608495","Mapping"
"Mixed","Female","done","45","F_jaw.wav","space","611.0941238","228","208555.522715","200838.435361","201605.713273","202371.638862","203138.48115","203888.351374","204655.124716","205421.437389","209321.567026","210088.197839","210838.189877","211605.148105","212371.282695","213138.312959","199305.240826","200072.036119","212380.142053","Mapping"
"Mixed","Female","done","45","M_dime.wav","None","730.868439772","228","208555.522715","200838.435361","201605.713273","202371.638862","203138.48115","203888.351374","204655.124716","205421.437389","209321.567026","210088.197839","210838.189877","211605.148105","212371.282695","213138.312959","213905.183691","200072.036119","213147.670395","Mapping"
"Mixed","Female","done","45","F_romp.wav","None","729.682142148","228","208555.522715","200838.435361","201605.713273","202371.638862","203138.48115","203888.351374","204655.124716","205421.437389","209321.567026","210088.197839","210838.189877","211605.148105","212371.282695","213138.312959","213905.183691","214671.691143","213914.252359","Mapping"
"Mixed","Female","done","45","F_done.wav","None","727.905323729","228","208555.522715","215438.184065","201605.713273","202371.638862","203138.48115","203888.351374","204655.124716","205421.437389","209321.567026","210088.197839","210838.189877","211605.148105","212371.282695","213138.312959","213905.183691","214671.691143","214681.37012","Mapping"
"Mixed","Female","done","45","F_gnash.wav","None","726.911950274","228","208555.522715","215438.184065","216204.617935","202371.638862","203138.48115","203888.351374","204655.124716","205421.437389","209321.567026","210088.197839","210838.189877","211605.148105","212371.282695","213138.312959","213905.183691","214671.691143","215447.601171","Mapping"
"Mixed","Female","done","45","F_done.wav","space","97.8867084486","228","208555.522715","215438.184065","216204.617935","216971.396532","203138.48115","203888.351374","204655.124716","205421.437389","209321.567026","210088.197839","210838.189877","211605.148105","212371.282695","213138.312959","213905.183691","214671.691143","216213.281895","Mapping"
"Mixed","Female","done","45","M_lash.wav","space","538.896307349","228","208555.522715","215438.184065","216204.617935","216971.396532","217738.150705","203888.351374","204655.124716","205421.437389","209321.567026","210088.197839","210838.189877","211605.148105","212371.282695","213138.312959","213905.183691","214671.691143","216980.268875","Mapping"
"Mixed","Female","done","45","M_greet.wav","None","722.19211224","228","208555.522715","215438.184065","216204.617935","216971.396532","217738.150705","218505.340812","204655.124716","205421.437389","209321.567026","210088.197839","210838.189877","211605.148105","212371.282695","213138.312959","213905.183691","214671.691143","217747.038816","Mapping"
"Mixed","Female","done","45","F_done.wav","None","718.844075571","228","208555.522715","215438.184065","216204.617935","216971.396532","217738.150705","218505.340812","219254.826425","205421.437389","209321.567026","210088.197839","210838.189877","211605.148105","212371.282695","213138.312959","213905.183691","214671.691143","218515.698115","Mapping"
"Mixed","Female","done","45","M_cad.wav","space","502.990168636","228","208555.522715","215438.184065","216204.617935","216971.396532","217738.150705","218505.340812","219254.826425","220021.158886","209321.567026","210088.197839","210838.189877","211605.148105","212371.282695","213138.312959","213905.183691","214671.691143","219264.147997","Mapping"
"Mixed","Male","ball","1","F_jaw.wav","None","734.480201034","228","223155.558022","215438.184065","216204.617935","216971.396532","217738.150705","218505.340812","219254.826425","220021.158886","209321.567026","210088.197839","210838.189877","211605.148105","212371.282695","213138.312959","213905.183691","214671.691143","220029.893029","Mapping"
"Mixed","Male","ball","1","F_greet.wav","None","721.481632208","228","223155.558022","215438.184065","216204.617935","216971.396532","217738.150705","218505.340812","219254.826425","220021.158886","223921.303054","210088.197839","210838.189877","211605.148105","212371.282695","213138.312959","213905.183691","214671.691143","223165.034181","Mapping"
"Mixed","Male","ball","1","M_cad.wav","None","721.704855212","228","223155.558022","215438.184065","216204.617935","216971.396532","217738.150705","218505.340812","219254.826425","220021.158886","223921.303054","224688.660733","210838.189877","211605.148105","212371.282695","213138.312959","213905.183691","214671.691143","223930.296902","Mapping"
"Mixed","Male","ball","1","M_ball.wav","None","718.814394902","228","223155.558022","215438.184065","216204.617935","216971.396532","217738.150705","218505.340812","219254.826425","220021.158886","223921.303054","224688.660733","225437.980629","211605.148105","212371.282695","213138.312959","213905.183691","214671.691143","224698.552729","Mapping"
"Mixed","Male","ball","1","M_bluff.wav","space","375.984291546","228","223155.558022","215438.184065","216204.617935","216971.396532","217738.150705","218505.340812","219254.826425","220021.158886","223921.303054","224688.660733","225437.980629","226204.719343","212371.282695","213138.312959","213905.183691","214671.691143","225447.002612","Mapping"
"Mixed","Male","ball","1","M_ball.wav","None","733.373360941","228","223155.558022","215438.184065","216204.617935","216971.396532","217738.150705","218505.340812","219254.826425","220021.158886","223921.303054","224688.660733","225437.980629","226204.719343","226971.167126","213138.312959","213905.183691","214671.691143","226214.031022","Mapping"
"Mixed","Male","ball","1","F_bluff.wav","space","522.667187732","228","223155.558022","215438.184065","216204.617935","216971.396532","217738.150705","218505.340812","219254.826425","220021.158886","223921.303054","224688.660733","225437.980629","226204.719343","226971.167126","227738.021471","213905.183691","214671.691143","226980.361937","Mapping"
"Mixed","Male","ball","1","M_ball.wav","None","730.277609662","228","223155.558022","215438.184065","216204.617935","216971.396532","217738.150705","218505.340812","219254.826425","220021.158886","223921.303054","224688.660733","225437.980629","226204.719343","226971.167126","227738.021471","228504.860048","214671.691143","227747.292029","Mapping"
"Mixed","Male","ball","1","M_cling.wav","space","412.610185449","228","223155.558022","215438.184065","216204.617935","216971.396532","217738.150705","218505.340812","219254.826425","220021.158886","223921.303054","224688.660733","225437.980629","226204.719343","226971.167126","227738.021471","228504.860048","229271.4652","228514.332806","Mapping"
"Mixed","Male","ball","1","M_ball.wav","None","726.507860818","228","223155.558022","230038.002642","216204.617935","216971.396532","217738.150705","218505.340812","219254.826425","220021.158886","223921.303054","224688.660733","225437.980629","226204.719343","226971.167126","227738.021471","228504.860048","229271.4652","229280.963619","Mapping"
"Mixed","Male","ball","1","F_jaw.wav","space","431.43234076","228","223155.558022","230038.002642","230805.246236","216971.396532","217738.150705","218505.340812","219254.826425","220021.158886","223921.303054","224688.660733","225437.980629","226204.719343","226971.167126","227738.021471","228504.860048","229271.4652","230047.473854","Mapping"
"Mixed","Male","ball","1","F_done.wav","None","722.605167655","228","223155.558022","230038.002642","230805.246236","231571.77193","217738.150705","218505.340812","219254.826425","220021.158886","223921.303054","224688.660733","225437.980629","226204.719343","226971.167126","227738.021471","228504.860048","229271.4652","230814.841427","Mapping"
"Mixed","Male","ball","1","F_cave.wav","None","721.200284548","228","223155.558022","230038.002642","230805.246236","231571.77193","232337.867564","218505.340812","219254.826425","220021.158886","223921.303054","224688.660733","225437.980629","226204.719343","226971.167126","227738.021471","228504.860048","229271.4652","231581.812948","Mapping"
"Mixed","Male","ball","1","M_gnash.wav","None","721.769472468","228","223155.558022","230038.002642","230805.246236","231571.77193","232337.867564","233104.460967","219254.826425","220021.158886","223921.303054","224688.660733","225437.980629","226204.719343","226971.167126","227738.021471","228504.860048","229271.4652","232346.72414","Mapping"
"Mixed","Male","ball","1","F_bluff.wav","None","720.346966526","228","223155.558022","230038.002642","230805.246236","231571.77193","232337.867564","233104.460967","233854.585023","220021.158886","223921.303054","224688.660733","225437.980629","226204.719343","226971.167126","227738.021471","228504.860048","229271.4652","233113.71514","Mapping"
"Mixed","Male","ball","1","F_jaw.wav","None","735.117716133","228","223155.558022","230038.002642","230805.246236","231571.77193","232337.867564","233104.460967","233854.585023","234620.778356","223921.303054","224688.660733","225437.980629","226204.719343","226971.167126","227738.021471","228504.860048","229271.4652","233864.216696","Mapping"
"Mixed","Female","done","43","F_cad.wav","None","734.55192917","228","237754.994152","230038.002642","230805.246236","231571.77193","232337.867564","233104.460967","233854.585023","234620.778356","223921.303054","224688.660733","225437.980629","226204.719343","226971.167126","227738.021471","228504.860048","229271.4652","234630.244003","Mapping"
"Mixed","Female","done","43","F_done.wav","None","720.623058151","228","237754.994152","230038.002642","230805.246236","231571.77193","232337.867564","233104.460967","233854.585023","234620.778356","238521.625274","224688.660733","225437.980629","226204.719343","226971.167126","227738.021471","228504.860048","229271.4652","237764.76217","Mapping"
"Mixed","Female","done","43","M_priest.wav","space","587.076622061","228","237754.994152","230038.002642","230805.246236","231571.77193","232337.867564","233104.460967","233854.585023","234620.778356","238521.625274","239271.209823","225437.980629","226204.719343","226971.167126","227738.021471","228504.860048","229271.4652","238531.699992","Mapping"
"Mixed","Female","done","43","M_dime.wav","None","734.448974486","228","237754.994152","230038.002642","230805.246236","231571.77193","232337.867564","233104.460967","233854.585023","234620.778356","238521.625274","239271.209823","240037.734589","226204.719343","226971.167126","227738.021471","228504.860048","229271.4652","239280.763274","Mapping"
"Mixed","Female","done","43","M_cave.wav","None","733.343680273","228","237754.994152","230038.002642","230805.246236","231571.77193","232337.867564","233104.460967","233854.585023","234620.778356","238521.625274","239271.209823","240037.734589","240804.627581","226971.167126","227738.021471","228504.860048","229271.4652","240047.177357","Mapping"
"Mixed","Female","done","43","M_jaw.wav","None","731.918391888","228","237754.994152","230038.002642","230805.246236","231571.77193","232337.867564","233104.460967","233854.585023","234620.778356","238521.625274","239271.209823","240037.734589","240804.627581","241571.196559","227738.021471","228504.860048","229271.4652","240814.093846","Mapping"
"Mixed","Female","done","43","F_done.wav","None","730.271426146","228","237754.994152","230038.002642","230805.246236","231571.77193","232337.867564","233104.460967","233854.585023","234620.778356","238521.625274","239271.209823","240037.734589","240804.627581","241571.196559","242337.688862","228504.860048","229271.4652","241581.153173","Mapping"
"Mixed","Female","done","43","M_reek.wav","space","475.496941828","228","237754.994152","230038.002642","230805.246236","231571.77193","232337.867564","233104.460967","233854.585023","234620.778356","238521.625274","239271.209823","240037.734589","240804.627581","241571.196559","242337.688862","243104.368215","229271.4652","242347.153272","Mapping"
"Mixed","Female","done","43","F_done.wav","None","727.774543455","228","237754.994152","230038.002642","230805.246236","231571.77193","232337.867564","233104.460967","233854.585023","234620.778356","238521.625274","239271.209823","240037.734589","240804.627581","241571.196559","242337.688862","243104.368215","243871.189479","243113.649286","Mapping"
"Mixed","Female","done","43","M_dime.wav","space","557.798229274","228","237754.994152","244637.728158","230805.246236","231571.77193","232337.867564","233104.460967","233854.585023","234620.778356","238521.625274","239271.209823","240037.734589","240804.627581","241571.196559","242337.688862","243104.368215","243871.189479","243880.88144","Mapping"
"Mixed","Female","done","43","M_reek.wav","None","724.660860142","228","237754.994152","244637.728158","245404.925067","231571.77193","232337.867564","233104.460967","233854.585023","234620.778356","238521.625274","239271.209823","240037.734589","240804.627581","241571.196559","242337.688862","243104.368215","243871.189479","244647.154231","Mapping"
"Mixed","Female","done","43","F_bluff.wav","None","722.594037303","228","237754.994152","244637.728158","245404.925067","246171.504557","232337.867564","233104.460967","233854.585023","234620.778356","238521.625274","239271.209823","240037.734589","240804.627581","241571.196559","242337.688862","243104.368215","243871.189479","245414.677008","Mapping"
"Mixed","Female","done","43","F_ball.wav","None","721.711347811","228","237754.994152","244637.728158","245404.925067","246171.504557","246938.088685","233104.460967","233854.585023","234620.778356","238521.625274","239271.209823","240037.734589","240804.627581","241571.196559","242337.688862","243104.368215","243871.189479","246181.295145","Mapping"
"Mixed","Female","done","43","F_done.wav","None","720.401999424","228","237754.994152","244637.728158","245404.925067","246171.504557","246938.088685","247704.817506","233854.585023","234620.778356","238521.625274","239271.209823","240037.734589","240804.627581","241571.196559","242337.688862","243104.368215","243871.189479","246948.157529","Mapping"
"Mixed","Female","done","43","M_gnash.wav","None","719.001135556","228","237754.994152","244637.728158","245404.925067","246171.504557","246938.088685","247704.817506","248454.158426","234620.778356","238521.625274","239271.209823","240037.734589","240804.627581","241571.196559","242337.688862","243104.368215","243871.189479","247715.12905","Mapping"
"Mixed","Female","done","43","F_depth.wav","None","736.427683034","228","237754.994152","244637.728158","245404.925067","246171.504557","246938.088685","247704.817506","248454.158426","249220.94939","238521.625274","239271.209823","240037.734589","240804.627581","241571.196559","242337.688862","243104.368215","243871.189479","248463.235442","Mapping"
"Mixed","Female","tile","32","M_park.wav","None","734.704042436","228","252354.583013","244637.728158","245404.925067","246171.504557","246938.088685","247704.817506","248454.158426","249220.94939","238521.625274","239271.209823","240037.734589","240804.627581","241571.196559","242337.688862","243104.368215","243871.189479","249230.49635","Mapping"
"Mixed","Female","tile","32","F_tile.wav","None","721.900871024","228","252354.583013","244637.728158","245404.925067","246171.504557","246938.088685","247704.817506","248454.158426","249220.94939","253120.669372","239271.209823","240037.734589","240804.627581","241571.196559","242337.688862","243104.368215","243871.189479","252364.428325","Mapping"
"Mixed","Female","tile","32","F_cave.wav","space","572.531259735","228","252354.583013","244637.728158","245404.925067","246171.504557","246938.088685","247704.817506","248454.158426","249220.94939","253120.669372","253871.278212","240037.734589","240804.627581","241571.196559","242337.688862","243104.368215","243871.189479","253129.95879","Mapping"
"Mixed","Female","tile","32","F_cave.wav","None","735.534790787","228","252354.583013","244637.728158","245404.925067","246171.504557","246938.088685","247704.817506","248454.158426","249220.94939","253120.669372","253871.278212","254637.217095","240804.627581","241571.196559","242337.688862","243104.368215","243871.189479","253880.847431","Mapping"
"Mixed","Female","tile","32","F_tile.wav","None","736.289791646","228","252354.583013","244637.728158","245404.925067","246171.504557","246938.088685","247704.817506","248454.158426","249220.94939","253120.669372","253871.278212","254637.217095","255403.89583","241571.196559","242337.688862","243104.368215","243871.189479","254646.399848","Mapping"
"Mixed","Female","tile","32","M_ball.wav","space","625.507469173","228","252354.583013","244637.728158","245404.925067","246171.504557","246938.088685","247704.817506","248454.158426","249220.94939","253120.669372","253871.278212","254637.217095","255403.89583","256171.078826","242337.688862","243104.368215","243871.189479","255412.96728","Mapping"
"Mixed","Female","tile","32","F_tile.wav","None","731.870160904","228","252354.583013","244637.728158","245404.925067","246171.504557","246938.088685","247704.817506","248454.158426","249220.94939","253120.669372","253871.278212","254637.217095","255403.89583","256171.078826","256937.165494","243104.368215","243871.189479","256181.088617","Mapping"
"Mixed","Female","tile","32","M_romp.wav","space","532.367187669","228","252354.583013","244637.728158","245404.925067","246171.504557","246938.088685","247704.817506","248454.158426","249220.94939","253120.669372","253871.278212","254637.217095","255403.89583","256171.078826","256937.165494","257704.307061","243871.189479","256946.071228","Mapping"
"Mixed","Female","tile","32","F_cave.wav","None","730.062734336","228","252354.583013","244637.728158","245404.925067","246171.504557","246938.088685","247704.817506","248454.158426","249220.94939","253120.669372","253871.278212","254637.217095","255403.89583","256171.078826","256937.165494","257704.307061","258470.473805","257713.335227","Mapping"
"Mixed","Female","tile","32","M_reek.wav","None","729.692344903","228","252354.583013","259237.359067","245404.925067","246171.504557","246938.088685","247704.817506","248454.158426","249220.94939","253120.669372","253871.278212","254637.217095","255403.89583","256171.078826","256937.165494","257704.307061","258470.473805","258479.415712","Mapping"
"Mixed","Female","tile","32","F_park.wav","None","727.325933171","228","252354.583013","259237.359067","260004.302454","246171.504557","246938.088685","247704.817506","248454.158426","249220.94939","253120.669372","253871.278212","254637.217095","255403.89583","256171.078826","256937.165494","257704.307061","258470.473805","259247.304242","Mapping"
"Mixed","Female","tile","32","M_cave.wav","None","726.686562994","228","252354.583013","259237.359067","260004.302454","260770.889055","246938.088685","247704.817506","248454.158426","249220.94939","253120.669372","253871.278212","254637.217095","255403.89583","256171.078826","256937.165494","257704.307061","258470.473805","260013.642267","Mapping"
"Mixed","Female","tile","32","M_ball.wav","None","725.664436352","228","252354.583013","259237.359067","260004.302454","260770.889055","261537.139585","247704.817506","248454.158426","249220.94939","253120.669372","253871.278212","254637.217095","255403.89583","256171.078826","256937.165494","257704.307061","258470.473805","260780.392421","Mapping"
"Mixed","Female","tile","32","M_park.wav","None","725.407204241","228","252354.583013","259237.359067","260004.302454","260770.889055","261537.139585","262304.005679","248454.158426","249220.94939","253120.669372","253871.278212","254637.217095","255403.89583","256171.078826","256937.165494","257704.307061","258470.473805","261546.360058","Mapping"
"Mixed","Female","tile","32","F_tile.wav","None","724.054262391","228","252354.583013","259237.359067","260004.302454","260770.889055","261537.139585","262304.005679","263071.248655","249220.94939","253120.669372","253871.278212","254637.217095","255403.89583","256171.078826","256937.165494","257704.307061","258470.473805","262313.31272","Mapping"
"Mixed","Female","tile","32","M_dime.wav","space","501.050106715","228","252354.583013","259237.359067","260004.302454","260770.889055","261537.139585","262304.005679","263071.248655","263837.687471","253120.669372","253871.278212","254637.217095","255403.89583","256171.078826","256937.165494","257704.307061","258470.473805","263081.247625","Mapping"
"Mixed","Male","tile","26","F_cling.wav","None","725.508303964","228","266954.583694","259237.359067","260004.302454","260770.889055","261537.139585","262304.005679","263071.248655","263837.687471","253120.669372","253871.278212","254637.217095","255403.89583","256171.078826","256937.165494","257704.307061","258470.473805","263842.141729","Mapping"
"Mixed","Male","tile","26","M_tile.wav","None","721.819249331","228","266954.583694","259237.359067","260004.302454","260770.889055","261537.139585","262304.005679","263071.248655","263837.687471","267720.470017","253871.278212","254637.217095","255403.89583","256171.078826","256937.165494","257704.307061","258470.473805","266964.203309","Mapping"
"Mixed","Male","tile","26","M_park.wav","space","428.592275712","228","266954.583694","259237.359067","260004.302454","260770.889055","261537.139585","262304.005679","263071.248655","263837.687471","267720.470017","268470.676622","254637.217095","255403.89583","256171.078826","256937.165494","257704.307061","258470.473805","267729.689562","Mapping"
"Mixed","Male","tile","26","M_done.wav","None","736.322564073","228","266954.583694","259237.359067","260004.302454","260770.889055","261537.139585","262304.005679","263071.248655","263837.687471","267720.470017","268470.676622","269237.154085","255403.89583","256171.078826","256937.165494","257704.307061","258470.473805","268479.881945","Mapping"
"Mixed","Male","tile","26","M_knife.wav","None","735.134411487","228","266954.583694","259237.359067","260004.302454","260770.889055","261537.139585","262304.005679","263071.248655","263837.687471","267720.470017","268470.676622","269237.154085","270003.929591","256171.078826","256937.165494","257704.307061","258470.473805","269246.621896","Mapping"
"Mixed","Male","tile","26","M_tile.wav","None","734.369516955","228","266954.583694","259237.359067","260004.302454","260770.889055","261537.139585","262304.005679","263071.248655","263837.687471","267720.470017","268470.676622","269237.154085","270003.929591","270770.353877","256937.165494","257704.307061","258470.473805","270013.236632","Mapping"
"Mixed","Male","tile","26","F_priest.wav","space","666.957083391","228","266954.583694","259237.359067","260004.302454","260770.889055","261537.139585","262304.005679","263071.248655","263837.687471","267720.470017","268470.676622","269237.154085","270003.929591","270770.353877","271537.23883","257704.307061","258470.473805","270779.219109","Mapping"
"Mixed","Male","tile","26","F_bluff.wav","None","730.778779485","228","266954.583694","259237.359067","260004.302454","260770.889055","261537.139585","262304.005679","263071.248655","263837.687471","267720.470017","268470.676622","269237.154085","270003.929591","270770.353877","271537.23883","272304.000114","258470.473805","271547.104856","Mapping"
"Mixed","Male","tile","26","F_greet.wav","None","730.158887221","228","266954.583694","259237.359067","260004.302454","260770.889055","261537.139585","262304.005679","263071.248655","263837.687471","267720.470017","268470.676622","269237.154085","270003.929591","270770.353877","271537.23883","272304.000114","273070.646695","272313.429896","Mapping"
"Mixed","Male","tile","26","M_tile.wav","None","729.119137744","228","266954.583694","273837.133433","260004.302454","260770.889055","261537.139585","262304.005679","263071.248655","263837.687471","267720.470017","268470.676622","269237.154085","270003.929591","270770.353877","271537.23883","272304.000114","273070.646695","273080.245286","Mapping"
"Mixed","Male","tile","26","F_ball.wav","space","416.029331856","228","266954.583694","273837.133433","274604.089805","260770.889055","261537.139585","262304.005679","263071.248655","263837.687471","267720.470017","268470.676622","269237.154085","270003.929591","270770.353877","271537.23883","272304.000114","273070.646695","273846.147068","Mapping"
"Mixed","Male","tile","26","F_dime.wav","None","725.912702386","228","266954.583694","273837.133433","274604.089805","275370.179874","261537.139585","262304.005679","263071.248655","263837.687471","267720.470017","268470.676622","269237.154085","270003.929591","270770.353877","271537.23883","272304.000114","273070.646695","274613.958613","Mapping"
"Mixed","Male","tile","26","M_tile.wav","None","726.832801942","228","266954.583694","273837.133433","274604.089805","275370.179874","276137.214467","262304.005679","263071.248655","263837.687471","267720.470017","268470.676622","269237.154085","270003.929591","270770.353877","271537.23883","272304.000114","273070.646695","275378.873824","Mapping"
"Mixed","Male","tile","26","F_bluff.wav","space","560.99724432","228","266954.583694","273837.133433","274604.089805","275370.179874","276137.214467","276903.693785","263071.248655","263837.687471","267720.470017","268470.676622","269237.154085","270003.929591","270770.353877","271537.23883","272304.000114","273070.646695","276141.1286","Mapping"
"Mixed","Male","tile","26","F_lash.wav","None","723.697476438","228","266954.583694","273837.133433","274604.089805","275370.179874","276137.214467","276903.693785","277670.322743","263837.687471","267720.470017","268470.676622","269237.154085","270003.929591","270770.353877","271537.23883","272304.000114","273070.646695","276912.699382","Mapping"
"Mixed","Male","tile","26","M_depth.wav","None","722.985141445","228","266954.583694","273837.133433","274604.089805","275370.179874","276137.214467","276903.693785","277670.322743","278437.133494","267720.470017","268470.676622","269237.154085","270003.929591","270770.353877","271537.23883","272304.000114","273070.646695","277679.194468","Mapping"
"Mixed","Male","done","40","F_tile.wav","None","721.47637629","228","281554.180284","273837.133433","274604.089805","275370.179874","276137.214467","276903.693785","277670.322743","278437.133494","267720.470017","268470.676622","269237.154085","270003.929591","270770.353877","271537.23883","272304.000114","273070.646695","278446.382411","Mapping"
"Mixed","Male","done","40","M_done.wav","None","720.517320908","228","281554.180284","273837.133433","274604.089805","275370.179874","276137.214467","276903.693785","277670.322743","278437.133494","282320.835213","268470.676622","269237.154085","270003.929591","270770.353877","271537.23883","272304.000114","273070.646695","281564.002408","Mapping"
"Mixed","Male","done","40","F_tile.wav","space","475.014322437","228","281554.180284","273837.133433","274604.089805","275370.179874","276137.214467","276903.693785","277670.322743","278437.133494","282320.835213","283069.969296","269237.154085","270003.929591","270770.353877","271537.23883","272304.000114","273070.646695","282330.980731","Mapping"
"Mixed","Male","done","40","M_dime.wav","None","736.054820125","228","281554.180284","273837.133433","274604.089805","275370.179874","276137.214467","276903.693785","277670.322743","278437.133494","282320.835213","283069.969296","283836.686059","270003.929591","270770.353877","271537.23883","272304.000114","273070.646695","283078.969019","Mapping"
"Mixed","Male","done","40","F_dime.wav","None","741.033436148","228","281554.180284","273837.133433","274604.089805","275370.179874","276137.214467","276903.693785","277670.322743","278437.133494","282320.835213","283069.969296","283836.686059","284603.378397","270770.353877","271537.23883","272304.000114","273070.646695","283840.011526","Mapping"
"Mixed","Male","done","40","M_done.wav","None","734.279547702","228","281554.180284","273837.133433","274604.089805","275370.179874","276137.214467","276903.693785","277670.322743","278437.133494","282320.835213","283069.969296","283836.686059","284603.378397","285370.474207","271537.23883","272304.000114","273070.646695","284612.511992","Mapping"
"Mixed","Male","done","40","M_priest.wav","space","602.011233568","228","281554.180284","273837.133433","274604.089805","275370.179874","276137.214467","276903.693785","277670.322743","278437.133494","282320.835213","283069.969296","283836.686059","284603.378397","285370.474207","286136.990007","272304.000114","273070.646695","285379.947583","Mapping"
"Mixed","Male","done","40","F_dime.wav","None","730.831957189","228","281554.180284","273837.133433","274604.089805","275370.179874","276137.214467","276903.693785","277670.322743","278437.133494","282320.835213","283069.969296","283836.686059","284603.378397","285370.474207","286136.990007","286903.836005","273070.646695","286146.387327","Mapping"
"Mixed","Male","done","40","M_done.wav","None","729.663282516","228","281554.180284","273837.133433","274604.089805","275370.179874","276137.214467","276903.693785","277670.322743","278437.133494","282320.835213","283069.969296","283836.686059","284603.378397","285370.474207","286136.990007","286903.836005","287670.400964","286913.250947","Mapping"
"Mixed","Male","done","40","F_gnash.wav","space","526.034083916","228","281554.180284","288436.530916","274604.089805","275370.179874","276137.214467","276903.693785","277670.322743","278437.133494","282320.835213","283069.969296","283836.686059","284603.378397","285370.474207","286136.990007","286903.836005","287670.400964","287679.794573","Mapping"
"Mixed","Male","done","40","F_cad.wav","None","729.326592991","228","281554.180284","288436.530916","289203.274268","275370.179874","276137.214467","276903.693785","277670.322743","278437.133494","282320.835213","283069.969296","283836.686059","284603.378397","285370.474207","286136.990007","286903.836005","287670.400964","288445.712432","Mapping"
"Mixed","Male","done","40","F_jaw.wav","None","728.809655411","228","281554.180284","288436.530916","289203.274268","289970.472104","276137.214467","276903.693785","277670.322743","278437.133494","282320.835213","283069.969296","283836.686059","284603.378397","285370.474207","286136.990007","286903.836005","287670.400964","289212.035927","Mapping"
"Mixed","Male","done","40","M_cad.wav","None","726.704495028","228","281554.180284","288436.530916","289203.274268","289970.472104","290736.797145","276903.693785","277670.322743","278437.133494","282320.835213","283069.969296","283836.686059","284603.378397","285370.474207","286136.990007","286903.836005","287670.400964","289979.846545","Mapping"
"Mixed","Male","done","40","M_jaw.wav","None","726.432731724","228","281554.180284","288436.530916","289203.274268","289970.472104","290736.797145","291503.728783","277670.322743","278437.133494","282320.835213","283069.969296","283836.686059","284603.378397","285370.474207","286136.990007","286903.836005","287670.400964","290745.994429","Mapping"
"Mixed","Male","done","40","M_done.wav","None","724.734443473","228","281554.180284","288436.530916","289203.274268","289970.472104","290736.797145","291503.728783","292270.684228","278437.133494","282320.835213","283069.969296","283836.686059","284603.378397","285370.474207","286136.990007","286903.836005","287670.400964","291513.496801","Mapping"
"Mixed","Male","done","40","F_greet.wav","space","589.211772196","228","281554.180284","288436.530916","289203.274268","289970.472104","290736.797145","291503.728783","292270.684228","293037.230946","282320.835213","283069.969296","283836.686059","284603.378397","285370.474207","286136.990007","286903.836005","287670.400964","292280.624146","Mapping"
"Mixed","Female","cave","20","M_jaw.wav","None","721.883557388","228","296153.77502","288436.530916","289203.274268","289970.472104","290736.797145","291503.728783","292270.684228","293037.230946","282320.835213","283069.969296","283836.686059","284603.378397","285370.474207","286136.990007","286903.836005","287670.400964","293046.818098","Mapping"
"Mixed","Female","cave","20","M_tile.wav","None","721.214815741","228","296153.77502","288436.530916","289203.274268","289970.472104","290736.797145","291503.728783","292270.684228","293037.230946","296920.764165","283069.969296","283836.686059","284603.378397","285370.474207","286136.990007","286903.836005","287670.400964","296163.952074","Mapping"
"Mixed","Female","cave","20","F_bluff.wav","None","720.457032206","228","296153.77502","288436.530916","289203.274268","289970.472104","290736.797145","291503.728783","292270.684228","293037.230946","296920.764165","297686.58649","283836.686059","284603.378397","285370.474207","286136.990007","286903.836005","287670.400964","296930.52569","Mapping"
"Mixed","Female","cave","20","M_cling.wav","None","721.186990151","228","296153.77502","288436.530916","289203.274268","289970.472104","290736.797145","291503.728783","292270.684228","293037.230946","296920.764165","297686.58649","298453.669005","284603.378397","285370.474207","286136.990007","286903.836005","287670.400964","297695.645883","Mapping"
"Mixed","Female","cave","20","F_dime.wav","None","719.975649612","228","296153.77502","288436.530916","289203.274268","289970.472104","290736.797145","291503.728783","292270.684228","293037.230946","296920.764165","297686.58649","298453.669005","299203.277669","285370.474207","286136.990007","286903.836005","287670.400964","298462.72376","Mapping"
"Mixed","Female","cave","20","M_done.wav","None","735.595388687","228","296153.77502","288436.530916","289203.274268","289970.472104","290736.797145","291503.728783","292270.684228","293037.230946","296920.764165","297686.58649","298453.669005","299203.277669","299970.07358","286136.990007","286903.836005","287670.400964","299212.755064","Mapping"
"Mixed","Female","cave","20","F_cave.wav","None","734.790610848","228","296153.77502","288436.530916","289203.274268","289970.472104","290736.797145","291503.728783","292270.684228","293037.230946","296920.764165","297686.58649","298453.669005","299203.277669","299970.07358","300736.693572","286903.836005","287670.400964","299979.3024","Mapping"
"Mixed","Female","cave","20","F_bluff.wav","space","643.422819325","228","296153.77502","288436.530916","289203.274268","289970.472104","290736.797145","291503.728783","292270.684228","293037.230946","296920.764165","297686.58649","298453.669005","299203.277669","299970.07358","300736.693572","301503.557811","287670.400964","300746.266811","Mapping"
"Mixed","Female","cave","20","F_cave.wav","None","731.275930069","228","296153.77502","288436.530916","289203.274268","289970.472104","290736.797145","291503.728783","292270.684228","293037.230946","296920.764165","297686.58649","298453.669005","299203.277669","299970.07358","300736.693572","301503.557811","302269.648807","301513.095185","Mapping"
"Mixed","Female","cave","20","F_dime.wav","None","731.94807244","228","296153.77502","303036.692366","289203.274268","289970.472104","290736.797145","291503.728783","292270.684228","293037.230946","296920.764165","297686.58649","298453.669005","299203.277669","299970.07358","300736.693572","301503.557811","302269.648807","302278.310603","Mapping"
"Mixed","Female","cave","20","F_cave.wav","space","79.5994228683","228","296153.77502","303036.692366","303803.525069","289970.472104","290736.797145","291503.728783","292270.684228","293037.230946","296920.764165","297686.58649","298453.669005","299203.277669","299970.07358","300736.693572","301503.557811","302269.648807","303046.016102","Mapping"
"Mixed","Female","cave","20","M_park.wav","space","616.499707918","228","296153.77502","303036.692366","303803.525069","304570.117235","290736.797145","291503.728783","292270.684228","293037.230946","296920.764165","297686.58649","298453.669005","299203.277669","299970.07358","300736.693572","301503.557811","302269.648807","303813.098926","Mapping"
"Mixed","Female","cave","20","M_tile.wav","None","725.555298268","228","296153.77502","303036.692366","303803.525069","304570.117235","305336.565018","291503.728783","292270.684228","293037.230946","296920.764165","297686.58649","298453.669005","299203.277669","299970.07358","300736.693572","301503.557811","302269.648807","304579.601742","Mapping"
"Mixed","Female","cave","20","F_cave.wav","None","725.561790867","228","296153.77502","303036.692366","303803.525069","304570.117235","305336.565018","306103.589099","292270.684228","293037.230946","296920.764165","297686.58649","298453.669005","299203.277669","299970.07358","300736.693572","301503.557811","302269.648807","305345.590402","Mapping"
"Mixed","Female","cave","20","M_bluff.wav","space","516.040060204","228","296153.77502","303036.692366","303803.525069","304570.117235","305336.565018","306103.589099","306870.313591","293037.230946","296920.764165","297686.58649","298453.669005","299203.277669","299970.07358","300736.693572","301503.557811","302269.648807","306113.47955","Mapping"
"Mixed","Female","cave","20","M_gnash.wav","None","721.231201896","228","296153.77502","303036.692366","303803.525069","304570.117235","305336.565018","306103.589099","306870.313591","307637.024789","296920.764165","297686.58649","298453.669005","299203.277669","299970.07358","300736.693572","301503.557811","302269.648807","306880.280099","Mapping"
"Mixed","Male","ball","6","F_priest.wav","None","721.187608433","228","310753.68975","303036.692366","303803.525069","304570.117235","305336.565018","306103.589099","306870.313591","307637.024789","296920.764165","297686.58649","298453.669005","299203.277669","299970.07358","300736.693572","301503.557811","302269.648807","307646.748286","Mapping"
"Mixed","Male","ball","6","F_dime.wav","None","720.55875021","228","310753.68975","303036.692366","303803.525069","304570.117235","305336.565018","306103.589099","306870.313591","307637.024789","311519.744573","297686.58649","298453.669005","299203.277669","299970.07358","300736.693572","301503.557811","302269.648807","310763.526096","Mapping"
"Mixed","Male","ball","6","M_ball.wav","None","721.524916473","228","310753.68975","303036.692366","303803.525069","304570.117235","305336.565018","306103.589099","306870.313591","307637.024789","311519.744573","312286.941792","298453.669005","299203.277669","299970.07358","300736.693572","301503.557811","302269.648807","311528.976485","Mapping"
"Mixed","Male","ball","6","M_cling.wav","space","476.545348065","228","310753.68975","303036.692366","303803.525069","304570.117235","305336.565018","306103.589099","306870.313591","307637.024789","311519.744573","312286.941792","313036.265089","299203.277669","299970.07358","300736.693572","301503.557811","302269.648807","312296.866251","Mapping"
"Mixed","Male","ball","6","M_dime.wav","None","735.059900791","228","310753.68975","303036.692366","303803.525069","304570.117235","305336.565018","306103.589099","306870.313591","307637.024789","311519.744573","312286.941792","313036.265089","313803.284532","299970.07358","300736.693572","301503.557811","302269.648807","313045.917476","Mapping"
"Mixed","Male","ball","6","F_greet.wav","None","734.602633631","228","310753.68975","303036.692366","303803.525069","304570.117235","305336.565018","306103.589099","306870.313591","307637.024789","311519.744573","312286.941792","313036.265089","313803.284532","314569.420359","300736.693572","301503.557811","302269.648807","313812.382881","Mapping"
"Mixed","Male","ball","6","F_romp.wav","None","734.527195338","228","310753.68975","303036.692366","303803.525069","304570.117235","305336.565018","306103.589099","306870.313591","307637.024789","311519.744573","312286.941792","313036.265089","313803.284532","314569.420359","315336.435783","301503.557811","302269.648807","314578.432449","Mapping"
"Mixed","Male","ball","6","M_ball.wav","None","733.587308787","228","310753.68975","303036.692366","303803.525069","304570.117235","305336.565018","306103.589099","306870.313591","307637.024789","311519.744573","312286.941792","313036.265089","313803.284532","314569.420359","315336.435783","316103.30837","302269.648807","315345.454366","Mapping"
"Mixed","Male","ball","6","F_cling.wav","space","484.667637153","228","310753.68975","303036.692366","303803.525069","304570.117235","305336.565018","306103.589099","306870.313591","307637.024789","311519.744573","312286.941792","313036.265089","313803.284532","314569.420359","315336.435783","316103.30837","316869.397202","316112.745263","Mapping"
"Mixed","Male","ball","6","M_gnash.wav","None","731.561606051","228","310753.68975","317635.99246","303803.525069","304570.117235","305336.565018","306103.589099","306870.313591","307637.024789","311519.744573","312286.941792","313036.265089","313803.284532","314569.420359","315336.435783","316103.30837","316869.397202","316878.152059","Mapping"
"Mixed","Male","ball","6","M_romp.wav","None","731.438555173","228","310753.68975","317635.99246","318403.254295","304570.117235","305336.565018","306103.589099","306870.313591","307637.024789","311519.744573","312286.941792","313036.265089","313803.284532","314569.420359","315336.435783","316103.30837","316869.397202","317644.868204","Mapping"
"Mixed","Male","ball","6","M_ball.wav","None","729.579496663","228","310753.68975","317635.99246","318403.254295","319169.82822","305336.565018","306103.589099","306870.313591","307637.024789","311519.744573","312286.941792","313036.265089","313803.284532","314569.420359","315336.435783","316103.30837","316869.397202","318412.732","Mapping"
"Mixed","Male","ball","6","F_cave.wav","space","457.987226895","228","310753.68975","317635.99246","318403.254295","319169.82822","319935.747935","306103.589099","306870.313591","307637.024789","311519.744573","312286.941792","313036.265089","313803.284532","314569.420359","315336.435783","316103.30837","316869.397202","319179.37487","Mapping"
"Mixed","Male","ball","6","M_ball.wav","None","730.368815828","228","310753.68975","317635.99246","318403.254295","319169.82822","319935.747935","320702.927221","306870.313591","307637.024789","311519.744573","312286.941792","313036.265089","313803.284532","314569.420359","315336.435783","316103.30837","316869.397202","319944.489189","Mapping"
"Mixed","Male","ball","6","F_priest.wav","space","645.506646717","228","310753.68975","317635.99246","318403.254295","319169.82822","319935.747935","320702.927221","321469.842782","307637.024789","311519.744573","312286.941792","313036.265089","313803.284532","314569.420359","315336.435783","316103.30837","316869.397202","320711.766483","Mapping"
"Mixed","Male","ball","6","F_park.wav","None","722.538695321","228","310753.68975","317635.99246","318403.254295","319169.82822","319935.747935","320702.927221","321469.842782","322236.251918","311519.744573","312286.941792","313036.265089","313803.284532","314569.420359","315336.435783","316103.30837","316869.397202","321482.818782","Mapping"
"Mixed","Male","done","39","F_romp.wav","None","725.5800321","228","325370.320548","317635.99246","318403.254295","319169.82822","319935.747935","320702.927221","321469.842782","322236.251918","311519.744573","312286.941792","313036.265089","313803.284532","314569.420359","315336.435783","316103.30837","316869.397202","322245.866895","Mapping"
"Mixed","Male","done","39","M_romp.wav","None","720.79434013","228","325370.320548","317635.99246","318403.254295","319169.82822","319935.747935","320702.927221","321469.842782","322236.251918","326136.080729","312286.941792","313036.265089","313803.284532","314569.420359","315336.435783","316103.30837","316869.397202","325380.112063","Mapping"
"Mixed","Male","done","39","F_priest.wav","None","722.068133764","228","325370.320548","317635.99246","318403.254295","319169.82822","319935.747935","320702.927221","321469.842782","322236.251918","326136.080729","326903.332671","313036.265089","313803.284532","314569.420359","315336.435783","316103.30837","316869.397202","326145.087872","Mapping"
"Mixed","Male","done","39","M_done.wav","None","719.98492477","228","325370.320548","317635.99246","318403.254295","319169.82822","319935.747935","320702.927221","321469.842782","322236.251918","326136.080729","326903.332671","327670.041704","313803.284532","314569.420359","315336.435783","316103.30837","316869.397202","326913.122949","Mapping"
"Mixed","Male","done","39","M_tile.wav","space","588.88373943","228","325370.320548","317635.99246","318403.254295","319169.82822","319935.747935","320702.927221","321469.842782","322236.251918","326136.080729","326903.332671","327670.041704","328419.560708","314569.420359","315336.435783","316103.30837","316869.397202","327680.273173","Mapping"
"Mixed","Male","done","39","M_jolt.wav","None","734.559967765","228","325370.320548","317635.99246","318403.254295","319169.82822","319935.747935","320702.927221","321469.842782","322236.251918","326136.080729","326903.332671","327670.041704","328419.560708","329185.79176","315336.435783","316103.30837","316869.397202","328429.126527","Mapping"
"Mixed","Male","done","39","F_priest.wav","None","735.204284661","228","325370.320548","317635.99246","318403.254295","319169.82822","319935.747935","320702.927221","321469.842782","322236.251918","326136.080729","326903.332671","327670.041704","328419.560708","329185.79176","329953.004746","316103.30837","316869.397202","329194.581245","Mapping"
"Mixed","Male","done","39","M_done.wav","None","733.626882895","228","325370.320548","317635.99246","318403.254295","319169.82822","319935.747935","320702.927221","321469.842782","322236.251918","326136.080729","326903.332671","327670.041704","328419.560708","329185.79176","329953.004746","330719.60155","316869.397202","329962.128447","Mapping"
"Mixed","Male","done","39","F_dime.wav","space","515.835078317","228","325370.320548","317635.99246","318403.254295","319169.82822","319935.747935","320702.927221","321469.842782","322236.251918","326136.080729","326903.332671","327670.041704","328419.560708","329185.79176","329953.004746","330719.60155","331486.182586","330729.288874","Mapping"
"Mixed","Male","done","39","F_gnash.wav","None","730.759301572","228","325370.320548","332252.873688","318403.254295","319169.82822","319935.747935","320702.927221","321469.842782","322236.251918","326136.080729","326903.332671","327670.041704","328419.560708","329185.79176","329953.004746","330719.60155","331486.182586","331495.604639","Mapping"
"Mixed","Male","done","39","M_done.wav","None","730.370979989","228","325370.320548","332252.873688","333019.65414","319169.82822","319935.747935","320702.927221","321469.842782","322236.251918","326136.080729","326903.332671","327670.041704","328419.560708","329185.79176","329953.004746","330719.60155","331486.182586","332262.123841","Mapping"
"Mixed","Male","done","39","F_tile.wav","space","583.981179981","228","325370.320548","332252.873688","333019.65414","333786.066059","319935.747935","320702.927221","321469.842782","322236.251918","326136.080729","326903.332671","327670.041704","328419.560708","329185.79176","329953.004746","330719.60155","331486.182586","333029.099691","Mapping"
"Mixed","Male","done","39","M_done.wav","None","727.382202749","228","325370.320548","332252.873688","333019.65414","333786.066059","334552.872482","320702.927221","321469.842782","322236.251918","326136.080729","326903.332671","327670.041704","328419.560708","329185.79176","329953.004746","330719.60155","331486.182586","333795.67949","Mapping"
"Mixed","Male","done","39","M_park.wav","None","729.256101418","228","325370.320548","332252.873688","333019.65414","333786.066059","334552.872482","335319.551217","321469.842782","322236.251918","326136.080729","326903.332671","327670.041704","328419.560708","329185.79176","329953.004746","330719.60155","331486.182586","334562.398108","Mapping"
"Mixed","Male","done","39","F_lash.wav","None","728.643010953","228","325370.320548","332252.873688","333019.65414","333786.066059","334552.872482","335319.551217","336085.701265","322236.251918","326136.080729","326903.332671","327670.041704","328419.560708","329185.79176","329953.004746","330719.60155","331486.182586","335329.026138","Mapping"
"Mixed","Male","done","39","F_reek.wav","None","728.941053967","228","325370.320548","332252.873688","333019.65414","333786.066059","334552.872482","335319.551217","336085.701265","336852.406898","326136.080729","326903.332671","327670.041704","328419.560708","329185.79176","329953.004746","330719.60155","331486.182586","336094.839807","Mapping"
"Mixed","Male","cave","15","F_lash.wav","None","728.673619218","228","339986.449248","332252.873688","333019.65414","333786.066059","334552.872482","335319.551217","336085.701265","336852.406898","326136.080729","326903.332671","327670.041704","328419.560708","329185.79176","329953.004746","330719.60155","331486.182586","336861.233174","Mapping"
"Mixed","Male","cave","15","F_greet.wav","None","721.660643467","228","339986.449248","332252.873688","333019.65414","333786.066059","334552.872482","335319.551217","336085.701265","336852.406898","340752.613518","326903.332671","327670.041704","328419.560708","329185.79176","329953.004746","330719.60155","331486.182586","339995.894798","Mapping"
"Mixed","Male","cave","15","F_gnash.wav","None","722.095650155","228","339986.449248","332252.873688","333019.65414","333786.066059","334552.872482","335319.551217","336085.701265","336852.406898","340752.613518","341519.198264","327670.041704","328419.560708","329185.79176","329953.004746","330719.60155","331486.182586","340761.531619","Mapping"
"Mixed","Male","cave","15","F_gnash.wav","None","721.184207592","228","339986.449248","332252.873688","333019.65414","333786.066059","334552.872482","335319.551217","336085.701265","336852.406898","340752.613518","341519.198264","342285.980263","328419.560708","329185.79176","329953.004746","330719.60155","331486.182586","341528.45862","Mapping"
"Mixed","Male","cave","15","M_cave.wav","None","721.001486178","228","339986.449248","332252.873688","333019.65414","333786.066059","334552.872482","335319.551217","336085.701265","336852.406898","340752.613518","341519.198264","342285.980263","343052.649104","329185.79176","329953.004746","330719.60155","331486.182586","342294.840549","Mapping"
"Mixed","Male","cave","15","M_cling.wav","space","439.431888051","228","339986.449248","332252.873688","333019.65414","333786.066059","334552.872482","335319.551217","336085.701265","336852.406898","340752.613518","341519.198264","342285.980263","343052.649104","343802.690301","329953.004746","330719.60155","331486.182586","343061.525158","Mapping"
"Mixed","Male","cave","15","F_cling.wav","None","734.342000564","228","339986.449248","332252.873688","333019.65414","333786.066059","334552.872482","335319.551217","336085.701265","336852.406898","340752.613518","341519.198264","342285.980263","343052.649104","343802.690301","344569.361616","330719.60155","331486.182586","343811.907373","Mapping"
"Mixed","Male","cave","15","M_cave.wav","None","733.506614575","228","339986.449248","332252.873688","333019.65414","333786.066059","334552.872482","335319.551217","336085.701265","336852.406898","340752.613518","341519.198264","342285.980263","343052.649104","343802.690301","344569.361616","345335.904005","331486.182586","344578.896518","Mapping"
"Mixed","Male","cave","15","M_cling.wav","space","555.350505048","228","339986.449248","332252.873688","333019.65414","333786.066059","334552.872482","335319.551217","336085.701265","336852.406898","340752.613518","341519.198264","342285.980263","343052.649104","343802.690301","344569.361616","345335.904005","346102.204931","345345.525475","Mapping"
"Mixed","Male","cave","15","M_cave.wav","None","732.030312647","228","339986.449248","346868.888303","333019.65414","333786.066059","334552.872482","335319.551217","336085.701265","336852.406898","340752.613518","341519.198264","342285.980263","343052.649104","343802.690301","344569.361616","345335.904005","346102.204931","346110.988541","Mapping"
"Mixed","Male","cave","15","F_jaw.wav","space","687.271617702","228","339986.449248","346868.888303","347635.880539","333786.066059","334552.872482","335319.551217","336085.701265","336852.406898","340752.613518","341519.198264","342285.980263","343052.649104","343802.690301","344569.361616","345335.904005","346102.204931","346877.588746","Mapping"
"Mixed","Male","cave","15","F_jolt.wav","None","728.792650858","228","339986.449248","346868.888303","347635.880539","348402.228149","334552.872482","335319.551217","336085.701265","336852.406898","340752.613518","341519.198264","342285.980263","343052.649104","343802.690301","344569.361616","345335.904005","346102.204931","347645.227773","Mapping"
"Mixed","Male","cave","15","M_cave.wav","None","728.725869441","228","339986.449248","346868.888303","347635.880539","348402.228149","349169.306954","335319.551217","336085.701265","336852.406898","340752.613518","341519.198264","342285.980263","343052.649104","343802.690301","344569.361616","345335.904005","346102.204931","348411.355251","Mapping"
"Mixed","Male","cave","15","M_cad.wav","None","727.434762171","228","339986.449248","346868.888303","347635.880539","348402.228149","349169.306954","349935.870677","336085.701265","336852.406898","340752.613518","341519.198264","342285.980263","343052.649104","343802.690301","344569.361616","345335.904005","346102.204931","349178.747249","Mapping"
"Mixed","Male","cave","15","F_tile.wav","space","395.580925629","228","339986.449248","346868.888303","347635.880539","348402.228149","349169.306954","349935.870677","350702.698124","336852.406898","340752.613518","341519.198264","342285.980263","343052.649104","343802.690301","344569.361616","345335.904005","346102.204931","349945.232441","Mapping"
