"Condition","Talker","Target","Trial","current_stimulus","response_response","response_time_response","subject_nr","time_Audio1","time_Audio10","time_Audio11","time_Audio12","time_Audio13","time_Audio14","time_Audio15","time_Audio16","time_Audio2","time_Audio3","time_Audio4","time_Audio5","time_Audio6","time_Audio7","time_Audio8","time_Audio9","time_response","title"
"Blocked","Male","ball","3","M_dime.wav","NA","NA","217","557753.160137","NA","NA","NA","NA","NA","NA","NA","NA","NA","NA","NA","NA","NA","NA","NA","NA","Mapping"
"Blocked","Male","ball","3","M_ball.wav","None","726.074400067","217","557753.160137","NA","NA","NA","NA","NA","NA","NA","558520.151445","NA","NA","NA","NA","NA","NA","NA","557761.126602","Mapping"
"Blocked","Male","ball","3","M_reek.wav","space","508.464389277","217","557753.160137","NA","NA","NA","NA","NA","NA","NA","558520.151445","559286.559035","NA","NA","NA","NA","NA","NA","558530.652513","Mapping"
"Blocked","Male","ball","3","M_depth.wav","None","722.749860637","217","557753.160137","NA","NA","NA","NA","NA","NA","NA","558520.151445","559286.559035","560053.385555","NA","NA","NA","NA","NA","559296.429699","Mapping"
"Blocked","Male","ball","3","M_ball.wav","None","721.645493963","217","557753.160137","NA","NA","NA","NA","NA","NA","NA","558520.151445","559286.559035","560053.385555","560819.863636","NA","NA","NA","NA","560063.697408","Mapping"
"Blocked","Male","ball","3","M_bluff.wav","None","718.738647556","217","557753.160137","NA","NA","NA","NA","NA","NA","NA","558520.151445","559286.559035","560053.385555","560819.863636","561569.695214","NA","NA","NA","560829.865389","Mapping"
"Blocked","Male","ball","3","M_tile.wav","None","736.35688232","217","557753.160137","NA","NA","NA","NA","NA","NA","NA","558520.151445","559286.559035","560053.385555","560819.863636","561569.695214","562335.718192","NA","NA","561578.672058","Mapping"
"Blocked","Male","ball","3","M_knife.wav","None","736.026994506","217","557753.160137","NA","NA","NA","NA","NA","NA","NA","558520.151445","559286.559035","560053.385555","560819.863636","561569.695214","562335.718192","563102.385488","NA","562345.021214","Mapping"
"Blocked","Male","ball","3","M_jolt.wav","None","736.125002441","217","557753.160137","NA","NA","NA","NA","NA","NA","NA","558520.151445","559286.559035","560053.385555","560819.863636","561569.695214","562335.718192","563102.385488","563869.492427","563111.116539","Mapping"
"Blocked","Male","ball","3","M_ball.wav","None","734.472162498","217","557753.160137","564636.177655","NA","NA","NA","NA","NA","NA","558520.151445","559286.559035","560053.385555","560819.863636","561569.695214","562335.718192","563102.385488","563869.492427","563879.156254","Mapping"
"Blocked","Male","ball","3","M_bluff.wav","space","385.308027733","217","557753.160137","564636.177655","565402.864119","NA","NA","NA","NA","NA","558520.151445","559286.559035","560053.385555","560819.863636","561569.695214","562335.718192","563102.385488","563869.492427","564645.700498","Mapping"
"Blocked","Male","ball","3","M_jolt.wav","None","728.244486731","217","557753.160137","564636.177655","565402.864119","566169.515646","NA","NA","NA","NA","558520.151445","559286.559035","560053.385555","560819.863636","561569.695214","562335.718192","563102.385488","563869.492427","565412.322964","Mapping"
"Blocked","Male","ball","3","M_ball.wav","None","721.534191602","217","557753.160137","564636.177655","565402.864119","566169.515646","566936.476656","NA","NA","NA","558520.151445","559286.559035","560053.385555","560819.863636","561569.695214","562335.718192","563102.385488","563869.492427","566182.874402","Mapping"
"Blocked","Male","ball","3","M_park.wav","space","388.981005352","217","557753.160137","564636.177655","565402.864119","566169.515646","566936.476656","567703.264838","NA","NA","558520.151445","559286.559035","560053.385555","560819.863636","561569.695214","562335.718192","563102.385488","563869.492427","566945.998572","Mapping"
"Blocked","Male","ball","3","M_tile.wav","None","720.56029606","217","557753.160137","564636.177655","565402.864119","566169.515646","566936.476656","567703.264838","568452.507441","NA","558520.151445","559286.559035","560053.385555","560819.863636","561569.695214","562335.718192","563102.385488","563869.492427","567713.275866","Mapping"
"Blocked","Male","ball","3","M_depth.wav","None","735.446058097","217","557753.160137","564636.177655","565402.864119","566169.515646","566936.476656","567703.264838","568452.507441","569219.381882","558520.151445","559286.559035","560053.385555","560819.863636","561569.695214","562335.718192","563102.385488","563869.492427","568461.688958","Mapping"
"Blocked","Male","done","24","M_greet.wav","None","731.155661575","217","572385.921427","564636.177655","565402.864119","566169.515646","566936.476656","567703.264838","568452.507441","569219.381882","558520.151445","559286.559035","560053.385555","560819.863636","561569.695214","562335.718192","563102.385488","563869.492427","569229.130113","Mapping"
"Blocked","Male","done","24","M_done.wav","None","724.964159075","217","572385.921427","564636.177655","565402.864119","566169.515646","566936.476656","567703.264838","568452.507441","569219.381882","573153.3564","559286.559035","560053.385555","560819.863636","561569.695214","562335.718192","563102.385488","563869.492427","572394.891469","Mapping"
"Blocked","Male","done","24","M_depth.wav","None","723.295551317","217","572385.921427","564636.177655","565402.864119","566169.515646","566936.476656","567703.264838","568452.507441","569219.381882","573153.3564","573919.505521","560053.385555","560819.863636","561569.695214","562335.718192","563102.385488","563869.492427","573162.905832","Mapping"
"Blocked","Male","done","24","M_done.wav","space","277.926301147","217","572385.921427","564636.177655","565402.864119","566169.515646","566936.476656","567703.264838","568452.507441","569219.381882","573153.3564","573919.505521","574669.790656","560819.863636","561569.695214","562335.718192","563102.385488","563869.492427","573928.942414","Mapping"
"Blocked","Male","done","24","M_bluff.wav","space","632.006289816","217","572385.921427","564636.177655","565402.864119","566169.515646","566936.476656","567703.264838","568452.507441","569219.381882","573153.3564","573919.505521","574669.790656","575436.347267","561569.695214","562335.718192","563102.385488","563869.492427","574678.829953","Mapping"
"Blocked","Male","done","24","M_romp.wav","None","729.855897458","217","572385.921427","564636.177655","565402.864119","566169.515646","566936.476656","567703.264838","568452.507441","569219.381882","573153.3564","573919.505521","574669.790656","575436.347267","576202.674781","562335.718192","563102.385488","563869.492427","575445.844449","Mapping"
"Blocked","Male","done","24","M_reek.wav","None","729.828690208","217","572385.921427","564636.177655","565402.864119","566169.515646","566936.476656","567703.264838","568452.507441","569219.381882","573153.3564","573919.505521","574669.790656","575436.347267","576202.674781","576969.330019","563102.385488","563869.492427","576211.936992","Mapping"
"Blocked","Male","done","24","M_knife.wav","None","725.768627774","217","572385.921427","564636.177655","565402.864119","566169.515646","566936.476656","567703.264838","568452.507441","569219.381882","573153.3564","573919.505521","574669.790656","575436.347267","576202.674781","576969.330019","577736.201987","563869.492427","576979.375365","Mapping"
"Blocked","Male","done","24","M_ball.wav","None","722.919287538","217","572385.921427","564636.177655","565402.864119","566169.515646","566936.476656","567703.264838","568452.507441","569219.381882","573153.3564","573919.505521","574669.790656","575436.347267","576202.674781","576969.330019","577736.201987","578503.085394","577745.729777","Mapping"
"Blocked","Male","done","24","M_depth.wav","None","719.275681389","217","572385.921427","579252.673343","565402.864119","566169.515646","566936.476656","567703.264838","568452.507441","569219.381882","573153.3564","573919.505521","574669.790656","575436.347267","576202.674781","576969.330019","577736.201987","578503.085394","578512.768699","Mapping"
"Blocked","Male","done","24","M_done.wav","None","733.073462965","217","572385.921427","579252.673343","580019.255307","566169.515646","566936.476656","567703.264838","568452.507441","569219.381882","573153.3564","573919.505521","574669.790656","575436.347267","576202.674781","576969.330019","577736.201987","578503.085394","579262.243181","Mapping"
"Blocked","Male","done","24","M_bluff.wav","space","361.741300585","217","572385.921427","579252.673343","580019.255307","580785.78131","566936.476656","567703.264838","568452.507441","569219.381882","573153.3564","573919.505521","574669.790656","575436.347267","576202.674781","576969.330019","577736.201987","578503.085394","580028.971693","Mapping"
"Blocked","Male","done","24","M_done.wav","None","727.034382842","217","572385.921427","579252.673343","580019.255307","580785.78131","581552.915148","567703.264838","568452.507441","569219.381882","573153.3564","573919.505521","574669.790656","575436.347267","576202.674781","576969.330019","577736.201987","578503.085394","580794.580688","Mapping"
"Blocked","Male","done","24","M_jolt.wav","space","611.778014863","217","572385.921427","579252.673343","580019.255307","580785.78131","581552.915148","582319.390446","568452.507441","569219.381882","573153.3564","573919.505521","574669.790656","575436.347267","576202.674781","576969.330019","577736.201987","578503.085394","581562.949673","Mapping"
"Blocked","Male","done","24","M_cave.wav","None","718.449261418","217","572385.921427","579252.673343","580019.255307","580785.78131","581552.915148","582319.390446","583068.645107","569219.381882","573153.3564","573919.505521","574669.790656","575436.347267","576202.674781","576969.330019","577736.201987","578503.085394","582329.62748","Mapping"
"Blocked","Male","done","24","M_priest.wav","None","736.691098544","217","572385.921427","579252.673343","580019.255307","580785.78131","581552.915148","582319.390446","583068.645107","583835.688357","573153.3564","573919.505521","574669.790656","575436.347267","576202.674781","576969.330019","577736.201987","578503.085394","583077.572174","Mapping"
"Blocked","Male","cave","7","M_jolt.wav","None","735.872098739","217","586969.635173","579252.673343","580019.255307","580785.78131","581552.915148","582319.390446","583068.645107","583835.688357","573153.3564","573919.505521","574669.790656","575436.347267","576202.674781","576969.330019","577736.201987","578503.085394","583844.701065","Mapping"
"Blocked","Male","cave","7","M_bluff.wav","None","719.349573774","217","586969.635173","579252.673343","580019.255307","580785.78131","581552.915148","582319.390446","583068.645107","583835.688357","587719.038855","573919.505521","574669.790656","575436.347267","576202.674781","576969.330019","577736.201987","578503.085394","586979.206247","Mapping"
"Blocked","Male","cave","7","M_cave.wav","None","733.23268714","217","586969.635173","579252.673343","580019.255307","580785.78131","581552.915148","582319.390446","583068.645107","583835.688357","587719.038855","588485.467159","574669.790656","575436.347267","576202.674781","576969.330019","577736.201987","578503.085394","587728.638992","Mapping"
"Blocked","Male","cave","7","M_bluff.wav","space","336.064466333","217","586969.635173","579252.673343","580019.255307","580785.78131","581552.915148","582319.390446","583068.645107","583835.688357","587719.038855","588485.467159","589252.461251","575436.347267","576202.674781","576969.330019","577736.201987","578503.085394","588494.536446","Mapping"
"Blocked","Male","cave","7","M_cling.wav","None","726.397486054","217","586969.635173","579252.673343","580019.255307","580785.78131","581552.915148","582319.390446","583068.645107","583835.688357","587719.038855","588485.467159","589252.461251","590018.585947","576202.674781","576969.330019","577736.201987","578503.085394","589261.880521","Mapping"
"Blocked","Male","cave","7","M_cave.wav","None","726.891235652","217","586969.635173","579252.673343","580019.255307","580785.78131","581552.915148","582319.390446","583068.645107","583835.688357","587719.038855","588485.467159","589252.461251","590018.585947","590786.21508","576969.330019","577736.201987","578503.085394","590027.603292","Mapping"
"Blocked","Male","cave","7","M_knife.wav","space","490.144022158","217","586969.635173","579252.673343","580019.255307","580785.78131","581552.915148","582319.390446","583068.645107","583835.688357","587719.038855","588485.467159","589252.461251","590018.585947","590786.21508","591552.703055","577736.201987","578503.085394","590796.394917","Mapping"
"Blocked","Male","cave","7","M_jolt.wav","None","717.930777988","217","586969.635173","579252.673343","580019.255307","580785.78131","581552.915148","582319.390446","583068.645107","583835.688357","587719.038855","588485.467159","589252.461251","590018.585947","590786.21508","591552.703055","592302.459813","578503.085394","591563.438167","Mapping"
"Blocked","Male","cave","7","M_dime.wav","None","732.765217283","217","586969.635173","579252.673343","580019.255307","580785.78131","581552.915148","582319.390446","583068.645107","583835.688357","587719.038855","588485.467159","589252.461251","590018.585947","590786.21508","591552.703055","592302.459813","593068.998183","592311.909073","Mapping"
"Blocked","Male","cave","7","M_cave.wav","None","729.295057274","217","586969.635173","593836.004332","580019.255307","580785.78131","581552.915148","582319.390446","583068.645107","583835.688357","587719.038855","588485.467159","589252.461251","590018.585947","590786.21508","591552.703055","592302.459813","593068.998183","593078.51979","Mapping"
"Blocked","Male","cave","7","M_tile.wav","space","321.134492522","217","586969.635173","593836.004332","594602.732225","580785.78131","581552.915148","582319.390446","583068.645107","583835.688357","587719.038855","588485.467159","589252.461251","590018.585947","590786.21508","591552.703055","592302.459813","593068.998183","593845.375372","Mapping"
"Blocked","Male","cave","7","M_ball.wav","None","721.271085204","217","586969.635173","593836.004332","594602.732225","595352.346764","581552.915148","582319.390446","583068.645107","583835.688357","587719.038855","588485.467159","589252.461251","590018.585947","590786.21508","591552.703055","592302.459813","593068.998183","594612.995848","Mapping"
"Blocked","Male","cave","7","M_cling.wav","None","736.182817811","217","586969.635173","593836.004332","594602.732225","595352.346764","596118.89781","582319.390446","583068.645107","583835.688357","587719.038855","588485.467159","589252.461251","590018.585947","590786.21508","591552.703055","592302.459813","593068.998183","595361.41234","Mapping"
"Blocked","Male","cave","7","M_cad.wav","None","732.696580817","217","586969.635173","593836.004332","594602.732225","595352.346764","596118.89781","596885.519038","583068.645107","583835.688357","587719.038855","588485.467159","589252.461251","590018.585947","590786.21508","591552.703055","592302.459813","593068.998183","596128.255864","Mapping"
"Blocked","Male","cave","7","M_cave.wav","space","335.663159523","217","586969.635173","593836.004332","594602.732225","595352.346764","596118.89781","596885.519038","597652.182933","583835.688357","587719.038855","588485.467159","589252.461251","590018.585947","590786.21508","591552.703055","592302.459813","593068.998183","596894.793307","Mapping"
"Blocked","Male","cave","7","M_cling.wav","space","696.392536192","217","586969.635173","593836.004332","594602.732225","595352.346764","596118.89781","596885.519038","597652.182933","598418.927212","587719.038855","588485.467159","589252.461251","590018.585947","590786.21508","591552.703055","592302.459813","593068.998183","597662.031336","Mapping"
"Blocked","Male","ball","2","M_romp.wav","None","725.243033317","217","601535.823435","593836.004332","594602.732225","595352.346764","596118.89781","596885.519038","597652.182933","598418.927212","587719.038855","588485.467159","589252.461251","590018.585947","590786.21508","591552.703055","592302.459813","593068.998183","598428.465824","Mapping"
"Blocked","Male","ball","2","M_done.wav","None","720.176302944","217","601535.823435","593836.004332","594602.732225","595352.346764","596118.89781","596885.519038","597652.182933","598418.927212","602285.458997","588485.467159","589252.461251","590018.585947","590786.21508","591552.703055","592302.459813","593068.998183","601545.304849","Mapping"
"Blocked","Male","ball","2","M_greet.wav","None","733.63523063","217","601535.823435","593836.004332","594602.732225","595352.346764","596118.89781","596885.519038","597652.182933","598418.927212","602285.458997","603052.278406","589252.461251","590018.585947","590786.21508","591552.703055","592302.459813","593068.998183","602295.168272","Mapping"
"Blocked","Male","ball","2","M_lash.wav","None","730.91110558","217","601535.823435","593836.004332","594602.732225","595352.346764","596118.89781","596885.519038","597652.182933","598418.927212","602285.458997","603052.278406","603818.767617","590018.585947","590786.21508","591552.703055","592302.459813","593068.998183","603061.392213","Mapping"
"Blocked","Male","ball","2","M_reek.wav","None","730.53762436","217","601535.823435","593836.004332","594602.732225","595352.346764","596118.89781","596885.519038","597652.182933","598418.927212","602285.458997","603052.278406","603818.767617","604585.455009","590786.21508","591552.703055","592302.459813","593068.998183","603828.08146","Mapping"
"Blocked","Male","ball","2","M_ball.wav","None","727.192370337","217","601535.823435","593836.004332","594602.732225","595352.346764","596118.89781","596885.519038","597652.182933","598418.927212","602285.458997","603052.278406","603818.767617","604585.455009","605351.893516","591552.703055","592302.459813","593068.998183","604594.860985","Mapping"
"Blocked","Male","ball","2","M_lash.wav","space","388.975440204","217","601535.823435","593836.004332","594602.732225","595352.346764","596118.89781","596885.519038","597652.182933","598418.927212","602285.458997","603052.278406","603818.767617","604585.455009","605351.893516","606119.180085","592302.459813","593068.998183","605361.325153","Mapping"
"Blocked","Male","ball","2","M_ball.wav","None","719.296395982","217","601535.823435","593836.004332","594602.732225","595352.346764","596118.89781","596885.519038","597652.182933","598418.927212","602285.458997","603052.278406","603818.767617","604585.455009","605351.893516","606119.180085","606868.776382","593068.998183","606129.275827","Mapping"
"Blocked","Male","ball","2","M_bluff.wav","space","439.929347747","217","601535.823435","593836.004332","594602.732225","595352.346764","596118.89781","596885.519038","597652.182933","598418.927212","602285.458997","603052.278406","603818.767617","604585.455009","605351.893516","606119.180085","606868.776382","607635.738938","606878.324578","Mapping"
"Blocked","Male","ball","2","M_knife.wav","None","730.245455692","217","601535.823435","608401.859924","594602.732225","595352.346764","596118.89781","596885.519038","597652.182933","598418.927212","602285.458997","603052.278406","603818.767617","604585.455009","605351.893516","606119.180085","606868.776382","607635.738938","607645.016916","Mapping"
"Blocked","Male","ball","2","M_tile.wav","None","727.452075836","217","601535.823435","608401.859924","609168.343571","595352.346764","596118.89781","596885.519038","597652.182933","598418.927212","602285.458997","603052.278406","603818.767617","604585.455009","605351.893516","606119.180085","606868.776382","607635.738938","608411.387096","Mapping"
"Blocked","Male","ball","2","M_ball.wav","None","725.385562168","217","601535.823435","608401.859924","609168.343571","609935.565213","596118.89781","596885.519038","597652.182933","598418.927212","602285.458997","603052.278406","603818.767617","604585.455009","605351.893516","606119.180085","606868.776382","607635.738938","609177.270328","Mapping"
"Blocked","Male","ball","2","M_cave.wav","space","348.825280962","217","601535.823435","608401.859924","609168.343571","609935.565213","610685.199539","596885.519038","597652.182933","598418.927212","602285.458997","603052.278406","603818.767617","604585.455009","605351.893516","606119.180085","606868.776382","607635.738938","609945.384863","Mapping"
"Blocked","Male","ball","2","M_jaw.wav","None","734.971786413","217","601535.823435","608401.859924","609168.343571","609935.565213","610685.199539","611451.866216","597652.182933","598418.927212","602285.458997","603052.278406","603818.767617","604585.455009","605351.893516","606119.180085","606868.776382","607635.738938","610694.262642","Mapping"
"Blocked","Male","ball","2","M_ball.wav","None","734.646227007","217","601535.823435","608401.859924","609168.343571","609935.565213","610685.199539","611451.866216","612218.652852","598418.927212","602285.458997","603052.278406","603818.767617","604585.455009","605351.893516","606119.180085","606868.776382","607635.738938","611460.92128","Mapping"
"Blocked","Male","ball","2","M_cave.wav","space","537.793795724","217","601535.823435","608401.859924","609168.343571","609935.565213","610685.199539","611451.866216","612218.652852","612985.19184","602285.458997","603052.278406","603818.767617","604585.455009","605351.893516","606119.180085","606868.776382","607635.738938","612228.402938","Mapping"
"Blocked","Male","done","19","M_cad.wav","None","728.058364475","217","616119.003856","608401.859924","609168.343571","609935.565213","610685.199539","611451.866216","612218.652852","612985.19184","602285.458997","603052.278406","603818.767617","604585.455009","605351.893516","606119.180085","606868.776382","607635.738938","612994.410458","Mapping"
"Blocked","Male","done","19","M_greet.wav","None","719.388529629","217","616119.003856","608401.859924","609168.343571","609935.565213","610685.199539","611451.866216","612218.652852","612985.19184","616868.12279","603052.278406","603818.767617","604585.455009","605351.893516","606119.180085","606868.776382","607635.738938","616128.710349","Mapping"
"Blocked","Male","done","19","M_greet.wav","None","734.831421752","217","616119.003856","608401.859924","609168.343571","609935.565213","610685.199539","611451.866216","612218.652852","612985.19184","616868.12279","617635.253536","603818.767617","604585.455009","605351.893516","606119.180085","606868.776382","607635.738938","616876.831272","Mapping"
"Blocked","Male","done","19","M_cad.wav","None","730.404989066","217","616119.003856","608401.859924","609168.343571","609935.565213","610685.199539","611451.866216","612218.652852","612985.19184","616868.12279","617635.253536","618401.893006","604585.455009","605351.893516","606119.180085","606868.776382","607635.738938","617644.649928","Mapping"
"Blocked","Male","done","19","M_ball.wav","None","727.337990917","217","616119.003856","608401.859924","609168.343571","609935.565213","610685.199539","611451.866216","612218.652852","612985.19184","616868.12279","617635.253536","618401.893006","619168.160849","605351.893516","606119.180085","606868.776382","607635.738938","618411.459443","Mapping"
"Blocked","Male","done","19","M_romp.wav","None","724.854093452","217","616119.003856","608401.859924","609168.343571","609935.565213","610685.199539","611451.866216","612218.652852","612985.19184","616868.12279","617635.253536","618401.893006","619168.160849","619935.830175","606119.180085","606868.776382","607635.738938","619177.560333","Mapping"
"Blocked","Male","done","19","M_done.wav","None","720.039030042","217","616119.003856","608401.859924","609168.343571","609935.565213","610685.199539","611451.866216","612218.652852","612985.19184","616868.12279","617635.253536","618401.893006","619168.160849","619935.830175","620685.017127","606868.776382","607635.738938","619945.952815","Mapping"
"Blocked","Male","done","19","M_greet.wav","space","480.02045491","217","616119.003856","608401.859924","609168.343571","609935.565213","610685.199539","611451.866216","612218.652852","612985.19184","616868.12279","617635.253536","618401.893006","619168.160849","619935.830175","620685.017127","621451.865288","607635.738938","620694.007574","Mapping"
"Blocked","Male","done","19","M_done.wav","None","731.847591203","217","616119.003856","608401.859924","609168.343571","609935.565213","610685.199539","611451.866216","612218.652852","612985.19184","616868.12279","617635.253536","618401.893006","619168.160849","619935.830175","620685.017127","621451.865288","622218.471058","621460.86903","Mapping"
"Blocked","Male","done","19","M_greet.wav","space","538.021656364","217","616119.003856","622984.843711","609168.343571","609935.565213","610685.199539","611451.866216","612218.652852","612985.19184","616868.12279","617635.253536","618401.893006","619168.160849","619935.830175","620685.017127","621451.865288","622218.471058","622227.962675","Mapping"
"Blocked","Male","done","19","M_bluff.wav","None","725.95289498","217","616119.003856","622984.843711","623752.098436","609935.565213","610685.199539","611451.866216","612218.652852","612985.19184","616868.12279","617635.253536","618401.893006","619168.160849","619935.830175","620685.017127","621451.865288","622218.471058","622993.516638","Mapping"
"Blocked","Male","done","19","M_jolt.wav","None","720.890802215","217","616119.003856","622984.843711","623752.098436","624501.879","610685.199539","611451.866216","612218.652852","612985.19184","616868.12279","617635.253536","618401.893006","619168.160849","619935.830175","620685.017127","621451.865288","622218.471058","623762.531176","Mapping"
"Blocked","Male","done","19","M_done.wav","None","736.122219882","217","616119.003856","622984.843711","623752.098436","624501.879","625268.408404","611451.866216","612218.652852","612985.19184","616868.12279","617635.253536","618401.893006","619168.160849","619935.830175","620685.017127","621451.865288","622218.471058","624510.952924","Mapping"
"Blocked","Male","done","19","M_cad.wav","space","439.942023833","217","616119.003856","622984.843711","623752.098436","624501.879","625268.408404","626034.974291","612218.652852","612985.19184","616868.12279","617635.253536","618401.893006","619168.160849","619935.830175","620685.017127","621451.865288","622218.471058","625277.987208","Mapping"
"Blocked","Male","done","19","M_done.wav","None","729.660500016","217","616119.003856","622984.843711","623752.098436","624501.879","625268.408404","626034.974291","626801.009636","612985.19184","616868.12279","617635.253536","618401.893006","619168.160849","619935.830175","620685.017127","621451.865288","622218.471058","626044.051925","Mapping"
"Blocked","Male","done","19","M_cave.wav","space","476.12239921","217","616119.003856","622984.843711","623752.098436","624501.879","625268.408404","626034.974291","626801.009636","627568.392358","616868.12279","617635.253536","618401.893006","619168.160849","619935.830175","620685.017127","621451.865288","622218.471058","626809.776551","Mapping"
"Blocked","Male","cave","8","M_jolt.wav","None","724.60459065","217","630685.197684","622984.843711","623752.098436","624501.879","625268.408404","626034.974291","626801.009636","627568.392358","616868.12279","617635.253536","618401.893006","619168.160849","619935.830175","620685.017127","621451.865288","622218.471058","627577.727843","Mapping"
"Blocked","Male","cave","8","M_depth.wav","None","720.16239012","217","630685.197684","622984.843711","623752.098436","624501.879","625268.408404","626034.974291","626801.009636","627568.392358","631434.51758","617635.253536","618401.893006","619168.160849","619935.830175","620685.017127","621451.865288","622218.471058","630694.852544","Mapping"
"Blocked","Male","cave","8","M_reek.wav","None","734.949216741","217","630685.197684","622984.843711","623752.098436","624501.879","625268.408404","626034.974291","626801.009636","627568.392358","631434.51758","632201.704596","618401.893006","619168.160849","619935.830175","620685.017127","621451.865288","622218.471058","631443.73156","Mapping"
"Blocked","Male","cave","8","M_jolt.wav","None","731.227698969","217","630685.197684","622984.843711","623752.098436","624501.879","625268.408404","626034.974291","626801.009636","627568.392358","631434.51758","632201.704596","632968.330771","619168.160849","619935.830175","620685.017127","621451.865288","622218.471058","632210.909609","Mapping"
"Blocked","Male","cave","8","M_ball.wav","None","720.110449038","217","630685.197684","622984.843711","623752.098436","624501.879","625268.408404","626034.974291","626801.009636","627568.392358","631434.51758","632201.704596","632968.330771","633734.815036","619935.830175","620685.017127","621451.865288","622218.471058","632985.739077","Mapping"
"Blocked","Male","cave","8","M_priest.wav","None","725.027539593","217","630685.197684","622984.843711","623752.098436","624501.879","625268.408404","626034.974291","626801.009636","627568.392358","631434.51758","632201.704596","632968.330771","633734.815036","634502.067596","620685.017127","621451.865288","622218.471058","633744.897174","Mapping"
"Blocked","Male","cave","8","M_cave.wav","None","721.801935608","217","630685.197684","622984.843711","623752.098436","624501.879","625268.408404","626034.974291","626801.009636","627568.392358","631434.51758","632201.704596","632968.330771","633734.815036","634502.067596","635268.636574","621451.865288","622218.471058","634512.125927","Mapping"
"Blocked","Male","cave","8","M_cad.wav","space","359.166815324","217","630685.197684","622984.843711","623752.098436","624501.879","625268.408404","626034.974291","626801.009636","627568.392358","631434.51758","632201.704596","632968.330771","633734.815036","634502.067596","635268.636574","636018.251731","622218.471058","635278.58855","Mapping"
"Blocked","Male","cave","8","M_cave.wav","None","731.769061211","217","630685.197684","622984.843711","623752.098436","624501.879","625268.408404","626034.974291","626801.009636","627568.392358","631434.51758","632201.704596","632968.330771","633734.815036","634502.067596","635268.636574","636018.251731","636785.080414","636028.663757","Mapping"
"Blocked","Male","cave","8","M_done.wav","space","586.24711039","217","630685.197684","637551.598688","623752.098436","624501.879","625268.408404","626034.974291","626801.009636","627568.392358","631434.51758","632201.704596","632968.330771","633734.815036","634502.067596","635268.636574","636018.251731","636785.080414","636795.466779","Mapping"
"Blocked","Male","cave","8","M_cling.wav","None","725.717305002","217","630685.197684","637551.598688","638318.572993","624501.879","625268.408404","626034.974291","626801.009636","627568.392358","631434.51758","632201.704596","632968.330771","633734.815036","634502.067596","635268.636574","636018.251731","636785.080414","637561.323113","Mapping"
"Blocked","Male","cave","8","M_cave.wav","None","721.931788372","217","630685.197684","637551.598688","638318.572993","639085.069315","625268.408404","626034.974291","626801.009636","627568.392358","631434.51758","632201.704596","632968.330771","633734.815036","634502.067596","635268.636574","636018.251731","636785.080414","638328.761486","Mapping"
"Blocked","Male","cave","8","M_tile.wav","space","430.111861962","217","630685.197684","637551.598688","638318.572993","639085.069315","639834.73734","626034.974291","626801.009636","627568.392358","631434.51758","632201.704596","632968.330771","633734.815036","634502.067596","635268.636574","636018.251731","636785.080414","639095.572547","Mapping"
"Blocked","Male","cave","8","M_cave.wav","None","733.293903439","217","630685.197684","637551.598688","638318.572993","639085.069315","639834.73734","640601.441118","626801.009636","627568.392358","631434.51758","632201.704596","632968.330771","633734.815036","634502.067596","635268.636574","636018.251731","636785.080414","639844.281517","Mapping"
"Blocked","Male","cave","8","M_park.wav","space","570.274604572","217","630685.197684","637551.598688","638318.572993","639085.069315","639834.73734","640601.441118","641368.105322","627568.392358","631434.51758","632201.704596","632968.330771","633734.815036","634502.067596","635268.636574","636018.251731","636785.080414","640611.365887","Mapping"
"Blocked","Male","cave","8","M_done.wav","None","726.337506465","217","630685.197684","637551.598688","638318.572993","639085.069315","639834.73734","640601.441118","641368.105322","642134.986874","631434.51758","632201.704596","632968.330771","633734.815036","634502.067596","635268.636574","636018.251731","636785.080414","641377.977531","Mapping"
"Blocked","Male","tile","18","M_priest.wav","None","723.249793693","217","645251.751698","637551.598688","638318.572993","639085.069315","639834.73734","640601.441118","641368.105322","642134.986874","631434.51758","632201.704596","632968.330771","633734.815036","634502.067596","635268.636574","636018.251731","636785.080414","642144.608344","Mapping"
"Blocked","Male","tile","18","M_gnash.wav","None","719.871767331","217","645251.751698","637551.598688","638318.572993","639085.069315","639834.73734","640601.441118","641368.105322","642134.986874","646017.721499","632201.704596","632968.330771","633734.815036","634502.067596","635268.636574","636018.251731","636785.080414","645261.831054","Mapping"
"Blocked","Male","tile","18","M_tile.wav","None","721.68073972","217","645251.751698","637551.598688","638318.572993","639085.069315","639834.73734","640601.441118","641368.105322","642134.986874","646017.721499","646767.844627","632968.330771","633734.815036","634502.067596","635268.636574","636018.251731","636785.080414","646026.941353","Mapping"
"Blocked","Male","tile","18","M_priest.wav","None","734.686728712","217","645251.751698","637551.598688","638318.572993","639085.069315","639834.73734","640601.441118","641368.105322","642134.986874","646017.721499","646767.844627","647534.682586","633734.815036","634502.067596","635268.636574","636018.251731","636785.080414","646777.592858","Mapping"
"Blocked","Male","tile","18","M_lash.wav","space","12.1004206885","217","645251.751698","637551.598688","638318.572993","639085.069315","639834.73734","640601.441118","641368.105322","642134.986874","646017.721499","646767.844627","647534.682586","648300.930024","634502.067596","635268.636574","636018.251731","636785.080414","647545.437485","Mapping"
"Blocked","Male","tile","18","M_bluff.wav","None","728.55922507","217","645251.751698","637551.598688","638318.572993","639085.069315","639834.73734","640601.441118","641368.105322","642134.986874","646017.721499","646767.844627","647534.682586","648300.930024","649067.999863","635268.636574","636018.251731","636785.080414","648310.711336","Mapping"
"Blocked","Male","tile","18","M_tile.wav","None","725.871582457","217","645251.751698","637551.598688","638318.572993","639085.069315","639834.73734","640601.441118","641368.105322","642134.986874","646017.721499","646767.844627","647534.682586","648300.930024","649067.999863","649834.517827","636018.251731","636785.080414","649077.561971","Mapping"
"Blocked","Male","tile","18","M_priest.wav","space","545.869708847","217","645251.751698","637551.598688","638318.572993","639085.069315","639834.73734","640601.441118","641368.105322","642134.986874","646017.721499","646767.844627","647534.682586","648300.930024","649067.999863","649834.517827","650601.774716","636785.080414","649843.626997","Mapping"
"Blocked","Male","tile","18","M_cling.wav","None","718.664446002","217","645251.751698","637551.598688","638318.572993","639085.069315","639834.73734","640601.441118","641368.105322","642134.986874","646017.721499","646767.844627","647534.682586","648300.930024","649067.999863","649834.517827","650601.774716","651351.226938","650611.620646","Mapping"
"Blocked","Male","tile","18","M_tile.wav","None","731.107739761","217","645251.751698","652117.465101","638318.572993","639085.069315","639834.73734","640601.441118","641368.105322","642134.986874","646017.721499","646767.844627","647534.682586","648300.930024","649067.999863","649834.517827","650601.774716","651351.226938","651363.028389","Mapping"
"Blocked","Male","tile","18","M_depth.wav","space","462.521560956","217","645251.751698","652117.465101","652884.55751","639085.069315","639834.73734","640601.441118","641368.105322","642134.986874","646017.721499","646767.844627","647534.682586","648300.930024","649067.999863","649834.517827","650601.774716","651351.226938","652126.908488","Mapping"
"Blocked","Male","tile","18","M_cad.wav","None","726.654408965","217","645251.751698","652117.465101","652884.55751","653650.832773","639834.73734","640601.441118","641368.105322","642134.986874","646017.721499","646767.844627","647534.682586","648300.930024","649067.999863","649834.517827","650601.774716","651351.226938","652894.486607","Mapping"
"Blocked","Male","tile","18","M_tile.wav","None","725.172232662","217","645251.751698","652117.465101","652884.55751","653650.832773","654418.268364","640601.441118","641368.105322","642134.986874","646017.721499","646767.844627","647534.682586","648300.930024","649067.999863","649834.517827","650601.774716","651351.226938","653660.253899","Mapping"
"Blocked","Male","tile","18","M_greet.wav","space","464.926928456","217","645251.751698","652117.465101","652884.55751","653650.832773","654418.268364","655167.725533","641368.105322","642134.986874","646017.721499","646767.844627","647534.682586","648300.930024","649067.999863","649834.517827","650601.774716","651351.226938","654428.466751","Mapping"
"Blocked","Male","tile","18","M_greet.wav","None","734.939941554","217","645251.751698","652117.465101","652884.55751","653650.832773","654418.268364","655167.725533","655934.50815","642134.986874","646017.721499","646767.844627","647534.682586","648300.930024","649067.999863","649834.517827","650601.774716","651351.226938","655177.5053","Mapping"
"Blocked","Male","tile","18","M_park.wav","None","731.230790698","217","645251.751698","652117.465101","652884.55751","653650.832773","654418.268364","655167.725533","655934.50815","656701.228933","646017.721499","646767.844627","647534.682586","648300.930024","649067.999863","649834.517827","650601.774716","651351.226938","655944.935635","Mapping"
"Blocked","Male","cave","9","M_greet.wav","None","729.035970144","217","659834.870903","652117.465101","652884.55751","653650.832773","654418.268364","655167.725533","655934.50815","656701.228933","646017.721499","646767.844627","647534.682586","648300.930024","649067.999863","649834.517827","650601.774716","651351.226938","656711.343843","Mapping"
"Blocked","Male","cave","9","M_cave.wav","None","719.890936074","217","659834.870903","652117.465101","652884.55751","653650.832773","654418.268364","655167.725533","655934.50815","656701.228933","660584.246141","646767.844627","647534.682586","648300.930024","649067.999863","649834.517827","650601.774716","651351.226938","659844.595637","Mapping"
"Blocked","Male","cave","9","M_lash.wav","space","507.838931895","217","659834.870903","652117.465101","652884.55751","653650.832773","654418.268364","655167.725533","655934.50815","656701.228933","660584.246141","661351.163249","647534.682586","648300.930024","649067.999863","649834.517827","650601.774716","651351.226938","660593.470324","Mapping"
"Blocked","Male","cave","9","M_priest.wav","None","730.339753529","217","659834.870903","652117.465101","652884.55751","653650.832773","654418.268364","655167.725533","655934.50815","656701.228933","660584.246141","661351.163249","662117.801173","648300.930024","649067.999863","649834.517827","650601.774716","651351.226938","661360.954455","Mapping"
"Blocked","Male","cave","9","M_cave.wav","None","727.712708846","217","659834.870903","652117.465101","652884.55751","653650.832773","654418.268364","655167.725533","655934.50815","656701.228933","660584.246141","661351.163249","662117.801173","662884.767748","649067.999863","649834.517827","650601.774716","651351.226938","662127.456033","Mapping"
"Blocked","Male","cave","9","M_greet.wav","space","350.932605477","217","659834.870903","652117.465101","652884.55751","653650.832773","654418.268364","655167.725533","655934.50815","656701.228933","660584.246141","661351.163249","662117.801173","662884.767748","663651.513264","649834.517827","650601.774716","651351.226938","662894.360155","Mapping"
"Blocked","Male","cave","9","M_park.wav","None","720.672216761","217","659834.870903","652117.465101","652884.55751","653650.832773","654418.268364","655167.725533","655934.50815","656701.228933","660584.246141","661351.163249","662117.801173","662884.767748","663651.513264","664400.803788","650601.774716","651351.226938","663661.356102","Mapping"
"Blocked","Male","cave","9","M_cave.wav","None","735.060828272","217","659834.870903","652117.465101","652884.55751","653650.832773","654418.268364","655167.725533","655934.50815","656701.228933","660584.246141","661351.163249","662117.801173","662884.767748","663651.513264","664400.803788","665167.726461","651351.226938","664410.719282","Mapping"
"Blocked","Male","cave","9","M_dime.wav","space","443.501534901","217","659834.870903","652117.465101","652884.55751","653650.832773","654418.268364","655167.725533","655934.50815","656701.228933","660584.246141","661351.163249","662117.801173","662884.767748","663651.513264","664400.803788","665167.726461","665933.952566","665177.761295","Mapping"
"Blocked","Male","cave","9","M_jaw.wav","None","729.338959849","217","659834.870903","666700.917286","652884.55751","653650.832773","654418.268364","655167.725533","655934.50815","656701.228933","660584.246141","661351.163249","662117.801173","662884.767748","663651.513264","664400.803788","665167.726461","665933.952566","665943.323606","Mapping"
"Blocked","Male","cave","9","M_cave.wav","None","725.625789753","217","659834.870903","666700.917286","667468.058853","653650.832773","654418.268364","655167.725533","655934.50815","656701.228933","660584.246141","661351.163249","662117.801173","662884.767748","663651.513264","664400.803788","665167.726461","665933.952566","666710.78022","Mapping"
"Blocked","Male","cave","9","M_park.wav","space","415.201675234","217","659834.870903","666700.917286","667468.058853","668234.265789","654418.268364","655167.725533","655934.50815","656701.228933","660584.246141","661351.163249","662117.801173","662884.767748","663651.513264","664400.803788","665167.726461","665933.952566","667478.034635","Mapping"
"Blocked","Male","cave","9","M_done.wav","None","718.823051837","217","659834.870903","666700.917286","667468.058853","668234.265789","668984.226602","655167.725533","655934.50815","656701.228933","660584.246141","661351.163249","662117.801173","662884.767748","663651.513264","664400.803788","665167.726461","665933.952566","668244.579498","Mapping"
"Blocked","Male","cave","9","M_cad.wav","None","733.198987262","217","659834.870903","666700.917286","667468.058853","668234.265789","668984.226602","669751.004581","655934.50815","656701.228933","660584.246141","661351.163249","662117.801173","662884.767748","663651.513264","664400.803788","665167.726461","665933.952566","668994.111487","Mapping"
"Blocked","Male","cave","9","M_greet.wav","None","730.890390987","217","659834.870903","666700.917286","667468.058853","668234.265789","668984.226602","669751.004581","670517.594583","656701.228933","660584.246141","661351.163249","662117.801173","662884.767748","663651.513264","664400.803788","665167.726461","665933.952566","669760.278231","Mapping"
"Blocked","Male","cave","9","M_reek.wav","None","727.879662358","217","659834.870903","666700.917286","667468.058853","668234.265789","668984.226602","669751.004581","670517.594583","671284.297433","660584.246141","661351.163249","662117.801173","662884.767748","663651.513264","664400.803788","665167.726461","665933.952566","670527.128557","Mapping"
"Blocked","Male","ball","1","M_jaw.wav","None","724.624377763","217","674401.266312","666700.917286","667468.058853","668234.265789","668984.226602","669751.004581","670517.594583","671284.297433","660584.246141","661351.163249","662117.801173","662884.767748","663651.513264","664400.803788","665167.726461","665933.952566","671294.124813","Mapping"
"Blocked","Male","ball","1","M_jolt.wav","None","719.279082288","217","674401.266312","666700.917286","667468.058853","668234.265789","668984.226602","669751.004581","670517.594583","671284.297433","675150.550344","661351.163249","662117.801173","662884.767748","663651.513264","664400.803788","665167.726461","665933.952566","674412.011317","Mapping"
"Blocked","Male","ball","1","M_reek.wav","None","734.95076262","217","674401.266312","666700.917286","667468.058853","668234.265789","668984.226602","669751.004581","670517.594583","671284.297433","675150.550344","675917.508262","662117.801173","662884.767748","663651.513264","664400.803788","665167.726461","665933.952566","675160.201494","Mapping"
"Blocked","Male","ball","1","M_ball.wav","None","731.604271918","217","674401.266312","666700.917286","667468.058853","668234.265789","668984.226602","669751.004581","670517.594583","671284.297433","675150.550344","675917.508262","676684.165664","662884.767748","663651.513264","664400.803788","665167.726461","665933.952566","675927.254947","Mapping"
"Blocked","Male","ball","1","M_tile.wav","space","311.046171002","217","674401.266312","666700.917286","667468.058853","668234.265789","668984.226602","669751.004581","670517.594583","671284.297433","675150.550344","675917.508262","676684.165664","677450.723512","663651.513264","664400.803788","665167.726461","665933.952566","676693.971092","Mapping"
"Blocked","Male","ball","1","M_bluff.wav","None","725.882094324","217","674401.266312","666700.917286","667468.058853","668234.265789","668984.226602","669751.004581","670517.594583","671284.297433","675150.550344","675917.508262","676684.165664","677450.723512","678217.852712","664400.803788","665167.726461","665933.952566","677459.82588","Mapping"
"Blocked","Male","ball","1","M_cling.wav","None","721.535119141","217","674401.266312","666700.917286","667468.058853","668234.265789","668984.226602","669751.004581","670517.594583","671284.297433","675150.550344","675917.508262","676684.165664","677450.723512","678217.852712","678983.897641","665167.726461","665933.952566","678228.154981","Mapping"
"Blocked","Male","ball","1","M_tile.wav","None","720.404781925","217","674401.266312","666700.917286","667468.058853","668234.265789","668984.226602","669751.004581","670517.594583","671284.297433","675150.550344","675917.508262","676684.165664","677450.723512","678217.852712","678983.897641","679733.94966","665933.952566","678993.317221","Mapping"
"Blocked","Male","ball","1","M_ball.wav","None","733.921834209","217","674401.266312","666700.917286","667468.058853","668234.265789","668984.226602","669751.004581","670517.594583","671284.297433","675150.550344","675917.508262","676684.165664","677450.723512","678217.852712","678983.897641","679733.94966","680500.870786","679743.871337","Mapping"
"Blocked","Male","ball","1","M_lash.wav","space","293.979501177","217","674401.266312","681267.395244","667468.058853","668234.265789","668984.226602","669751.004581","670517.594583","671284.297433","675150.550344","675917.508262","676684.165664","677450.723512","678217.852712","678983.897641","679733.94966","680500.870786","680510.985078","Mapping"
"Blocked","Male","ball","1","M_ball.wav","None","727.455476735","217","674401.266312","681267.395244","682034.03224","668234.265789","668984.226602","669751.004581","670517.594583","671284.297433","675150.550344","675917.508262","676684.165664","677450.723512","678217.852712","678983.897641","679733.94966","680500.870786","681277.624548","Mapping"
"Blocked","Male","ball","1","M_park.wav","space","465.356370027","217","674401.266312","681267.395244","682034.03224","682801.113827","668984.226602","669751.004581","670517.594583","671284.297433","675150.550344","675917.508262","676684.165664","677450.723512","678217.852712","678983.897641","679733.94966","680500.870786","682043.521384","Mapping"
"Blocked","Male","ball","1","M_dime.wav","None","720.784755773","217","674401.266312","681267.395244","682034.03224","682801.113827","683567.81204","669751.004581","670517.594583","671284.297433","675150.550344","675917.508262","676684.165664","677450.723512","678217.852712","678983.897641","679733.94966","680500.870786","682811.630663","Mapping"
"Blocked","Male","ball","1","M_ball.wav","None","718.544177595","217","674401.266312","681267.395244","682034.03224","682801.113827","683567.81204","684317.247258","670517.594583","671284.297433","675150.550344","675917.508262","676684.165664","677450.723512","678217.852712","678983.897641","679733.94966","680500.870786","683577.879338","Mapping"
"Blocked","Male","ball","1","M_knife.wav","space","404.81005481","217","674401.266312","681267.395244","682034.03224","682801.113827","683567.81204","684317.247258","685083.993083","671284.297433","675150.550344","675917.508262","676684.165664","677450.723512","678217.852712","678983.897641","679733.94966","680500.870786","684328.095836","Mapping"
"Blocked","Male","ball","1","M_priest.wav","None","730.323058175","217","674401.266312","681267.395244","682034.03224","682801.113827","683567.81204","684317.247258","685083.993083","685850.204966","675150.550344","675917.508262","676684.165664","677450.723512","678217.852712","678983.897641","679733.94966","680500.870786","685093.911978","Mapping"
"Blocked","Male","ball","4","M_gnash.wav","None","729.035351804","217","688984.324919","681267.395244","682034.03224","682801.113827","683567.81204","684317.247258","685083.993083","685850.204966","675150.550344","675917.508262","676684.165664","677450.723512","678217.852712","678983.897641","679733.94966","680500.870786","685859.225404","Mapping"
"Blocked","Male","ball","4","M_ball.wav","None","719.84641513","217","688984.324919","681267.395244","682034.03224","682801.113827","683567.81204","684317.247258","685083.993083","685850.204966","689733.41108","675917.508262","676684.165664","677450.723512","678217.852712","678983.897641","679733.94966","680500.870786","688994.126637","Mapping"
"Blocked","Male","ball","4","M_reek.wav","space","462.291226955","217","688984.324919","681267.395244","682034.03224","682801.113827","683567.81204","684317.247258","685083.993083","685850.204966","689733.41108","690500.535024","676684.165664","677450.723512","678217.852712","678983.897641","679733.94966","680500.870786","689742.450377","Mapping"
"Blocked","Male","ball","4","M_ball.wav","None","731.132782792","217","688984.324919","681267.395244","682034.03224","682801.113827","683567.81204","684317.247258","685083.993083","685850.204966","689733.41108","690500.535024","691266.880161","677450.723512","678217.852712","678983.897641","679733.94966","680500.870786","690510.105171","Mapping"
"Blocked","Male","ball","4","M_done.wav","None","728.053108527","217","688984.324919","681267.395244","682034.03224","682801.113827","683567.81204","684317.247258","685083.993083","685850.204966","689733.41108","690500.535024","691266.880161","692033.895895","678217.852712","678983.897641","679733.94966","680500.870786","691277.196962","Mapping"
"Blocked","Male","ball","4","M_lash.wav","None","725.564264285","217","688984.324919","681267.395244","682034.03224","682801.113827","683567.81204","684317.247258","685083.993083","685850.204966","689733.41108","690500.535024","691266.880161","692033.895895","692800.944091","678983.897641","679733.94966","680500.870786","692043.686791","Mapping"
"Blocked","Male","ball","4","M_jolt.wav","None","722.246526682","217","688984.324919","681267.395244","682034.03224","682801.113827","683567.81204","684317.247258","685083.993083","685850.204966","689733.41108","690500.535024","691266.880161","692033.895895","692800.944091","693567.418772","679733.94966","680500.870786","692811.082808","Mapping"
"Blocked","Male","ball","4","M_romp.wav","None","719.864965504","217","688984.324919","681267.395244","682034.03224","682801.113827","683567.81204","684317.247258","685083.993083","685850.204966","689733.41108","690500.535024","691266.880161","692033.895895","692800.944091","693567.418772","694317.065464","680500.870786","693577.486688","Mapping"
"Blocked","Male","ball","4","M_cave.wav","None","734.098372108","217","688984.324919","681267.395244","682034.03224","682801.113827","683567.81204","684317.247258","685083.993083","685850.204966","689733.41108","690500.535024","691266.880161","692033.895895","692800.944091","693567.418772","694317.065464","695083.819637","694327.229842","Mapping"
"Blocked","Male","ball","4","M_cave.wav","None","731.930758833","217","688984.324919","695850.456015","682034.03224","682801.113827","683567.81204","684317.247258","685083.993083","685850.204966","689733.41108","690500.535024","691266.880161","692033.895895","692800.944091","693567.418772","694317.065464","695083.819637","695093.479444","Mapping"
"Blocked","Male","ball","4","M_park.wav","None","729.341742437","217","688984.324919","695850.456015","696617.139696","682801.113827","683567.81204","684317.247258","685083.993083","685850.204966","689733.41108","690500.535024","691266.880161","692033.895895","692800.944091","693567.418772","694317.065464","695083.819637","695860.109021","Mapping"
"Blocked","Male","ball","4","M_ball.wav","None","727.167327306","217","688984.324919","695850.456015","696617.139696","697383.777311","683567.81204","684317.247258","685083.993083","685850.204966","689733.41108","690500.535024","691266.880161","692033.895895","692800.944091","693567.418772","694317.065464","695083.819637","696626.664086","Mapping"
"Blocked","Male","ball","4","M_lash.wav","space","370.988670969","217","688984.324919","695850.456015","696617.139696","697383.777311","698150.307024","684317.247258","685083.993083","685850.204966","689733.41108","690500.535024","691266.880161","692033.895895","692800.944091","693567.418772","694317.065464","695083.819637","697393.678583","Mapping"
"Blocked","Male","ball","4","M_cave.wav","None","721.68073972","217","688984.324919","695850.456015","696617.139696","697383.777311","698150.307024","698900.194254","685083.993083","685850.204966","689733.41108","690500.535024","691266.880161","692033.895895","692800.944091","693567.418772","694317.065464","695083.819637","698159.324679","Mapping"
"Blocked","Male","ball","4","M_ball.wav","None","735.233037762","217","688984.324919","695850.456015","696617.139696","697383.777311","698150.307024","698900.194254","699667.037159","685850.204966","689733.41108","690500.535024","691266.880161","692033.895895","692800.944091","693567.418772","694317.065464","695083.819637","698909.887761","Mapping"
"Blocked","Male","ball","4","M_bluff.wav","space","455.985021166","217","688984.324919","695850.456015","696617.139696","697383.777311","698150.307024","698900.194254","699667.037159","700433.700126","689733.41108","690500.535024","691266.880161","692033.895895","692800.944091","693567.418772","694317.065464","695083.819637","699676.606379","Mapping"
"Blocked","Male","tile","17","M_jaw.wav","None","728.628479847","217","703567.385072","695850.456015","696617.139696","697383.777311","698150.307024","698900.194254","699667.037159","700433.700126","689733.41108","690500.535024","691266.880161","692033.895895","692800.944091","693567.418772","694317.065464","695083.819637","700443.611601","Mapping"
"Blocked","Male","tile","17","M_tile.wav","None","719.134698418","217","703567.385072","695850.456015","696617.139696","697383.777311","698150.307024","698900.194254","699667.037159","700433.700126","704316.495039","690500.535024","691266.880161","692033.895895","692800.944091","693567.418772","694317.065464","695083.819637","703577.557179","Mapping"
"Blocked","Male","tile","17","M_lash.wav","space","462.178069545","217","703567.385072","695850.456015","696617.139696","697383.777311","698150.307024","698900.194254","699667.037159","700433.700126","704316.495039","705083.464706","691266.880161","692033.895895","692800.944091","693567.418772","694317.065464","695083.819637","704326.348389","Mapping"
"Blocked","Male","tile","17","M_gnash.wav","None","731.216877903","217","703567.385072","695850.456015","696617.139696","697383.777311","698150.307024","698900.194254","699667.037159","700433.700126","704316.495039","705083.464706","705850.24856","692033.895895","692800.944091","693567.418772","694317.065464","695083.819637","705092.945812","Mapping"
"Blocked","Male","tile","17","M_lash.wav","None","728.383305512","217","703567.385072","695850.456015","696617.139696","697383.777311","698150.307024","698900.194254","699667.037159","700433.700126","704316.495039","705083.464706","705850.24856","706616.967487","692800.944091","693567.418772","694317.065464","695083.819637","705859.93712","Mapping"
"Blocked","Male","tile","17","M_jolt.wav","None","725.743584742","217","703567.385072","695850.456015","696617.139696","697383.777311","698150.307024","698900.194254","699667.037159","700433.700126","704316.495039","705083.464706","705850.24856","706616.967487","707383.538939","693567.418772","694317.065464","695083.819637","706626.716027","Mapping"
"Blocked","Male","tile","17","M_gnash.wav","None","723.754982726","217","703567.385072","695850.456015","696617.139696","697383.777311","698150.307024","698900.194254","699667.037159","700433.700126","704316.495039","705083.464706","705850.24856","706616.967487","707383.538939","708150.717606","694317.065464","695083.819637","707392.882153","Mapping"
"Blocked","Male","tile","17","M_tile.wav","None","720.231644926","217","703567.385072","695850.456015","696617.139696","697383.777311","698150.307024","698900.194254","699667.037159","700433.700126","704316.495039","705083.464706","705850.24856","706616.967487","707383.538939","708150.717606","708900.067183","695083.819637","708160.642685","Mapping"
"Blocked","Male","tile","17","M_cad.wav","space","438.343289221","217","703567.385072","695850.456015","696617.139696","697383.777311","698150.307024","698900.194254","699667.037159","700433.700126","704316.495039","705083.464706","705850.24856","706616.967487","707383.538939","708150.717606","708900.067183","709666.97347","708910.105728","Mapping"
"Blocked","Male","tile","17","M_cad.wav","None","731.622822321","217","703567.385072","710433.125373","696617.139696","697383.777311","698150.307024","698900.194254","699667.037159","700433.700126","704316.495039","705083.464706","705850.24856","706616.967487","707383.538939","708150.717606","708900.067183","709666.97347","709676.868558","Mapping"
"Blocked","Male","tile","17","M_park.wav","None","730.043565592","217","703567.385072","710433.125373","711200.156256","697383.777311","698150.307024","698900.194254","699667.037159","700433.700126","704316.495039","705083.464706","705850.24856","706616.967487","707383.538939","708150.717606","708900.067183","709666.97347","710442.758592","Mapping"
"Blocked","Male","tile","17","M_tile.wav","None","727.305527747","217","703567.385072","710433.125373","711200.156256","711966.88013","698150.307024","698900.194254","699667.037159","700433.700126","704316.495039","705083.464706","705850.24856","706616.967487","707383.538939","708150.717606","708900.067183","709666.97347","711209.680955","Mapping"
"Blocked","Male","tile","17","M_cad.wav","space","579.230733798","217","703567.385072","710433.125373","711200.156256","711966.88013","712733.829391","698900.194254","699667.037159","700433.700126","704316.495039","705083.464706","705850.24856","706616.967487","707383.538939","708150.717606","708900.067183","709666.97347","711977.122111","Mapping"
"Blocked","Male","tile","17","M_park.wav","None","720.605744486","217","703567.385072","710433.125373","711200.156256","711966.88013","712733.829391","713483.64953","699667.037159","700433.700126","704316.495039","705083.464706","705850.24856","706616.967487","707383.538939","708150.717606","708900.067183","709666.97347","712743.882158","Mapping"
"Blocked","Male","tile","17","M_tile.wav","None","735.362581327","217","703567.385072","710433.125373","711200.156256","711966.88013","712733.829391","713483.64953","714250.286526","700433.700126","704316.495039","705083.464706","705850.24856","706616.967487","707383.538939","708150.717606","708900.067183","709666.97347","713493.377665","Mapping"
"Blocked","Male","tile","17","M_gnash.wav","space","512.305247918","217","703567.385072","710433.125373","711200.156256","711966.88013","712733.829391","713483.64953","714250.286526","715016.806655","704316.495039","705083.464706","705850.24856","706616.967487","707383.538939","708150.717606","708900.067183","709666.97347","714260.03754","Mapping"
"Blocked","Male","tile","16","M_reek.wav","None","728.491516114","217","718150.326812","710433.125373","711200.156256","711966.88013","712733.829391","713483.64953","714250.286526","715016.806655","704316.495039","705083.464706","705850.24856","706616.967487","707383.538939","708150.717606","708900.067183","709666.97347","715027.385635","Mapping"
"Blocked","Male","tile","16","M_tile.wav","None","720.049232739","217","718150.326812","710433.125373","711200.156256","711966.88013","712733.829391","713483.64953","714250.286526","715016.806655","718899.853854","705083.464706","705850.24856","706616.967487","707383.538939","708150.717606","708900.067183","709666.97347","718160.764499","Mapping"
"Blocked","Male","tile","16","M_bluff.wav","space","542.531565821","217","718150.326812","710433.125373","711200.156256","711966.88013","712733.829391","713483.64953","714250.286526","715016.806655","718899.853854","719666.71531","705850.24856","706616.967487","707383.538939","708150.717606","708900.067183","709666.97347","718909.713696","Mapping"
"Blocked","Male","tile","16","M_bluff.wav","None","731.556968414","217","718150.326812","710433.125373","711200.156256","711966.88013","712733.829391","713483.64953","714250.286526","715016.806655","718899.853854","719666.71531","720433.274085","706616.967487","707383.538939","708150.717606","708900.067183","709666.97347","719676.879379","Mapping"
"Blocked","Male","tile","16","M_reek.wav","None","729.56311045","217","718150.326812","710433.125373","711200.156256","711966.88013","712733.829391","713483.64953","714250.286526","715016.806655","718899.853854","719666.71531","720433.274085","721200.112044","707383.538939","708150.717606","708900.067183","709666.97347","720443.094663","Mapping"
"Blocked","Male","tile","16","M_tile.wav","None","726.736649027","217","718150.326812","710433.125373","711200.156256","711966.88013","712733.829391","713483.64953","714250.286526","715016.806655","718899.853854","719666.71531","720433.274085","721200.112044","721966.195002","708150.717606","708900.067183","709666.97347","721210.248906","Mapping"
"Blocked","Male","tile","16","M_knife.wav","space","316.969620355","217","718150.326812","710433.125373","711200.156256","711966.88013","712733.829391","713483.64953","714250.286526","715016.806655","718899.853854","719666.71531","720433.274085","721200.112044","721966.195002","722733.143954","708900.067183","709666.97347","721975.245739","Mapping"
"Blocked","Male","tile","16","M_tile.wav","None","722.010318335","217","718150.326812","710433.125373","711200.156256","711966.88013","712733.829391","713483.64953","714250.286526","715016.806655","718899.853854","719666.71531","720433.274085","721200.112044","721966.195002","722733.143954","723500.387549","709666.97347","722742.544675","Mapping"
"Blocked","Male","tile","16","M_bluff.wav","space","629.877323168","217","718150.326812","710433.125373","711200.156256","711966.88013","712733.829391","713483.64953","714250.286526","715016.806655","718899.853854","719666.71531","720433.274085","721200.112044","721966.195002","722733.143954","723500.387549","724249.894495","723510.298405","Mapping"
"Blocked","Male","tile","16","M_greet.wav","None","732.296201517","217","718150.326812","725016.585905","711200.156256","711966.88013","712733.829391","713483.64953","714250.286526","715016.806655","718899.853854","719666.71531","720433.274085","721200.112044","721966.195002","722733.143954","723500.387549","724249.894495","724259.844307","Mapping"
"Blocked","Male","tile","16","M_tile.wav","None","730.229069508","217","718150.326812","725016.585905","725783.18611","711966.88013","712733.829391","713483.64953","714250.286526","715016.806655","718899.853854","719666.71531","720433.274085","721200.112044","721966.195002","722733.143954","723500.387549","724249.894495","725026.160999","Mapping"
"Blocked","Male","tile","16","M_dime.wav","space","370.328277","217","718150.326812","725016.585905","725783.18611","726549.484253","712733.829391","713483.64953","714250.286526","715016.806655","718899.853854","719666.71531","720433.274085","721200.112044","721966.195002","722733.143954","723500.387549","724249.894495","725793.805591","Mapping"
"Blocked","Male","tile","16","M_jaw.wav","None","725.511704833","217","718150.326812","725016.585905","725783.18611","726549.484253","727316.988171","713483.64953","714250.286526","715016.806655","718899.853854","719666.71531","720433.274085","721200.112044","721966.195002","722733.143954","723500.387549","724249.894495","726558.734406","Mapping"
"Blocked","Male","tile","16","M_greet.wav","None","721.298292483","217","718150.326812","725016.585905","725783.18611","726549.484253","727316.988171","728083.595796","714250.286526","715016.806655","718899.853854","719666.71531","720433.274085","721200.112044","721966.195002","722733.143954","723500.387549","724249.894495","727327.236026","Mapping"
"Blocked","Male","tile","16","M_knife.wav","None","719.011956651","217","718150.326812","725016.585905","725783.18611","726549.484253","727316.988171","728083.595796","728833.129021","715016.806655","718899.853854","719666.71531","720433.274085","721200.112044","721966.195002","722733.143954","723500.387549","724249.894495","728093.727092","Mapping"
"Blocked","Male","tile","16","M_done.wav","None","734.623966564","217","718150.326812","725016.585905","725783.18611","726549.484253","727316.988171","728083.595796","728833.129021","729599.808993","718899.853854","719666.71531","720433.274085","721200.112044","721966.195002","722733.143954","723500.387549","724249.894495","728842.736888","Mapping"
"Blocked","Male","tile","14","M_ball.wav","None","732.070195925","217","732733.547116","725016.585905","725783.18611","726549.484253","727316.988171","728083.595796","728833.129021","729599.808993","718899.853854","719666.71531","720433.274085","721200.112044","721966.195002","722733.143954","723500.387549","724249.894495","729609.671927","Mapping"
"Blocked","Male","tile","14","M_tile.wav","None","720.200418436","217","732733.547116","725016.585905","725783.18611","726549.484253","727316.988171","728083.595796","728833.129021","729599.808993","733482.997484","719666.71531","720433.274085","721200.112044","721966.195002","722733.143954","723500.387549","724249.894495","732743.099331","Mapping"
"Blocked","Male","tile","14","M_reek.wav","space","399.593375419","217","732733.547116","725016.585905","725783.18611","726549.484253","727316.988171","728083.595796","728833.129021","729599.808993","733482.997484","734249.751038","720433.274085","721200.112044","721966.195002","722733.143954","723500.387549","724249.894495","733492.378108","Mapping"
"Blocked","Male","tile","14","M_romp.wav","None","730.575343507","217","732733.547116","725016.585905","725783.18611","726549.484253","727316.988171","728083.595796","728833.129021","729599.808993","733482.997484","734249.751038","735016.398856","721200.112044","721966.195002","722733.143954","723500.387549","724249.894495","734260.123799","Mapping"
"Blocked","Male","tile","14","M_dime.wav","None","729.064723244","217","732733.547116","725016.585905","725783.18611","726549.484253","727316.988171","728083.595796","728833.129021","729599.808993","733482.997484","734249.751038","735016.398856","735783.094595","721966.195002","722733.143954","723500.387549","724249.894495","735025.96653","Mapping"
"Blocked","Male","tile","14","M_cave.wav","None","726.563202887","217","732733.547116","725016.585905","725783.18611","726549.484253","727316.988171","728083.595796","728833.129021","729599.808993","733482.997484","734249.751038","735016.398856","735783.094595","736549.652752","722733.143954","723500.387549","724249.894495","735792.716374","Mapping"
"Blocked","Male","tile","14","M_depth.wav","None","724.369000702","217","732733.547116","725016.585905","725783.18611","726549.484253","727316.988171","728083.595796","728833.129021","729599.808993","733482.997484","734249.751038","735016.398856","735783.094595","736549.652752","737316.666631","723500.387549","724249.894495","736559.319052","Mapping"
"Blocked","Male","tile","14","M_tile.wav","None","721.037350275","217","732733.547116","725016.585905","725783.18611","726549.484253","727316.988171","728083.595796","728833.129021","729599.808993","733482.997484","734249.751038","735016.398856","735783.094595","736549.652752","737316.666631","738083.393596","724249.894495","737327.002909","Mapping"
"Blocked","Male","tile","14","M_jaw.wav","space","365.996760491","217","732733.547116","725016.585905","725783.18611","726549.484253","727316.988171","728083.595796","728833.129021","729599.808993","733482.997484","734249.751038","735016.398856","735783.094595","736549.652752","737316.666631","738083.393596","738832.823249","738093.92249","Mapping"
"Blocked","Male","tile","14","M_cave.wav","None","733.640795777","217","732733.547116","739599.667391","725783.18611","726549.484253","727316.988171","728083.595796","728833.129021","729599.808993","733482.997484","734249.751038","735016.398856","735783.094595","736549.652752","737316.666631","738083.393596","738832.823249","738842.123797","Mapping"
"Blocked","Male","tile","14","M_tile.wav","None","730.748789647","217","732733.547116","739599.667391","740366.398067","726549.484253","727316.988171","728083.595796","728833.129021","729599.808993","733482.997484","734249.751038","735016.398856","735783.094595","736549.652752","737316.666631","738083.393596","738832.823249","739609.367082","Mapping"
"Blocked","Male","tile","14","M_romp.wav","space","411.387405446","217","732733.547116","739599.667391","740366.398067","741132.936437","727316.988171","728083.595796","728833.129021","729599.808993","733482.997484","734249.751038","735016.398856","735783.094595","736549.652752","737316.666631","738083.393596","738832.823249","740376.451452","Mapping"
"Blocked","Male","tile","14","M_gnash.wav","None","725.243033317","217","732733.547116","739599.667391","740366.398067","741132.936437","741900.059763","728083.595796","728833.129021","729599.808993","733482.997484","734249.751038","735016.398856","735783.094595","736549.652752","737316.666631","738083.393596","738832.823249","741142.506275","Mapping"
"Blocked","Male","tile","14","M_tile.wav","None","721.827287838","217","732733.547116","739599.667391","740366.398067","741132.936437","741900.059763","742666.695214","728833.129021","729599.808993","733482.997484","734249.751038","735016.398856","735783.094595","736549.652752","737316.666631","738083.393596","738832.823249","741910.317821","Mapping"
"Blocked","Male","tile","14","M_jolt.wav","space","391.119556327","217","732733.547116","739599.667391","740366.398067","741132.936437","741900.059763","742666.695214","743416.197522","729599.808993","733482.997484","734249.751038","735016.398856","735783.094595","736549.652752","737316.666631","738083.393596","738832.823249","742676.723865","Mapping"
"Blocked","Male","tile","14","M_cling.wav","None","734.312938323","217","732733.547116","739599.667391","740366.398067","741132.936437","741900.059763","742666.695214","743416.197522","744182.492573","733482.997484","734249.751038","735016.398856","735783.094595","736549.652752","737316.666631","738083.393596","738832.823249","743425.82363","Mapping"
"Blocked","Male","done","23","M_bluff.wav","None","732.932479965","217","747316.624274","739599.667391","740366.398067","741132.936437","741900.059763","742666.695214","743416.197522","744182.492573","733482.997484","734249.751038","735016.398856","735783.094595","736549.652752","737316.666631","738083.393596","738832.823249","744191.789411","Mapping"
"Blocked","Male","done","23","M_dime.wav","None","719.094815053","217","747316.624274","739599.667391","740366.398067","741132.936437","741900.059763","742666.695214","743416.197522","744182.492573","748066.038159","734249.751038","735016.398856","735783.094595","736549.652752","737316.666631","738083.393596","738832.823249","747326.754952","Mapping"
"Blocked","Male","done","23","M_jolt.wav","None","734.596140974","217","747316.624274","739599.667391","740366.398067","741132.936437","741900.059763","742666.695214","743416.197522","744182.492573","748066.038159","748832.655677","735016.398856","735783.094595","736549.652752","737316.666631","738083.393596","738832.823249","748075.683744","Mapping"
"Blocked","Male","done","23","M_done.wav","None","732.809119887","217","747316.624274","739599.667391","740366.398067","741132.936437","741900.059763","742666.695214","743416.197522","744182.492573","748066.038159","748832.655677","749599.516515","735783.094595","736549.652752","737316.666631","738083.393596","738832.823249","748841.917888","Mapping"
"Blocked","Male","done","23","M_jaw.wav","space","546.253392793","217","747316.624274","739599.667391","740366.398067","741132.936437","741900.059763","742666.695214","743416.197522","744182.492573","748066.038159","748832.655677","749599.516515","750365.703664","736549.652752","737316.666631","738083.393596","738832.823249","749609.446231","Mapping"
"Blocked","Male","done","23","M_jolt.wav","None","727.250185737","217","747316.624274","739599.667391","740366.398067","741132.936437","741900.059763","742666.695214","743416.197522","744182.492573","748066.038159","748832.655677","749599.516515","750365.703664","751132.649834","737316.666631","738083.393596","738832.823249","750375.00885","Mapping"
"Blocked","Male","done","23","M_done.wav","None","724.127536407","217","747316.624274","739599.667391","740366.398067","741132.936437","741900.059763","742666.695214","743416.197522","744182.492573","748066.038159","748832.655677","749599.516515","750365.703664","751132.649834","751899.842724","738083.393596","738832.823249","751142.501019","Mapping"
"Blocked","Male","done","23","M_depth.wav","space","461.051442398","217","747316.624274","739599.667391","740366.398067","741132.936437","741900.059763","742666.695214","743416.197522","744182.492573","748066.038159","748832.655677","749599.516515","750365.703664","751132.649834","751899.842724","752649.242387","738832.823249","751910.596386","Mapping"
"Blocked","Male","done","23","M_ball.wav","None","735.098547419","217","747316.624274","739599.667391","740366.398067","741132.936437","741900.059763","742666.695214","743416.197522","744182.492573","748066.038159","748832.655677","749599.516515","750365.703664","751132.649834","751899.842724","752649.242387","753415.714284","752658.891064","Mapping"
"Blocked","Male","done","23","M_done.wav","None","736.53001932","217","747316.624274","754182.751969","740366.398067","741132.936437","741900.059763","742666.695214","743416.197522","744182.492573","748066.038159","748832.655677","749599.516515","750365.703664","751132.649834","751899.842724","752649.242387","753415.714284","753424.757291","Mapping"
"Blocked","Male","done","23","M_jolt.wav","space","443.246466981","217","747316.624274","754182.751969","754949.375671","741132.936437","741900.059763","742666.695214","743416.197522","744182.492573","748066.038159","748832.655677","749599.516515","750365.703664","751132.649834","751899.842724","752649.242387","753415.714284","754192.330464","Mapping"
"Blocked","Male","done","23","M_jaw.wav","None","729.782623443","217","747316.624274","754182.751969","754949.375671","755716.144994","741900.059763","742666.695214","743416.197522","744182.492573","748066.038159","748832.655677","749599.516515","750365.703664","751132.649834","751899.842724","752649.242387","753415.714284","754959.231494","Mapping"
"Blocked","Male","done","23","M_done.wav","None","726.904839248","217","747316.624274","754182.751969","754949.375671","755716.144994","756482.662031","742666.695214","743416.197522","744182.492573","748066.038159","748832.655677","749599.516515","750365.703664","751132.649834","751899.842724","752649.242387","753415.714284","755726.694292","Mapping"
"Blocked","Male","done","23","M_cling.wav","space","431.012792658","217","747316.624274","754182.751969","754949.375671","755716.144994","756482.662031","757249.768043","743416.197522","744182.492573","748066.038159","748832.655677","749599.516515","750365.703664","751132.649834","751899.842724","752649.242387","753415.714284","756492.576288","Mapping"
"Blocked","Male","done","23","M_jaw.wav","None","721.599117998","217","747316.624274","754182.751969","754949.375671","755716.144994","756482.662031","757249.768043","758016.333929","744182.492573","748066.038159","748832.655677","749599.516515","750365.703664","751132.649834","751899.842724","752649.242387","753415.714284","757260.082061","Mapping"
"Blocked","Male","done","23","M_jaw.wav","None","719.481899898","217","747316.624274","754182.751969","754949.375671","755716.144994","756482.662031","757249.768043","758016.333929","758765.905183","748066.038159","748832.655677","749599.516515","750365.703664","751132.649834","751899.842724","752649.242387","753415.714284","758026.588586","Mapping"
"Blocked","Male","cave","12","M_tile.wav","None","734.403216862","217","761899.698958","754182.751969","754949.375671","755716.144994","756482.662031","757249.768043","758016.333929","758765.905183","748066.038159","748832.655677","749599.516515","750365.703664","751132.649834","751899.842724","752649.242387","753415.714284","758776.073272","Mapping"
"Blocked","Male","cave","12","M_cave.wav","None","719.894027803","217","761899.698958","754182.751969","754949.375671","755716.144994","756482.662031","757249.768043","758016.333929","758765.905183","762648.759767","748832.655677","749599.516515","750365.703664","751132.649834","751899.842724","752649.242387","753415.714284","761910.013594","Mapping"
"Blocked","Male","cave","12","M_knife.wav","space","369.406631711","217","761899.698958","754182.751969","754949.375671","755716.144994","756482.662031","757249.768043","758016.333929","758765.905183","762648.759767","763415.993777","749599.516515","750365.703664","751132.649834","751899.842724","752649.242387","753415.714284","762658.034654","Mapping"
"Blocked","Male","cave","12","M_knife.wav","None","731.607054448","217","761899.698958","754182.751969","754949.375671","755716.144994","756482.662031","757249.768043","758016.333929","758765.905183","762648.759767","763415.993777","764182.147536","750365.703664","751132.649834","751899.842724","752649.242387","753415.714284","763425.835687","Mapping"
"Blocked","Male","cave","12","M_romp.wav","None","730.295232584","217","761899.698958","754182.751969","754949.375671","755716.144994","756482.662031","757249.768043","758016.333929","758765.905183","762648.759767","763415.993777","764182.147536","764948.8677","751132.649834","751899.842724","752649.242387","753415.714284","764191.600815","Mapping"
"Blocked","Male","cave","12","M_priest.wav","None","728.476985008","217","761899.698958","754182.751969","754949.375671","755716.144994","756482.662031","757249.768043","758016.333929","758765.905183","762648.759767","763415.993777","764182.147536","764948.8677","765715.997209","751899.842724","752649.242387","753415.714284","764958.011497","Mapping"
"Blocked","Male","cave","12","M_cave.wav","None","724.982091167","217","761899.698958","754182.751969","754949.375671","755716.144994","756482.662031","757249.768043","758016.333929","758765.905183","762648.759767","763415.993777","764182.147536","764948.8677","765715.997209","766482.777352","752649.242387","753415.714284","765726.090786","Mapping"
"Blocked","Male","cave","12","M_park.wav","space","422.437873989","217","761899.698958","754182.751969","754949.375671","755716.144994","756482.662031","757249.768043","758016.333929","758765.905183","762648.759767","763415.993777","764182.147536","764948.8677","765715.997209","766482.777352","767249.789067","753415.714284","766492.972957","Mapping"
"Blocked","Male","cave","12","M_romp.wav","None","719.155413011","217","761899.698958","754182.751969","754949.375671","755716.144994","756482.662031","757249.768043","758016.333929","758765.905183","762648.759767","763415.993777","764182.147536","764948.8677","765715.997209","766482.777352","767249.789067","767999.112364","767260.307139","Mapping"
"Blocked","Male","cave","12","M_ball.wav","None","734.964675416","217","761899.698958","768765.795427","754949.375671","755716.144994","756482.662031","757249.768043","758016.333929","758765.905183","762648.759767","763415.993777","764182.147536","764948.8677","765715.997209","766482.777352","767249.789067","767999.112364","768008.83988","Mapping"
"Blocked","Male","cave","12","M_cave.wav","None","732.247352164","217","761899.698958","768765.795427","769532.464268","755716.144994","756482.662031","757249.768043","758016.333929","758765.905183","762648.759767","763415.993777","764182.147536","764948.8677","765715.997209","766482.777352","767249.789067","767999.112364","768776.044828","Mapping"
"Blocked","Male","cave","12","M_ball.wav","space","716.973886912","217","761899.698958","768765.795427","769532.464268","770299.348603","756482.662031","757249.768043","758016.333929","758765.905183","762648.759767","763415.993777","764182.147536","764948.8677","765715.997209","766482.777352","767249.789067","767999.112364","769542.385945","Mapping"
"Blocked","Male","cave","12","M_jolt.wav","None","726.342762413","217","761899.698958","768765.795427","769532.464268","770299.348603","771065.826066","757249.768043","758016.333929","758765.905183","762648.759767","763415.993777","764182.147536","764948.8677","765715.997209","766482.777352","767249.789067","767999.112364","770309.348192","Mapping"
"Blocked","Male","cave","12","M_cave.wav","None","724.49143327","217","761899.698958","768765.795427","769532.464268","770299.348603","771065.826066","771832.219434","758016.333929","758765.905183","762648.759767","763415.993777","764182.147536","764948.8677","765715.997209","766482.777352","767249.789067","767999.112364","771075.79752","Mapping"
"Blocked","Male","cave","12","M_cad.wav","space","442.031725514","217","761899.698958","768765.795427","769532.464268","770299.348603","771065.826066","771832.219434","772582.727792","758765.905183","762648.759767","763415.993777","764182.147536","764948.8677","765715.997209","766482.777352","767249.789067","767999.112364","771841.261822","Mapping"
"Blocked","Male","cave","12","M_depth.wav","None","735.463990131","217","761899.698958","768765.795427","769532.464268","770299.348603","771065.826066","771832.219434","772582.727792","773348.947404","762648.759767","763415.993777","764182.147536","764948.8677","765715.997209","766482.777352","767249.789067","767999.112364","772592.33133","Mapping"
"Blocked","Male","cave","11","M_cling.wav","None","733.106853673","217","776482.798994","768765.795427","769532.464268","770299.348603","771065.826066","771832.219434","772582.727792","773348.947404","762648.759767","763415.993777","764182.147536","764948.8677","765715.997209","766482.777352","767249.789067","767999.112364","773359.189385","Mapping"
"Blocked","Male","cave","11","M_romp.wav","None","720.045522641","217","776482.798994","768765.795427","769532.464268","770299.348603","771065.826066","771832.219434","772582.727792","773348.947404","777232.61264","763415.993777","764182.147536","764948.8677","765715.997209","766482.777352","767249.789067","767999.112364","776492.830737","Mapping"
"Blocked","Male","cave","11","M_depth.wav","None","734.720119421","217","776482.798994","768765.795427","769532.464268","770299.348603","771065.826066","771832.219434","772582.727792","773348.947404","777232.61264","777998.894087","764182.147536","764948.8677","765715.997209","766482.777352","767249.789067","767999.112364","777242.669117","Mapping"
"Blocked","Male","cave","11","M_cave.wav","None","733.721799159","217","776482.798994","768765.795427","769532.464268","770299.348603","771065.826066","771832.219434","772582.727792","773348.947404","777232.61264","777998.894087","778765.732356","764948.8677","765715.997209","766482.777352","767249.789067","767999.112364","778008.262345","Mapping"
"Blocked","Male","cave","11","M_greet.wav","space","307.483877405","217","776482.798994","768765.795427","769532.464268","770299.348603","771065.826066","771832.219434","772582.727792","773348.947404","777232.61264","777998.894087","778765.732356","779532.224968","765715.997209","766482.777352","767249.789067","767999.112364","778775.708447","Mapping"
"Blocked","Male","cave","11","M_cave.wav","None","727.596150537","217","776482.798994","768765.795427","769532.464268","770299.348603","771065.826066","771832.219434","772582.727792","773348.947404","777232.61264","777998.894087","778765.732356","779532.224968","780298.931219","766482.777352","767249.789067","767999.112364","779541.810883","Mapping"
"Blocked","Male","cave","11","M_priest.wav","space","494.535209087","217","776482.798994","768765.795427","769532.464268","770299.348603","771065.826066","771832.219434","772582.727792","773348.947404","777232.61264","777998.894087","778765.732356","779532.224968","780298.931219","781066.03012","767249.789067","767999.112364","780308.623181","Mapping"
"Blocked","Male","cave","11","M_cad.wav","None","720.739307319","217","776482.798994","768765.795427","769532.464268","770299.348603","771065.826066","771832.219434","772582.727792","773348.947404","777232.61264","777998.894087","778765.732356","779532.224968","780298.931219","781066.03012","781832.149561","767999.112364","781076.062172","Mapping"
"Blocked","Male","cave","11","M_jaw.wav","space","321.244248975","217","776482.798994","768765.795427","769532.464268","770299.348603","771065.826066","771832.219434","772582.727792","773348.947404","777232.61264","777998.894087","778765.732356","779532.224968","780298.931219","781066.03012","781832.149561","782581.837991","781841.890681","Mapping"
"Blocked","Male","cave","11","M_tile.wav","None","733.313072182","217","776482.798994","783348.802402","769532.464268","770299.348603","771065.826066","771832.219434","772582.727792","773348.947404","777232.61264","777998.894087","778765.732356","779532.224968","780298.931219","781066.03012","781832.149561","782581.837991","782591.207176","Mapping"
"Blocked","Male","cave","11","M_cave.wav","None","730.487229128","217","776482.798994","783348.802402","784115.568324","770299.348603","771065.826066","771832.219434","772582.727792","773348.947404","777232.61264","777998.894087","778765.732356","779532.224968","780298.931219","781066.03012","781832.149561","782581.837991","783358.502711","Mapping"
"Blocked","Male","cave","11","M_ball.wav","space","437.466474046","217","776482.798994","783348.802402","784115.568324","784882.224489","771065.826066","771832.219434","772582.727792","773348.947404","777232.61264","777998.894087","778765.732356","779532.224968","780298.931219","781066.03012","781832.149561","782581.837991","784125.643042","Mapping"
"Blocked","Male","cave","11","M_park.wav","None","724.3179871","217","776482.798994","783348.802402","784115.568324","784882.224489","785648.502844","771832.219434","772582.727792","773348.947404","777232.61264","777998.894087","778765.732356","779532.224968","780298.931219","781066.03012","781832.149561","782581.837991","784892.109065","Mapping"
"Blocked","Male","cave","11","M_cave.wav","None","723.17095453","217","776482.798994","783348.802402","784115.568324","784882.224489","785648.502844","786415.906281","772582.727792","773348.947404","777232.61264","777998.894087","778765.732356","779532.224968","780298.931219","781066.03012","781832.149561","782581.837991","785657.944066","Mapping"
"Blocked","Male","cave","11","M_romp.wav","space","488.052774628","217","776482.798994","783348.802402","784115.568324","784882.224489","785648.502844","786415.906281","787164.979148","773348.947404","777232.61264","777998.894087","778765.732356","779532.224968","780298.931219","781066.03012","781832.149561","782581.837991","786426.978082","Mapping"
"Blocked","Male","cave","11","M_greet.wav","None","734.708061675","217","776482.798994","783348.802402","784115.568324","784882.224489","785648.502844","786415.906281","787164.979148","787932.058571","777232.61264","777998.894087","778765.732356","779532.224968","780298.931219","781066.03012","781832.149561","782581.837991","787174.034212","Mapping"
"Blocked","Male","tile","15","M_cling.wav","None","731.274384103","217","791065.826066","783348.802402","784115.568324","784882.224489","785648.502844","786415.906281","787164.979148","787932.058571","777232.61264","777998.894087","778765.732356","779532.224968","780298.931219","781066.03012","781832.149561","782581.837991","787941.934181","Mapping"
"Blocked","Male","tile","15","M_bluff.wav","None","719.96421009","217","791065.826066","783348.802402","784115.568324","784882.224489","785648.502844","786415.906281","787164.979148","787932.058571","791814.926449","777998.894087","778765.732356","779532.224968","780298.931219","781066.03012","781832.149561","782581.837991","791075.564094","Mapping"
"Blocked","Male","tile","15","M_knife.wav","None","736.273714749","217","791065.826066","783348.802402","784115.568324","784882.224489","785648.502844","786415.906281","787164.979148","787932.058571","791814.926449","792582.057814","778765.732356","779532.224968","780298.931219","781066.03012","781832.149561","782581.837991","791823.992644","Mapping"
"Blocked","Male","tile","15","M_cling.wav","None","732.954431267","217","791065.826066","783348.802402","784115.568324","784882.224489","785648.502844","786415.906281","787164.979148","787932.058571","791814.926449","792582.057814","793348.668221","779532.224968","780298.931219","781066.03012","781832.149561","782581.837991","792592.098832","Mapping"
"Blocked","Male","tile","15","M_depth.wav","None","731.391560752","217","791065.826066","783348.802402","784115.568324","784882.224489","785648.502844","786415.906281","787164.979148","787932.058571","791814.926449","792582.057814","793348.668221","794115.338608","780298.931219","781066.03012","781832.149561","782581.837991","793358.396665","Mapping"
"Blocked","Male","tile","15","M_bluff.wav","None","728.567881917","217","791065.826066","783348.802402","784115.568324","784882.224489","785648.502844","786415.906281","787164.979148","787932.058571","791814.926449","792582.057814","793348.668221","794115.338608","794881.593157","781066.03012","781832.149561","782581.837991","794125.908621","Mapping"
"Blocked","Male","tile","15","M_gnash.wav","None","728.244795901","217","791065.826066","783348.802402","784115.568324","784882.224489","785648.502844","786415.906281","787164.979148","787932.058571","791814.926449","792582.057814","793348.668221","794115.338608","794881.593157","795648.820983","781832.149561","782581.837991","794890.98924","Mapping"
"Blocked","Male","tile","15","M_tile.wav","None","725.100813637","217","791065.826066","783348.802402","784115.568324","784882.224489","785648.502844","786415.906281","787164.979148","787932.058571","791814.926449","792582.057814","793348.668221","794115.338608","794881.593157","795648.820983","796415.771791","782581.837991","795658.934657","Mapping"
"Blocked","Male","tile","15","M_bluff.wav","space","414.469243929","217","791065.826066","783348.802402","784115.568324","784882.224489","785648.502844","786415.906281","787164.979148","787932.058571","791814.926449","792582.057814","793348.668221","794115.338608","794881.593157","795648.820983","796415.771791","797181.595043","796420.383109","Mapping"
"Blocked","Male","tile","15","M_tile.wav","None","721.253462369","217","791065.826066","797931.661902","784115.568324","784882.224489","785648.502844","786415.906281","787164.979148","787932.058571","791814.926449","792582.057814","793348.668221","794115.338608","794881.593157","795648.820983","796415.771791","797181.595043","797190.81737","Mapping"
"Blocked","Male","tile","15","M_cave.wav","None","734.912425134","217","791065.826066","797931.661902","798698.49275","784882.224489","785648.502844","786415.906281","787164.979148","787932.058571","791814.926449","792582.057814","793348.668221","794115.338608","794881.593157","795648.820983","796415.771791","797181.595043","797941.879458","Mapping"
"Blocked","Male","tile","15","M_tile.wav","None","733.602458291","217","791065.826066","797931.661902","798698.49275","799464.73926","785648.502844","786415.906281","787164.979148","787932.058571","791814.926449","792582.057814","793348.668221","794115.338608","794881.593157","795648.820983","796415.771791","797181.595043","798708.184711","Mapping"
"Blocked","Male","tile","15","M_done.wav","space","528.80551244","217","791065.826066","797931.661902","798698.49275","799464.73926","800231.871861","786415.906281","787164.979148","787932.058571","791814.926449","792582.057814","793348.668221","794115.338608","794881.593157","795648.820983","796415.771791","797181.595043","799474.003635","Mapping"
"Blocked","Male","tile","15","M_tile.wav","None","728.969497897","217","791065.826066","797931.661902","798698.49275","799464.73926","800231.871861","800998.536683","787164.979148","787932.058571","791814.926449","792582.057814","793348.668221","794115.338608","794881.593157","795648.820983","796415.771791","797181.595043","800241.301953","Mapping"
"Blocked","Male","tile","15","M_lash.wav","space","522.585256811","217","791065.826066","797931.661902","798698.49275","799464.73926","800231.871861","800998.536683","801765.587662","787932.058571","791814.926449","792582.057814","793348.668221","794115.338608","794881.593157","795648.820983","796415.771791","797181.595043","801008.193399","Mapping"
"Blocked","Male","tile","15","M_jaw.wav","None","722.409770126","217","791065.826066","797931.661902","798698.49275","799464.73926","800231.871861","800998.536683","801765.587662","802532.174882","791814.926449","792582.057814","793348.668221","794115.338608","794881.593157","795648.820983","796415.771791","797181.595043","801775.799035","Mapping"
"Blocked","Male","cave","10","M_cling.wav","None","721.561089682","217","805648.942489","797931.661902","798698.49275","799464.73926","800231.871861","800998.536683","801765.587662","802532.174882","791814.926449","792582.057814","793348.668221","794115.338608","794881.593157","795648.820983","796415.771791","797181.595043","802541.783058","Mapping"
"Blocked","Male","cave","10","M_cave.wav","None","720.009349374","217","805648.942489","797931.661902","798698.49275","799464.73926","800231.871861","800998.536683","801765.587662","802532.174882","806397.997423","792582.057814","793348.668221","794115.338608","794881.593157","795648.820983","796415.771791","797181.595043","805658.925382","Mapping"
"Blocked","Male","cave","10","M_dime.wav","space","411.003721529","217","805648.942489","797931.661902","798698.49275","799464.73926","800231.871861","800998.536683","801765.587662","802532.174882","806397.997423","807165.19897","793348.668221","794115.338608","794881.593157","795648.820983","796415.771791","797181.595043","806407.686293","Mapping"
"Blocked","Male","cave","10","M_cave.wav","None","731.59747009","217","805648.942489","797931.661902","798698.49275","799464.73926","800231.871861","800998.536683","801765.587662","802532.174882","806397.997423","807165.19897","807931.613052","794115.338608","794881.593157","795648.820983","796415.771791","797181.595043","807175.06345","Mapping"
"Blocked","Male","cave","10","M_depth.wav","space","613.898633863","217","805648.942489","797931.661902","798698.49275","799464.73926","800231.871861","800998.536683","801765.587662","802532.174882","806397.997423","807165.19897","807931.613052","808698.399998","794881.593157","795648.820983","796415.771791","797181.595043","807940.742009","Mapping"
"Blocked","Male","cave","10","M_knife.wav","None","726.620399917","217","805648.942489","797931.661902","798698.49275","799464.73926","800231.871861","800998.536683","801765.587662","802532.174882","806397.997423","807165.19897","807931.613052","808698.399998","809465.058018","795648.820983","796415.771791","797181.595043","808708.10649","Mapping"
"Blocked","Male","cave","10","M_lash.wav","None","724.679410574","217","805648.942489","797931.661902","798698.49275","799464.73926","800231.871861","800998.536683","801765.587662","802532.174882","806397.997423","807165.19897","807931.613052","808698.399998","809465.058018","810232.163412","796415.771791","797181.595043","809474.644242","Mapping"
"Blocked","Male","cave","10","M_cave.wav","None","721.826978639","217","805648.942489","797931.661902","798698.49275","799464.73926","800231.871861","800998.536683","801765.587662","802532.174882","806397.997423","807165.19897","807931.613052","808698.399998","809465.058018","810232.163412","810998.114662","797181.595043","810242.237511","Mapping"
"Blocked","Male","cave","10","M_cling.wav","space","434.559318441","217","805648.942489","797931.661902","798698.49275","799464.73926","800231.871861","800998.536683","801765.587662","802532.174882","806397.997423","807165.19897","807931.613052","808698.399998","809465.058018","810232.163412","810998.114662","811748.218003","811008.00975","Mapping"
"Blocked","Male","cave","10","M_cave.wav","None","734.461032262","217","805648.942489","812514.836758","798698.49275","799464.73926","800231.871861","800998.536683","801765.587662","802532.174882","806397.997423","807165.19897","807931.613052","808698.399998","809465.058018","810232.163412","810998.114662","811748.218003","811757.880284","Mapping"
"Blocked","Male","cave","10","M_depth.wav","space","582.051011734","217","805648.942489","812514.836758","813281.932567","799464.73926","800231.871861","800998.536683","801765.587662","802532.174882","806397.997423","807165.19897","807931.613052","808698.399998","809465.058018","810232.163412","810998.114662","811748.218003","812524.511715","Mapping"
"Blocked","Male","cave","10","M_romp.wav","None","727.857711056","217","805648.942489","812514.836758","813281.932567","814048.263173","800231.871861","800998.536683","801765.587662","802532.174882","806397.997423","807165.19897","807931.613052","808698.399998","809465.058018","810232.163412","810998.114662","811748.218003","813292.0617","Mapping"
"Blocked","Male","cave","10","M_bluff.wav","None","726.591956016","217","805648.942489","812514.836758","813281.932567","814048.263173","814815.051046","800998.536683","801765.587662","802532.174882","806397.997423","807165.19897","807931.613052","808698.399998","809465.058018","810232.163412","810998.114662","811748.218003","814058.096118","Mapping"
"Blocked","Male","cave","10","M_priest.wav","None","725.00651583","217","805648.942489","812514.836758","813281.932567","814048.263173","814815.051046","815582.203743","801765.587662","802532.174882","806397.997423","807165.19897","807931.613052","808698.399998","809465.058018","810232.163412","810998.114662","811748.218003","814824.718583","Mapping"
