"Condition","Talker","Target","Trial","current_stimulus","response_response","response_time_response","subject_nr","time_Audio1","time_Audio10","time_Audio11","time_Audio12","time_Audio13","time_Audio14","time_Audio15","time_Audio16","time_Audio2","time_Audio3","time_Audio4","time_Audio5","time_Audio6","time_Audio7","time_Audio8","time_Audio9","time_response","title"
"Mixed","Female","ball","8","F_cling.wav","NA","NA","204","1085456.84108","NA","NA","NA","NA","NA","NA","NA","NA","NA","NA","NA","NA","NA","NA","NA","NA","Mapping"
"Mixed","Female","ball","8","M_jaw.wav","None","720.393525437","204","1085456.84108","NA","NA","NA","NA","NA","NA","NA","1086224.54276","NA","NA","NA","NA","NA","NA","NA","1085470.57385","Mapping"
"Mixed","Female","ball","8","F_knife.wav","None","724.153666757","204","1085456.84108","NA","NA","NA","NA","NA","NA","NA","1086224.54276","1086991.69566","NA","NA","NA","NA","NA","NA","1086233.82284","Mapping"
"Mixed","Female","ball","8","M_dime.wav","None","723.838621285","204","1085456.84108","NA","NA","NA","NA","NA","NA","NA","1086224.54276","1086991.69566","1087758.17055","NA","NA","NA","NA","NA","1087001.08859","Mapping"
"Mixed","Female","ball","8","F_done.wav","None","724.21982931","204","1085456.84108","NA","NA","NA","NA","NA","NA","NA","1086224.54276","1086991.69566","1087758.17055","1088525.65921","NA","NA","NA","NA","1087767.74775","Mapping"
"Mixed","Female","ball","8","F_ball.wav","None","723.855006974","204","1085456.84108","NA","NA","NA","NA","NA","NA","NA","1086224.54276","1086991.69566","1087758.17055","1088525.65921","1089293.09407","NA","NA","NA","1088535.20394","Mapping"
"Mixed","Female","ball","8","M_priest.wav","space","487.099673133","204","1085456.84108","NA","NA","NA","NA","NA","NA","NA","1086224.54276","1086991.69566","1087758.17055","1088525.65921","1089293.09407","1090060.11588","NA","NA","1089302.91644","Mapping"
"Mixed","Female","ball","8","F_ball.wav","None","723.261707462","204","1085456.84108","NA","NA","NA","NA","NA","NA","NA","1086224.54276","1086991.69566","1087758.17055","1088525.65921","1089293.09407","1090060.11588","1090827.60238","NA","1090069.68535","Mapping"
"Mixed","Female","ball","8","F_bluff.wav","space","496.17756065","204","1085456.84108","NA","NA","NA","NA","NA","NA","NA","1086224.54276","1086991.69566","1087758.17055","1088525.65921","1089293.09407","1090060.11588","1090827.60238","1091594.69623","1090837.76639","Mapping"
"Mixed","Female","ball","8","F_ball.wav","None","719.668518752","204","1085456.84108","1092345.485","NA","NA","NA","NA","NA","NA","1086224.54276","1086991.69566","1087758.17055","1088525.65921","1089293.09407","1090060.11588","1090827.60238","1091594.69623","1091604.08947","Mapping"
"Mixed","Female","ball","8","M_park.wav","space","395.191087853","204","1085456.84108","1092345.485","1093112.58163","NA","NA","NA","NA","NA","1086224.54276","1086991.69566","1087758.17055","1088525.65921","1089293.09407","1090060.11588","1090827.60238","1091594.69623","1092354.7419","Mapping"
"Mixed","Female","ball","8","M_cad.wav","None","732.369893696","204","1085456.84108","1092345.485","1093112.58163","1093879.9457","NA","NA","NA","NA","1086224.54276","1086991.69566","1087758.17055","1088525.65921","1089293.09407","1090060.11588","1090827.60238","1091594.69623","1093121.99435","Mapping"
"Mixed","Female","ball","8","F_ball.wav","None","731.605313253","204","1085456.84108","1092345.485","1093112.58163","1093879.9457","1094646.96349","NA","NA","NA","1086224.54276","1086991.69566","1087758.17055","1088525.65921","1089293.09407","1090060.11588","1090827.60238","1091594.69623","1093889.82434","Mapping"
"Mixed","Female","ball","8","M_tile.wav","space","405.863990076","204","1085456.84108","1092345.485","1093112.58163","1093879.9457","1094646.96349","1095414.30035","NA","NA","1086224.54276","1086991.69566","1087758.17055","1088525.65921","1089293.09407","1090060.11588","1090827.60238","1091594.69623","1094656.05436","Mapping"
"Mixed","Female","ball","8","M_greet.wav","None","728.560285177","204","1085456.84108","1092345.485","1093112.58163","1093879.9457","1094646.96349","1095414.30035","1096181.32865","NA","1086224.54276","1086991.69566","1087758.17055","1088525.65921","1089293.09407","1090060.11588","1090827.60238","1091594.69623","1095423.62433","Mapping"
"Mixed","Female","ball","8","M_jolt.wav","None","728.429196402","204","1085456.84108","1092345.485","1093112.58163","1093879.9457","1094646.96349","1095414.30035","1096181.32865","1096948.11797","1086224.54276","1086991.69566","1087758.17055","1088525.65921","1089293.09407","1090060.11588","1090827.60238","1091594.69623","1096190.57751","Mapping"
"Mixed","Female","ball","12","F_lash.wav","None","728.319749702","204","1100100.82199","1092345.485","1093112.58163","1093879.9457","1094646.96349","1095414.30035","1096181.32865","1096948.11797","1086224.54276","1086991.69566","1087758.17055","1088525.65921","1089293.09407","1090060.11588","1090827.60238","1091594.69623","1096958.03896","Mapping"
"Mixed","Female","ball","12","F_knife.wav","None","723.338691518","204","1100100.82199","1092345.485","1093112.58163","1093879.9457","1094646.96349","1095414.30035","1096181.32865","1096948.11797","1100868.15792","1086991.69566","1087758.17055","1088525.65921","1089293.09407","1090060.11588","1090827.60238","1091594.69623","1100109.8869","Mapping"
"Mixed","Female","ball","12","M_bluff.wav","None","719.750140328","204","1100100.82199","1092345.485","1093112.58163","1093879.9457","1094646.96349","1095414.30035","1096181.32865","1096948.11797","1100868.15792","1101635.39616","1087758.17055","1088525.65921","1089293.09407","1090060.11588","1090827.60238","1091594.69623","1100877.5895","Mapping"
"Mixed","Female","ball","12","M_done.wav","None","720.430316869","204","1100100.82199","1092345.485","1093112.58163","1093879.9457","1094646.96349","1095414.30035","1096181.32865","1096948.11797","1100868.15792","1101635.39616","1102402.92439","1088525.65921","1089293.09407","1090060.11588","1090827.60238","1091594.69623","1101644.75446","Mapping"
"Mixed","Female","ball","12","F_ball.wav","None","720.390433911","204","1100100.82199","1092345.485","1093112.58163","1093879.9457","1094646.96349","1095414.30035","1096181.32865","1096948.11797","1100868.15792","1101635.39616","1102402.92439","1103153.16006","1089293.09407","1090060.11588","1090827.60238","1091594.69623","1102411.90025","Mapping"
"Mixed","Female","ball","12","F_bluff.wav","space","371.125504375","204","1100100.82199","1092345.485","1093112.58163","1093879.9457","1094646.96349","1095414.30035","1096181.32865","1096948.11797","1100868.15792","1101635.39616","1102402.92439","1103153.16006","1103920.31976","1090060.11588","1090827.60238","1091594.69623","1103162.56134","Mapping"
"Mixed","Female","ball","12","F_ball.wav","None","730.171376839","204","1100100.82199","1092345.485","1093112.58163","1093879.9457","1094646.96349","1095414.30035","1096181.32865","1096948.11797","1100868.15792","1101635.39616","1102402.92439","1103153.16006","1103920.31976","1104687.72216","1090827.60238","1091594.69623","1103929.76741","Mapping"
"Mixed","Female","ball","12","M_knife.wav","space","340.921015013","204","1100100.82199","1092345.485","1093112.58163","1093879.9457","1094646.96349","1095414.30035","1096181.32865","1096948.11797","1100868.15792","1101635.39616","1102402.92439","1103153.16006","1103920.31976","1104687.72216","1105454.81199","1091594.69623","1104696.73945","Mapping"
"Mixed","Female","ball","12","F_romp.wav","None","726.402888075","204","1100100.82199","1092345.485","1093112.58163","1093879.9457","1094646.96349","1095414.30035","1096181.32865","1096948.11797","1100868.15792","1101635.39616","1102402.92439","1103153.16006","1103920.31976","1104687.72216","1105454.81199","1106222.1371","1105464.4974","Mapping"
"Mixed","Female","ball","12","F_ball.wav","None","726.862625685","204","1100100.82199","1106989.64276","1093112.58163","1093879.9457","1094646.96349","1095414.30035","1096181.32865","1096948.11797","1100868.15792","1101635.39616","1102402.92439","1103153.16006","1103920.31976","1104687.72216","1105454.81199","1106222.1371","1106231.15964","Mapping"
"Mixed","Female","ball","12","M_jolt.wav","space","462.854460813","204","1100100.82199","1106989.64276","1107756.65746","1093879.9457","1094646.96349","1095414.30035","1096181.32865","1096948.11797","1100868.15792","1101635.39616","1102402.92439","1103153.16006","1103920.31976","1104687.72216","1105454.81199","1106222.1371","1106998.68726","Mapping"
"Mixed","Female","ball","12","M_cad.wav","None","720.485349651","204","1100100.82199","1106989.64276","1107756.65746","1108507.19364","1094646.96349","1095414.30035","1096181.32865","1096948.11797","1100868.15792","1101635.39616","1102402.92439","1103153.16006","1103920.31976","1104687.72216","1105454.81199","1106222.1371","1107765.87448","Mapping"
"Mixed","Female","ball","12","M_priest.wav","None","733.638423495","204","1100100.82199","1106989.64276","1107756.65746","1108507.19364","1109274.48938","1095414.30035","1096181.32865","1096948.11797","1100868.15792","1101635.39616","1102402.92439","1103153.16006","1103920.31976","1104687.72216","1105454.81199","1106222.1371","1108516.7223","Mapping"
"Mixed","Female","ball","12","F_ball.wav","None","730.513629504","204","1100100.82199","1106989.64276","1107756.65746","1108507.19364","1109274.48938","1110041.28735","1096181.32865","1096948.11797","1100868.15792","1101635.39616","1102402.92439","1103153.16006","1103920.31976","1104687.72216","1105454.81199","1106222.1371","1109283.87211","Mapping"
"Mixed","Female","ball","12","M_reek.wav","space","419.432590716","204","1100100.82199","1106989.64276","1107756.65746","1108507.19364","1109274.48938","1110041.28735","1110808.90957","1096948.11797","1100868.15792","1101635.39616","1102402.92439","1103153.16006","1103920.31976","1104687.72216","1105454.81199","1106222.1371","1110050.1213","Mapping"
"Mixed","Female","ball","12","M_jaw.wav","None","726.832017768","204","1100100.82199","1106989.64276","1107756.65746","1108507.19364","1109274.48938","1110041.28735","1110808.90957","1111575.98271","1100868.15792","1101635.39616","1102402.92439","1103153.16006","1103920.31976","1104687.72216","1105454.81199","1106222.1371","1110818.72514","Mapping"
"Mixed","Male","cave","14","M_knife.wav","None","724.799525924","204","1114695.03715","1106989.64276","1107756.65746","1108507.19364","1109274.48938","1110041.28735","1110808.90957","1111575.98271","1100868.15792","1101635.39616","1102402.92439","1103153.16006","1103920.31976","1104687.72216","1105454.81199","1106222.1371","1111584.89921","Mapping"
"Mixed","Male","cave","14","F_depth.wav","None","720.844297204","204","1114695.03715","1106989.64276","1107756.65746","1108507.19364","1109274.48938","1110041.28735","1110808.90957","1111575.98271","1115462.44481","1101635.39616","1102402.92439","1103153.16006","1103920.31976","1104687.72216","1105454.81199","1106222.1371","1114703.98302","Mapping"
"Mixed","Male","cave","14","M_cave.wav","None","720.113107003","204","1114695.03715","1106989.64276","1107756.65746","1108507.19364","1109274.48938","1110041.28735","1110808.90957","1111575.98271","1115462.44481","1116229.46662","1102402.92439","1103153.16006","1103920.31976","1104687.72216","1105454.81199","1106222.1371","1115471.63369","Mapping"
"Mixed","Male","cave","14","F_park.wav","space","438.878845889","204","1114695.03715","1106989.64276","1107756.65746","1108507.19364","1109274.48938","1110041.28735","1110808.90957","1111575.98271","1115462.44481","1116229.46662","1116996.98558","1103153.16006","1103920.31976","1104687.72216","1105454.81199","1106222.1371","1116238.46412","Mapping"
"Mixed","Male","cave","14","F_romp.wav","None","718.95093238","204","1114695.03715","1106989.64276","1107756.65746","1108507.19364","1109274.48938","1110041.28735","1110808.90957","1111575.98271","1115462.44481","1116229.46662","1116996.98558","1117747.42252","1103920.31976","1104687.72216","1105454.81199","1106222.1371","1117006.9443","Mapping"
"Mixed","Male","cave","14","M_romp.wav","None","732.911871281","204","1114695.03715","1106989.64276","1107756.65746","1108507.19364","1109274.48938","1110041.28735","1110808.90957","1111575.98271","1115462.44481","1116229.46662","1116996.98558","1117747.42252","1118514.3893","1104687.72216","1105454.81199","1106222.1371","1117757.00373","Mapping"
"Mixed","Male","cave","14","F_jaw.wav","None","733.558966313","204","1114695.03715","1106989.64276","1107756.65746","1108507.19364","1109274.48938","1110041.28735","1110808.90957","1111575.98271","1115462.44481","1116229.46662","1116996.98558","1117747.42252","1118514.3893","1119281.9132","1105454.81199","1106222.1371","1118523.42359","Mapping"
"Mixed","Male","cave","14","M_cave.wav","None","733.069857582","204","1114695.03715","1106989.64276","1107756.65746","1108507.19364","1109274.48938","1110041.28735","1110808.90957","1111575.98271","1115462.44481","1116229.46662","1116996.98558","1117747.42252","1118514.3893","1119281.9132","1120048.94553","1106222.1371","1119291.13702","Mapping"
"Mixed","Male","cave","14","M_dime.wav","space","435.204036068","204","1114695.03715","1106989.64276","1107756.65746","1108507.19364","1109274.48938","1110041.28735","1110808.90957","1111575.98271","1115462.44481","1116229.46662","1116996.98558","1117747.42252","1118514.3893","1119281.9132","1120048.94553","1120816.30124","1120058.07443","Mapping"
"Mixed","Male","cave","14","M_cave.wav","None","726.458538789","204","1114695.03715","1121583.79639","1107756.65746","1108507.19364","1109274.48938","1110041.28735","1110808.90957","1111575.98271","1115462.44481","1116229.46662","1116996.98558","1117747.42252","1118514.3893","1119281.9132","1120048.94553","1120816.30124","1120825.77672","Mapping"
"Mixed","Male","cave","14","M_jaw.wav","space","603.831621818","204","1114695.03715","1121583.79639","1122350.8618","1108507.19364","1109274.48938","1110041.28735","1110808.90957","1111575.98271","1115462.44481","1116229.46662","1116996.98558","1117747.42252","1118514.3893","1119281.9132","1120048.94553","1120816.30124","1121593.40235","Mapping"
"Mixed","Male","cave","14","M_cave.wav","None","721.040311735","204","1114695.03715","1121583.79639","1122350.8618","1123100.96761","1109274.48938","1110041.28735","1110808.90957","1111575.98271","1115462.44481","1116229.46662","1116996.98558","1117747.42252","1118514.3893","1119281.9132","1120048.94553","1120816.30124","1122359.97184","Mapping"
"Mixed","Male","cave","14","F_romp.wav","space","463.291629218","204","1114695.03715","1121583.79639","1122350.8618","1123100.96761","1123868.39351","1110041.28735","1110808.90957","1111575.98271","1115462.44481","1116229.46662","1116996.98558","1117747.42252","1118514.3893","1119281.9132","1120048.94553","1120816.30124","1123109.9141","Mapping"
"Mixed","Male","cave","14","F_romp.wav","None","731.110021006","204","1114695.03715","1121583.79639","1122350.8618","1123100.96761","1123868.39351","1124635.69265","1110808.90957","1111575.98271","1115462.44481","1116229.46662","1116996.98558","1117747.42252","1118514.3893","1119281.9132","1120048.94553","1120816.30124","1123877.75367","Mapping"
"Mixed","Male","cave","14","F_jaw.wav","None","728.115387727","204","1114695.03715","1121583.79639","1122350.8618","1123100.96761","1123868.39351","1124635.69265","1125402.86163","1111575.98271","1115462.44481","1116229.46662","1116996.98558","1117747.42252","1118514.3893","1119281.9132","1120048.94553","1120816.30124","1124644.87597","Mapping"
"Mixed","Male","cave","14","F_dime.wav","None","724.91360968","204","1114695.03715","1121583.79639","1122350.8618","1123100.96761","1123868.39351","1124635.69265","1125402.86163","1126170.1484","1115462.44481","1116229.46662","1116996.98558","1117747.42252","1118514.3893","1119281.9132","1120048.94553","1120816.30124","1125412.25363","Mapping"
"Mixed","Male","tile","26","F_cling.wav","None","725.174859632","204","1129289.08257","1121583.79639","1122350.8618","1123100.96761","1123868.39351","1124635.69265","1125402.86163","1126170.1484","1115462.44481","1116229.46662","1116996.98558","1117747.42252","1118514.3893","1119281.9132","1120048.94553","1120816.30124","1126179.25875","Mapping"
"Mixed","Male","tile","26","F_lash.wav","None","720.562333241","204","1129289.08257","1121583.79639","1122350.8618","1123100.96761","1123868.39351","1124635.69265","1125402.86163","1126170.1484","1130039.66328","1116229.46662","1116996.98558","1117747.42252","1118514.3893","1119281.9132","1120048.94553","1120816.30124","1129298.16541","Mapping"
"Mixed","Male","tile","26","F_cave.wav","None","734.185347334","204","1129289.08257","1121583.79639","1122350.8618","1123100.96761","1123868.39351","1124635.69265","1125402.86163","1126170.1484","1130039.66328","1130807.05084","1116996.98558","1117747.42252","1118514.3893","1119281.9132","1120048.94553","1120816.30124","1130048.68984","Mapping"
"Mixed","Male","tile","26","F_greet.wav","None","739.314499311","204","1129289.08257","1121583.79639","1122350.8618","1123100.96761","1123868.39351","1124635.69265","1125402.86163","1126170.1484","1130039.66328","1130807.05084","1131573.93383","1117747.42252","1118514.3893","1119281.9132","1120048.94553","1120816.30124","1130810.73492","Mapping"
"Mixed","Male","tile","26","M_ball.wav","None","734.209463","204","1129289.08257","1121583.79639","1122350.8618","1123100.96761","1123868.39351","1124635.69265","1125402.86163","1126170.1484","1130039.66328","1130807.05084","1131573.93383","1132341.5205","1118514.3893","1119281.9132","1120048.94553","1120816.30124","1131583.03243","Mapping"
"Mixed","Male","tile","26","M_tile.wav","None","733.827327378","204","1129289.08257","1121583.79639","1122350.8618","1123100.96761","1123868.39351","1124635.69265","1125402.86163","1126170.1484","1130039.66328","1130807.05084","1131573.93383","1132341.5205","1133108.59951","1119281.9132","1120048.94553","1120816.30124","1132350.86736","Mapping"
"Mixed","Male","tile","26","M_greet.wav","space","431.522733532","204","1129289.08257","1121583.79639","1122350.8618","1123100.96761","1123868.39351","1124635.69265","1125402.86163","1126170.1484","1130039.66328","1130807.05084","1131573.93383","1132341.5205","1133108.59951","1133876.03715","1120048.94553","1120816.30124","1133117.4248","Mapping"
"Mixed","Male","tile","26","M_tile.wav","None","727.088011801","204","1129289.08257","1121583.79639","1122350.8618","1123100.96761","1123868.39351","1124635.69265","1125402.86163","1126170.1484","1130039.66328","1130807.05084","1131573.93383","1132341.5205","1133108.59951","1133876.03715","1134642.99899","1120816.30124","1133885.49409","Mapping"
"Mixed","Male","tile","26","F_cave.wav","space","360.873074736","204","1129289.08257","1121583.79639","1122350.8618","1123100.96761","1123868.39351","1124635.69265","1125402.86163","1126170.1484","1130039.66328","1130807.05084","1131573.93383","1132341.5205","1133108.59951","1133876.03715","1134642.99899","1135410.47992","1134652.05523","Mapping"
"Mixed","Male","tile","26","F_jaw.wav","None","721.21375706","204","1129289.08257","1136160.91716","1122350.8618","1123100.96761","1123868.39351","1124635.69265","1125402.86163","1126170.1484","1130039.66328","1130807.05084","1131573.93383","1132341.5205","1133108.59951","1133876.03715","1134642.99899","1135410.47992","1135419.51916","Mapping"
"Mixed","Male","tile","26","F_cave.wav","None","735.171295237","204","1129289.08257","1136160.91716","1136928.07656","1123100.96761","1123868.39351","1124635.69265","1125402.86163","1126170.1484","1130039.66328","1130807.05084","1131573.93383","1132341.5205","1133108.59951","1133876.03715","1134642.99899","1135410.47992","1136169.9697","Mapping"
"Mixed","Male","tile","26","M_tile.wav","None","732.043408789","204","1129289.08257","1136160.91716","1136928.07656","1137695.41558","1123868.39351","1124635.69265","1125402.86163","1126170.1484","1130039.66328","1130807.05084","1131573.93383","1132341.5205","1133108.59951","1133876.03715","1134642.99899","1135410.47992","1136937.46887","Mapping"
"Mixed","Male","tile","26","F_cling.wav","space","348.53559453","204","1129289.08257","1136160.91716","1136928.07656","1137695.41558","1138462.69678","1124635.69265","1125402.86163","1126170.1484","1130039.66328","1130807.05084","1131573.93383","1132341.5205","1133108.59951","1133876.03715","1134642.99899","1135410.47992","1137704.34692","Mapping"
"Mixed","Male","tile","26","M_done.wav","None","726.052596699","204","1129289.08257","1136160.91716","1136928.07656","1137695.41558","1138462.69678","1139229.86916","1125402.86163","1126170.1484","1130039.66328","1130807.05084","1131573.93383","1132341.5205","1133108.59951","1133876.03715","1134642.99899","1135410.47992","1138471.76138","Mapping"
"Mixed","Male","tile","26","M_tile.wav","None","723.12350804","204","1129289.08257","1136160.91716","1136928.07656","1137695.41558","1138462.69678","1139229.86916","1139996.93271","1126170.1484","1130039.66328","1130807.05084","1131573.93383","1132341.5205","1133108.59951","1133876.03715","1134642.99899","1135410.47992","1139238.97518","Mapping"
"Mixed","Male","tile","26","M_depth.wav","space","502.253704239","204","1129289.08257","1136160.91716","1136928.07656","1137695.41558","1138462.69678","1139229.86916","1139996.93271","1140764.37747","1130039.66328","1130807.05084","1131573.93383","1132341.5205","1133108.59951","1133876.03715","1134642.99899","1135410.47992","1140006.55072","Mapping"
"Mixed","Male","cave","13","F_tile.wav","None","720.072605647","204","1143899.79944","1136160.91716","1136928.07656","1137695.41558","1138462.69678","1139229.86916","1139996.93271","1140764.37747","1130039.66328","1130807.05084","1131573.93383","1132341.5205","1133108.59951","1133876.03715","1134642.99899","1135410.47992","1140773.92808","Mapping"
"Mixed","Male","cave","13","F_bluff.wav","None","723.29046065","204","1143899.79944","1136160.91716","1136928.07656","1137695.41558","1138462.69678","1139229.86916","1139996.93271","1140764.37747","1144667.0621","1130807.05084","1131573.93383","1132341.5205","1133108.59951","1133876.03715","1134642.99899","1135410.47992","1143908.85043","Mapping"
"Mixed","Male","cave","13","F_jaw.wav","None","719.561236445","204","1143899.79944","1136160.91716","1136928.07656","1137695.41558","1138462.69678","1139229.86916","1139996.93271","1140764.37747","1144667.0621","1145417.80882","1131573.93383","1132341.5205","1133108.59951","1133876.03715","1134642.99899","1135410.47992","1144676.84459","Mapping"
"Mixed","Male","cave","13","M_cave.wav","None","733.682943974","204","1143899.79944","1136160.91716","1136928.07656","1137695.41558","1138462.69678","1139229.86916","1139996.93271","1140764.37747","1144667.0621","1145417.80882","1146184.99326","1132341.5205","1133108.59951","1133876.03715","1134642.99899","1135410.47992","1145426.95256","Mapping"
"Mixed","Male","cave","13","M_cad.wav","space","386.150301434","204","1143899.79944","1136160.91716","1136928.07656","1137695.41558","1138462.69678","1139229.86916","1139996.93271","1140764.37747","1144667.0621","1145417.80882","1146184.99326","1146951.84132","1133108.59951","1133876.03715","1134642.99899","1135410.47992","1146194.49595","Mapping"
"Mixed","Male","cave","13","M_jolt.wav","None","727.160666604","204","1143899.79944","1136160.91716","1136928.07656","1137695.41558","1138462.69678","1139229.86916","1139996.93271","1140764.37747","1144667.0621","1145417.80882","1146184.99326","1146951.84132","1147719.71984","1133876.03715","1134642.99899","1135410.47992","1146961.38729","Mapping"
"Mixed","Male","cave","13","M_cave.wav","None","723.326633684","204","1143899.79944","1136160.91716","1136928.07656","1137695.41558","1138462.69678","1139229.86916","1139996.93271","1140764.37747","1144667.0621","1145417.80882","1146184.99326","1146951.84132","1147719.71984","1148486.66251","1134642.99899","1135410.47992","1147729.45008","Mapping"
"Mixed","Male","cave","13","M_ball.wav","space","420.828498434","204","1143899.79944","1136160.91716","1136928.07656","1137695.41558","1138462.69678","1139229.86916","1139996.93271","1140764.37747","1144667.0621","1145417.80882","1146184.99326","1146951.84132","1147719.71984","1148486.66251","1149237.16931","1135410.47992","1148495.75678","Mapping"
"Mixed","Male","cave","13","F_depth.wav","None","734.259857796","204","1143899.79944","1136160.91716","1136928.07656","1137695.41558","1138462.69678","1139229.86916","1139996.93271","1140764.37747","1144667.0621","1145417.80882","1146184.99326","1146951.84132","1147719.71984","1148486.66251","1149237.16931","1150004.61747","1149246.59502","Mapping"
"Mixed","Male","cave","13","F_lash.wav","None","731.391057372","204","1143899.79944","1150771.66464","1136928.07656","1137695.41558","1138462.69678","1139229.86916","1139996.93271","1140764.37747","1144667.0621","1145417.80882","1146184.99326","1146951.84132","1147719.71984","1148486.66251","1149237.16931","1150004.61747","1150013.66228","Mapping"
"Mixed","Male","cave","13","M_cave.wav","None","727.82785818","204","1143899.79944","1150771.66464","1151538.72046","1137695.41558","1138462.69678","1139229.86916","1139996.93271","1140764.37747","1144667.0621","1145417.80882","1146184.99326","1146951.84132","1147719.71984","1148486.66251","1149237.16931","1150004.61747","1150781.46475","Mapping"
"Mixed","Male","cave","13","F_depth.wav","space","400.312510319","204","1143899.79944","1150771.66464","1151538.72046","1152306.27775","1138462.69678","1139229.86916","1139996.93271","1140764.37747","1144667.0621","1145417.80882","1146184.99326","1146951.84132","1147719.71984","1148486.66251","1149237.16931","1150004.61747","1151548.19408","Mapping"
"Mixed","Male","cave","13","F_romp.wav","None","721.99441446","204","1143899.79944","1150771.66464","1151538.72046","1152306.27775","1153056.64636","1139229.86916","1139996.93271","1140764.37747","1144667.0621","1145417.80882","1146184.99326","1146951.84132","1147719.71984","1148486.66251","1149237.16931","1150004.61747","1152315.75014","Mapping"
"Mixed","Male","cave","13","F_done.wav","None","735.947623849","204","1143899.79944","1150771.66464","1151538.72046","1152306.27775","1153056.64636","1153823.93035","1139996.93271","1140764.37747","1144667.0621","1145417.80882","1146184.99326","1146951.84132","1147719.71984","1148486.66251","1149237.16931","1150004.61747","1153066.00405","Mapping"
"Mixed","Male","cave","13","M_cave.wav","None","732.626814861","204","1143899.79944","1150771.66464","1151538.72046","1152306.27775","1153056.64636","1153823.93035","1154591.09686","1140764.37747","1144667.0621","1145417.80882","1146184.99326","1146951.84132","1147719.71984","1148486.66251","1149237.16931","1150004.61747","1153833.62751","Mapping"
"Mixed","Male","cave","13","M_priest.wav","space","492.30766343","204","1143899.79944","1150771.66464","1151538.72046","1152306.27775","1153056.64636","1153823.93035","1154591.09686","1155358.51874","1144667.0621","1145417.80882","1146184.99326","1146951.84132","1147719.71984","1148486.66251","1149237.16931","1150004.61747","1154600.16083","Mapping"
"Mixed","Male","ball","6","F_depth.wav","None","726.539850701","204","1158477.48476","1150771.66464","1151538.72046","1152306.27775","1153056.64636","1153823.93035","1154591.09686","1155358.51874","1144667.0621","1145417.80882","1146184.99326","1146951.84132","1147719.71984","1148486.66251","1149237.16931","1150004.61747","1155367.72648","Mapping"
"Mixed","Male","ball","6","F_cave.wav","None","720.342203043","204","1158477.48476","1150771.66464","1151538.72046","1152306.27775","1153056.64636","1153823.93035","1154591.09686","1155358.51874","1159227.8951","1145417.80882","1146184.99326","1146951.84132","1147719.71984","1148486.66251","1149237.16931","1150004.61747","1158486.43774","Mapping"
"Mixed","Male","ball","6","M_ball.wav","space","567.287266254","204","1158477.48476","1150771.66464","1151538.72046","1152306.27775","1153056.64636","1153823.93035","1154591.09686","1155358.51874","1159227.8951","1159994.98957","1146184.99326","1146951.84132","1147719.71984","1148486.66251","1149237.16931","1150004.61747","1159237.01998","Mapping"
"Mixed","Male","ball","6","M_tile.wav","None","728.921087924","204","1158477.48476","1150771.66464","1151538.72046","1152306.27775","1153056.64636","1153823.93035","1154591.09686","1155358.51874","1159227.8951","1159994.98957","1160762.36136","1146951.84132","1147719.71984","1148486.66251","1149237.16931","1150004.61747","1160005.9602","Mapping"
"Mixed","Male","ball","6","M_ball.wav","space","296.92130303","204","1158477.48476","1150771.66464","1151538.72046","1152306.27775","1153056.64636","1153823.93035","1154591.09686","1155358.51874","1159227.8951","1159994.98957","1160762.36136","1161529.89671","1147719.71984","1148486.66251","1149237.16931","1150004.61747","1160771.37463","Mapping"
"Mixed","Male","ball","6","M_depth.wav","None","723.81388722","204","1158477.48476","1150771.66464","1151538.72046","1152306.27775","1153056.64636","1153823.93035","1154591.09686","1155358.51874","1159227.8951","1159994.98957","1160762.36136","1161529.89671","1162296.92965","1148486.66251","1149237.16931","1150004.61747","1161538.91153","Mapping"
"Mixed","Male","ball","6","F_tile.wav","space","66.109478008","204","1158477.48476","1150771.66464","1151538.72046","1152306.27775","1153056.64636","1153823.93035","1154591.09686","1155358.51874","1159227.8951","1159994.98957","1160762.36136","1161529.89671","1162296.92965","1163047.31186","1149237.16931","1150004.61747","1162306.14512","Mapping"
"Mixed","Male","ball","6","F_cling.wav","None","735.155217815","204","1158477.48476","1150771.66464","1151538.72046","1152306.27775","1153056.64636","1153823.93035","1154591.09686","1155358.51874","1159227.8951","1159994.98957","1160762.36136","1161529.89671","1162296.92965","1163047.31186","1163814.74704","1150004.61747","1163056.01133","Mapping"
"Mixed","Male","ball","6","F_park.wav","None","731.213902123","204","1158477.48476","1150771.66464","1151538.72046","1152306.27775","1153056.64636","1153823.93035","1154591.09686","1155358.51874","1159227.8951","1159994.98957","1160762.36136","1161529.89671","1162296.92965","1163047.31186","1163814.74704","1164581.87118","1163824.34464","Mapping"
"Mixed","Male","ball","6","M_cling.wav","None","727.087702136","204","1158477.48476","1165349.25565","1151538.72046","1152306.27775","1153056.64636","1153823.93035","1154591.09686","1155358.51874","1159227.8951","1159994.98957","1160762.36136","1161529.89671","1162296.92965","1163047.31186","1163814.74704","1164581.87118","1164592.86099","Mapping"
"Mixed","Male","ball","6","M_park.wav","None","729.240770917","204","1158477.48476","1165349.25565","1166116.36218","1152306.27775","1153056.64636","1153823.93035","1154591.09686","1155358.51874","1159227.8951","1159994.98957","1160762.36136","1161529.89671","1162296.92965","1163047.31186","1163814.74704","1164581.87118","1165358.02468","Mapping"
"Mixed","Male","ball","6","F_bluff.wav","None","725.982724223","204","1158477.48476","1165349.25565","1166116.36218","1166883.43562","1153056.64636","1153823.93035","1154591.09686","1155358.51874","1159227.8951","1159994.98957","1160762.36136","1161529.89671","1162296.92965","1163047.31186","1163814.74704","1164581.87118","1166125.9097","Mapping"
"Mixed","Male","ball","6","M_ball.wav","None","723.468852229","204","1158477.48476","1165349.25565","1166116.36218","1166883.43562","1167650.75733","1153823.93035","1154591.09686","1155358.51874","1159227.8951","1159994.98957","1160762.36136","1161529.89671","1162296.92965","1163047.31186","1163814.74704","1164581.87118","1166892.74972","Mapping"
"Mixed","Male","ball","6","F_romp.wav","space","384.260027669","204","1158477.48476","1165349.25565","1166116.36218","1166883.43562","1167650.75733","1168401.17695","1154591.09686","1155358.51874","1159227.8951","1159994.98957","1160762.36136","1161529.89671","1162296.92965","1163047.31186","1163814.74704","1164581.87118","1167659.8717","Mapping"
"Mixed","Male","ball","6","M_ball.wav","None","734.408259857","204","1158477.48476","1165349.25565","1166116.36218","1166883.43562","1167650.75733","1168401.17695","1169168.68169","1155358.51874","1159227.8951","1159994.98957","1160762.36136","1161529.89671","1162296.92965","1163047.31186","1163814.74704","1164581.87118","1168409.85261","Mapping"
"Mixed","Male","ball","6","F_priest.wav","space","545.908999164","204","1158477.48476","1165349.25565","1166116.36218","1166883.43562","1167650.75733","1168401.17695","1169168.68169","1169935.75668","1159227.8951","1159994.98957","1160762.36136","1161529.89671","1162296.92965","1163047.31186","1163814.74704","1164581.87118","1169178.18716","Mapping"
"Mixed","Male","tile","29","F_jolt.wav","None","731.599438936","204","1173071.46556","1165349.25565","1166116.36218","1166883.43562","1167650.75733","1168401.17695","1169168.68169","1169935.75668","1159227.8951","1159994.98957","1160762.36136","1161529.89671","1162296.92965","1163047.31186","1163814.74704","1164581.87118","1169944.93288","Mapping"
"Mixed","Male","tile","29","F_cad.wav","None","722.914198879","204","1173071.46556","1165349.25565","1166116.36218","1166883.43562","1167650.75733","1168401.17695","1169168.68169","1169935.75668","1173838.37298","1159994.98957","1160762.36136","1161529.89671","1162296.92965","1163047.31186","1163814.74704","1164581.87118","1173080.67268","Mapping"
"Mixed","Male","tile","29","F_romp.wav","None","723.53068646","204","1173071.46556","1165349.25565","1166116.36218","1166883.43562","1167650.75733","1168401.17695","1169168.68169","1169935.75668","1173838.37298","1174606.11763","1160762.36136","1161529.89671","1162296.92965","1163047.31186","1163814.74704","1164581.87118","1173847.52878","Mapping"
"Mixed","Male","tile","29","M_tile.wav","None","720.020046923","204","1173071.46556","1165349.25565","1166116.36218","1166883.43562","1167650.75733","1168401.17695","1169168.68169","1169935.75668","1173838.37298","1174606.11763","1175356.21634","1161529.89671","1162296.92965","1163047.31186","1163814.74704","1164581.87118","1174615.56003","Mapping"
"Mixed","Male","tile","29","F_park.wav","space","358.325194567","204","1173071.46556","1165349.25565","1166116.36218","1166883.43562","1167650.75733","1168401.17695","1169168.68169","1169935.75668","1173838.37298","1174606.11763","1175356.21634","1176123.89112","1162296.92965","1163047.31186","1163814.74704","1164581.87118","1175365.58794","Mapping"
"Mixed","Male","tile","29","F_reek.wav","None","728.771140333","204","1173071.46556","1165349.25565","1166116.36218","1166883.43562","1167650.75733","1168401.17695","1169168.68169","1169935.75668","1173838.37298","1174606.11763","1175356.21634","1176123.89112","1176890.99919","1163047.31186","1163814.74704","1164581.87118","1176135.3116","Mapping"
"Mixed","Male","tile","29","M_tile.wav","None","730.495697353","204","1173071.46556","1165349.25565","1166116.36218","1166883.43562","1167650.75733","1168401.17695","1169168.68169","1169935.75668","1173838.37298","1174606.11763","1175356.21634","1176123.89112","1176890.99919","1177658.02595","1163814.74704","1164581.87118","1176901.00737","Mapping"
"Mixed","Male","tile","29","M_dime.wav","space","472.266562749","204","1173071.46556","1165349.25565","1166116.36218","1166883.43562","1167650.75733","1168401.17695","1169168.68169","1169935.75668","1173838.37298","1174606.11763","1175356.21634","1176123.89112","1176890.99919","1177658.02595","1178425.49791","1164581.87118","1177667.60995","Mapping"
"Mixed","Male","tile","29","M_jaw.wav","None","724.967405666","204","1173071.46556","1165349.25565","1166116.36218","1166883.43562","1167650.75733","1168401.17695","1169168.68169","1169935.75668","1173838.37298","1174606.11763","1175356.21634","1176123.89112","1176890.99919","1177658.02595","1178425.49791","1179192.52529","1178435.0173","Mapping"
"Mixed","Male","tile","29","F_dime.wav","None","722.76177723","204","1173071.46556","1179959.89554","1166116.36218","1166883.43562","1167650.75733","1168401.17695","1169168.68169","1169935.75668","1173838.37298","1174606.11763","1175356.21634","1176123.89112","1176890.99919","1177658.02595","1178425.49791","1179192.52529","1179201.74323","Mapping"
"Mixed","Male","tile","29","M_lash.wav","None","726.863862481","204","1173071.46556","1179959.89554","1180727.02803","1166883.43562","1167650.75733","1168401.17695","1169168.68169","1169935.75668","1173838.37298","1174606.11763","1175356.21634","1176123.89112","1176890.99919","1177658.02595","1178425.49791","1179192.52529","1179963.14462","Mapping"
"Mixed","Male","tile","29","M_tile.wav","None","720.834094565","204","1173071.46556","1179959.89554","1180727.02803","1181477.5166","1167650.75733","1168401.17695","1169168.68169","1169935.75668","1173838.37298","1174606.11763","1175356.21634","1176123.89112","1176890.99919","1177658.02595","1178425.49791","1179192.52529","1180736.81392","Mapping"
"Mixed","Male","tile","29","F_ball.wav","space","418.790441472","204","1173071.46556","1179959.89554","1180727.02803","1181477.5166","1182244.8618","1168401.17695","1169168.68169","1169935.75668","1173838.37298","1174606.11763","1175356.21634","1176123.89112","1176890.99919","1177658.02595","1178425.49791","1179192.52529","1181488.96181","Mapping"
"Mixed","Male","tile","29","F_done.wav","None","731.903044973","204","1173071.46556","1179959.89554","1180727.02803","1181477.5166","1182244.8618","1183012.32913","1169168.68169","1169935.75668","1173838.37298","1174606.11763","1175356.21634","1176123.89112","1176890.99919","1177658.02595","1178425.49791","1179192.52529","1182253.87909","Mapping"
"Mixed","Male","tile","29","M_tile.wav","None","728.429505602","204","1173071.46556","1179959.89554","1180727.02803","1181477.5166","1182244.8618","1183012.32913","1183779.34229","1169935.75668","1173838.37298","1174606.11763","1175356.21634","1176123.89112","1176890.99919","1177658.02595","1178425.49791","1179192.52529","1183021.75824","Mapping"
"Mixed","Male","tile","29","M_reek.wav","space","439.29406302","204","1173071.46556","1179959.89554","1180727.02803","1181477.5166","1182244.8618","1183012.32913","1183779.34229","1184546.75891","1173838.37298","1174606.11763","1175356.21634","1176123.89112","1176890.99919","1177658.02595","1178425.49791","1179192.52529","1183788.44553","Mapping"
"Mixed","Male","ball","2","F_greet.wav","None","722.76981594","204","1187665.81521","1179959.89554","1180727.02803","1181477.5166","1182244.8618","1183012.32913","1183779.34229","1184546.75891","1173838.37298","1174606.11763","1175356.21634","1176123.89112","1176890.99919","1177658.02595","1178425.49791","1179192.52529","1184555.85535","Mapping"
"Mixed","Male","ball","2","F_depth.wav","None","718.20459282","204","1187665.81521","1179959.89554","1180727.02803","1181477.5166","1182244.8618","1183012.32913","1183779.34229","1184546.75891","1188416.01965","1174606.11763","1175356.21634","1176123.89112","1176890.99919","1177658.02595","1178425.49791","1179192.52529","1187677.2057","Mapping"
"Mixed","Male","ball","2","M_ball.wav","None","734.37641561","204","1187665.81521","1179959.89554","1180727.02803","1181477.5166","1182244.8618","1183012.32913","1183779.34229","1184546.75891","1188416.01965","1189183.26066","1175356.21634","1176123.89112","1176890.99919","1177658.02595","1178425.49791","1179192.52529","1188425.75514","Mapping"
"Mixed","Male","ball","2","F_dime.wav","space","347.758338321","204","1187665.81521","1179959.89554","1180727.02803","1181477.5166","1182244.8618","1183012.32913","1183779.34229","1184546.75891","1188416.01965","1189183.26066","1189950.65626","1176123.89112","1176890.99919","1177658.02595","1178425.49791","1179192.52529","1189191.78452","Mapping"
"Mixed","Male","ball","2","F_priest.wav","None","729.050630704","204","1187665.81521","1179959.89554","1180727.02803","1181477.5166","1182244.8618","1183012.32913","1183779.34229","1184546.75891","1188416.01965","1189183.26066","1189950.65626","1190717.63386","1176890.99919","1177658.02595","1178425.49791","1179192.52529","1189959.29049","Mapping"
"Mixed","Male","ball","2","F_jaw.wav","None","726.230061147","204","1187665.81521","1179959.89554","1180727.02803","1181477.5166","1182244.8618","1183012.32913","1183779.34229","1184546.75891","1188416.01965","1189183.26066","1189950.65626","1190717.63386","1191485.24001","1177658.02595","1178425.49791","1179192.52529","1190726.73401","Mapping"
"Mixed","Male","ball","2","M_ball.wav","None","728.296252899","204","1187665.81521","1179959.89554","1180727.02803","1181477.5166","1182244.8618","1183012.32913","1183779.34229","1184546.75891","1188416.01965","1189183.26066","1189950.65626","1190717.63386","1191485.24001","1192252.17865","1178425.49791","1179192.52529","1191489.28273","Mapping"
"Mixed","Male","ball","2","F_knife.wav","space","366.143208463","204","1187665.81521","1179959.89554","1180727.02803","1181477.5166","1182244.8618","1183012.32913","1183779.34229","1184546.75891","1188416.01965","1189183.26066","1189950.65626","1190717.63386","1191485.24001","1192252.17865","1193003.03575","1179192.52529","1192261.38763","Mapping"
"Mixed","Male","ball","2","M_ball.wav","None","731.992395595","204","1187665.81521","1179959.89554","1180727.02803","1181477.5166","1182244.8618","1183012.32913","1183779.34229","1184546.75891","1188416.01965","1189183.26066","1189950.65626","1190717.63386","1191485.24001","1192252.17865","1193003.03575","1193770.18278","1193013.87932","Mapping"
"Mixed","Male","ball","2","M_jaw.wav","space","456.008172128","204","1187665.81521","1194537.68381","1180727.02803","1181477.5166","1182244.8618","1183012.32913","1183779.34229","1184546.75891","1188416.01965","1189183.26066","1189950.65626","1190717.63386","1191485.24001","1192252.17865","1193003.03575","1193770.18278","1193779.49502","Mapping"
"Mixed","Male","ball","2","M_ball.wav","None","727.335966658","204","1187665.81521","1194537.68381","1195304.50528","1181477.5166","1182244.8618","1183012.32913","1183779.34229","1184546.75891","1188416.01965","1189183.26066","1189950.65626","1190717.63386","1191485.24001","1192252.17865","1193003.03575","1193770.18278","1194546.88814","Mapping"
"Mixed","Male","ball","2","F_jolt.wav","space","441.255754791","204","1187665.81521","1194537.68381","1195304.50528","1196071.89098","1182244.8618","1183012.32913","1183779.34229","1184546.75891","1188416.01965","1189183.26066","1189950.65626","1190717.63386","1191485.24001","1192252.17865","1193003.03575","1193770.18278","1195314.2012","Mapping"
"Mixed","Male","ball","2","F_cling.wav","None","721.404206473","204","1187665.81521","1194537.68381","1195304.50528","1196071.89098","1196822.31277","1183012.32913","1183779.34229","1184546.75891","1188416.01965","1189183.26066","1189950.65626","1190717.63386","1191485.24001","1192252.17865","1193003.03575","1193770.18278","1196081.20291","Mapping"
"Mixed","Male","ball","2","M_depth.wav","None","735.412757844","204","1187665.81521","1194537.68381","1195304.50528","1196071.89098","1196822.31277","1197589.44403","1183779.34229","1184546.75891","1188416.01965","1189183.26066","1189950.65626","1190717.63386","1191485.24001","1192252.17865","1193003.03575","1193770.18278","1196831.72518","Mapping"
"Mixed","Male","ball","2","M_knife.wav","None","733.481673524","204","1187665.81521","1194537.68381","1195304.50528","1196071.89098","1196822.31277","1197589.44403","1198356.82324","1184546.75891","1188416.01965","1189183.26066","1189950.65626","1190717.63386","1191485.24001","1192252.17865","1193003.03575","1193770.18278","1197598.57138","Mapping"
"Mixed","Male","ball","2","M_tile.wav","None","730.685528833","204","1187665.81521","1194537.68381","1195304.50528","1196071.89098","1196822.31277","1197589.44403","1198356.82324","1199123.8735","1188416.01965","1189183.26066","1189950.65626","1190717.63386","1191485.24001","1192252.17865","1193003.03575","1193770.18278","1198366.03654","Mapping"
"Mixed","Male","done","41","F_priest.wav","None","728.324078023","204","1202242.95236","1194537.68381","1195304.50528","1196071.89098","1196822.31277","1197589.44403","1198356.82324","1199123.8735","1188416.01965","1189183.26066","1189950.65626","1190717.63386","1191485.24001","1192252.17865","1193003.03575","1193770.18278","1199133.04692","Mapping"
"Mixed","Male","done","41","F_ball.wav","None","732.431418728","204","1202242.95236","1194537.68381","1195304.50528","1196071.89098","1196822.31277","1197589.44403","1198356.82324","1199123.8735","1203010.31983","1189183.26066","1189950.65626","1190717.63386","1191485.24001","1192252.17865","1193003.03575","1193770.18278","1202256.5392","Mapping"
"Mixed","Male","done","41","M_done.wav","None","732.257973868","204","1202242.95236","1194537.68381","1195304.50528","1196071.89098","1196822.31277","1197589.44403","1198356.82324","1199123.8735","1203010.31983","1203777.36885","1189950.65626","1190717.63386","1191485.24001","1192252.17865","1193003.03575","1193770.18278","1203021.1232","Mapping"
"Mixed","Male","done","41","F_reek.wav","space","480.462075211","204","1202242.95236","1194537.68381","1195304.50528","1196071.89098","1196822.31277","1197589.44403","1198356.82324","1199123.8735","1203010.31983","1203777.36885","1204544.81268","1190717.63386","1191485.24001","1192252.17865","1193003.03575","1193770.18278","1203786.80074","Mapping"
"Mixed","Male","done","41","F_ball.wav","None","727.72645019","204","1202242.95236","1194537.68381","1195304.50528","1196071.89098","1196822.31277","1197589.44403","1198356.82324","1199123.8735","1203010.31983","1203777.36885","1204544.81268","1205311.33858","1191485.24001","1192252.17865","1193003.03575","1193770.18278","1204553.97404","Mapping"
"Mixed","Male","done","41","M_park.wav","None","728.543280624","204","1202242.95236","1194537.68381","1195304.50528","1196071.89098","1196822.31277","1197589.44403","1198356.82324","1199123.8735","1203010.31983","1203777.36885","1204544.81268","1205311.33858","1206079.24648","1192252.17865","1193003.03575","1193770.18278","1205320.18026","Mapping"
"Mixed","Male","done","41","F_gnash.wav","None","725.210105069","204","1202242.95236","1194537.68381","1195304.50528","1196071.89098","1196822.31277","1197589.44403","1198356.82324","1199123.8735","1203010.31983","1203777.36885","1204544.81268","1205311.33858","1206079.24648","1206846.23304","1193003.03575","1193770.18278","1206088.39702","Mapping"
"Mixed","Male","done","41","M_ball.wav","None","726.013022941","204","1202242.95236","1194537.68381","1195304.50528","1196071.89098","1196822.31277","1197589.44403","1198356.82324","1199123.8735","1203010.31983","1203777.36885","1204544.81268","1205311.33858","1206079.24648","1206846.23304","1207613.73963","1193770.18278","1206855.5357","Mapping"
"Mixed","Male","done","41","M_done.wav","None","723.300663289","204","1202242.95236","1194537.68381","1195304.50528","1196071.89098","1196822.31277","1197589.44403","1198356.82324","1199123.8735","1203010.31983","1203777.36885","1204544.81268","1205311.33858","1206079.24648","1206846.23304","1207613.73963","1208381.5489","1207622.92017","Mapping"
"Mixed","Male","done","41","M_cling.wav","None","719.974598382","204","1202242.95236","1209131.15633","1195304.50528","1196071.89098","1196822.31277","1197589.44403","1198356.82324","1199123.8735","1203010.31983","1203777.36885","1204544.81268","1205311.33858","1206079.24648","1206846.23304","1207613.73963","1208381.5489","1208390.89082","Mapping"
"Mixed","Male","done","41","F_reek.wav","space","0.0234968028963","204","1202242.95236","1209131.15633","1209898.70281","1196071.89098","1196822.31277","1197589.44403","1198356.82324","1199123.8735","1203010.31983","1203777.36885","1204544.81268","1205311.33858","1206079.24648","1206846.23304","1207613.73963","1208381.5489","1209139.98008","Mapping"
"Mixed","Male","done","41","M_done.wav","None","731.193188112","204","1202242.95236","1209131.15633","1209898.70281","1210665.71875","1196822.31277","1197589.44403","1198356.82324","1199123.8735","1203010.31983","1203777.36885","1204544.81268","1205311.33858","1206079.24648","1206846.23304","1207613.73963","1208381.5489","1209907.98475","Mapping"
"Mixed","Male","done","41","F_dime.wav","space","576.367936097","204","1202242.95236","1209131.15633","1209898.70281","1210665.71875","1211433.13754","1197589.44403","1198356.82324","1199123.8735","1203010.31983","1203777.36885","1204544.81268","1205311.33858","1206079.24648","1206846.23304","1207613.73963","1208381.5489","1210674.75706","Mapping"
"Mixed","Male","done","41","M_depth.wav","None","725.490523502","204","1202242.95236","1209131.15633","1209898.70281","1210665.71875","1211433.13754","1212200.38999","1198356.82324","1199123.8735","1203010.31983","1203777.36885","1204544.81268","1205311.33858","1206079.24648","1206846.23304","1207613.73963","1208381.5489","1211442.13226","Mapping"
"Mixed","Male","done","41","M_done.wav","None","722.506711259","204","1202242.95236","1209131.15633","1209898.70281","1210665.71875","1211433.13754","1212200.38999","1212967.56329","1199123.8735","1203010.31983","1203777.36885","1204544.81268","1205311.33858","1206079.24648","1206846.23304","1207613.73963","1208381.5489","1212209.79591","Mapping"
"Mixed","Male","done","41","F_depth.wav","space","513.842989691","204","1202242.95236","1209131.15633","1209898.70281","1210665.71875","1211433.13754","1212200.38999","1212967.56329","1213718.07567","1203010.31983","1203777.36885","1204544.81268","1205311.33858","1206079.24648","1206846.23304","1207613.73963","1208381.5489","1212977.15255","Mapping"
"Mixed","Male","tile","25","M_romp.wav","None","733.860099223","204","1216854.07332","1209131.15633","1209898.70281","1210665.71875","1211433.13754","1212200.38999","1212967.56329","1213718.07567","1203010.31983","1203777.36885","1204544.81268","1205311.33858","1206079.24648","1206846.23304","1207613.73963","1208381.5489","1213727.32391","Mapping"
"Mixed","Male","tile","25","M_jaw.wav","None","720.413003117","204","1216854.07332","1209131.15633","1209898.70281","1210665.71875","1211433.13754","1212200.38999","1212967.56329","1213718.07567","1217604.29909","1203777.36885","1204544.81268","1205311.33858","1206079.24648","1206846.23304","1207613.73963","1208381.5489","1216863.10885","Mapping"
"Mixed","Male","tile","25","F_park.wav","None","734.859959222","204","1216854.07332","1209131.15633","1209898.70281","1210665.71875","1211433.13754","1212200.38999","1212967.56329","1213718.07567","1217604.29909","1218371.21547","1204544.81268","1205311.33858","1206079.24648","1206846.23304","1207613.73963","1208381.5489","1217613.65585","Mapping"
"Mixed","Male","tile","25","M_gnash.wav","None","732.950826641","204","1216854.07332","1209131.15633","1209898.70281","1210665.71875","1211433.13754","1212200.38999","1212967.56329","1213718.07567","1217604.29909","1218371.21547","1219138.98239","1205311.33858","1206079.24648","1206846.23304","1207613.73963","1208381.5489","1218380.33293","Mapping"
"Mixed","Male","tile","25","F_jolt.wav","None","733.155807015","204","1216854.07332","1209131.15633","1209898.70281","1210665.71875","1211433.13754","1212200.38999","1212967.56329","1213718.07567","1217604.29909","1218371.21547","1219138.98239","1219905.91114","1206079.24648","1206846.23304","1207613.73963","1208381.5489","1219148.00957","Mapping"
"Mixed","Male","tile","25","F_lash.wav","None","731.450418476","204","1216854.07332","1209131.15633","1209898.70281","1210665.71875","1211433.13754","1212200.38999","1212967.56329","1213718.07567","1217604.29909","1218371.21547","1219138.98239","1219905.91114","1220673.46411","1206846.23304","1207613.73963","1208381.5489","1219915.00789","Mapping"
"Mixed","Male","tile","25","M_tile.wav","None","728.552246466","204","1216854.07332","1209131.15633","1209898.70281","1210665.71875","1211433.13754","1212200.38999","1212967.56329","1213718.07567","1217604.29909","1218371.21547","1219138.98239","1219905.91114","1220673.46411","1221440.51498","1207613.73963","1208381.5489","1220682.56085","Mapping"
"Mixed","Male","tile","25","F_depth.wav","space","504.856926389","204","1216854.07332","1209131.15633","1209898.70281","1210665.71875","1211433.13754","1212200.38999","1212967.56329","1213718.07567","1217604.29909","1218371.21547","1219138.98239","1219905.91114","1220673.46411","1221440.51498","1222207.8608","1208381.5489","1221449.99819","Mapping"
"Mixed","Male","tile","25","M_tile.wav","None","728.288214188","204","1216854.07332","1209131.15633","1209898.70281","1210665.71875","1211433.13754","1212200.38999","1212967.56329","1213718.07567","1217604.29909","1218371.21547","1219138.98239","1219905.91114","1220673.46411","1221440.51498","1222207.8608","1222974.92003","1222211.42431","Mapping"
"Mixed","Male","tile","25","M_depth.wav","space","610.827240162","204","1216854.07332","1223725.35047","1209898.70281","1210665.71875","1211433.13754","1212200.38999","1212967.56329","1213718.07567","1217604.29909","1218371.21547","1219138.98239","1219905.91114","1220673.46411","1221440.51498","1222207.8608","1222974.92003","1222983.95587","Mapping"
"Mixed","Male","tile","25","F_romp.wav","None","733.962126076","204","1216854.07332","1223725.35047","1224492.83604","1210665.71875","1211433.13754","1212200.38999","1212967.56329","1213718.07567","1217604.29909","1218371.21547","1219138.98239","1219905.91114","1220673.46411","1221440.51498","1222207.8608","1222974.92003","1223734.86491","Mapping"
"Mixed","Male","tile","25","M_tile.wav","None","731.993013993","204","1216854.07332","1223725.35047","1224492.83604","1225260.00934","1211433.13754","1212200.38999","1212967.56329","1213718.07567","1217604.29909","1218371.21547","1219138.98239","1219905.91114","1220673.46411","1221440.51498","1222207.8608","1222974.92003","1224501.9266","Mapping"
"Mixed","Male","tile","25","F_cave.wav","space","661.251222249","204","1216854.07332","1223725.35047","1224492.83604","1225260.00934","1226027.25901","1212200.38999","1212967.56329","1213718.07567","1217604.29909","1218371.21547","1219138.98239","1219905.91114","1220673.46411","1221440.51498","1222207.8608","1222974.92003","1225269.47864","Mapping"
"Mixed","Male","tile","25","F_dime.wav","None","725.681591313","204","1216854.07332","1223725.35047","1224492.83604","1225260.00934","1226027.25901","1226794.29257","1212967.56329","1213718.07567","1217604.29909","1218371.21547","1219138.98239","1219905.91114","1220673.46411","1221440.51498","1222207.8608","1222974.92003","1226036.85662","Mapping"
"Mixed","Male","tile","25","M_tile.wav","None","723.937246948","204","1216854.07332","1223725.35047","1224492.83604","1225260.00934","1226027.25901","1226794.29257","1227561.73146","1213718.07567","1217604.29909","1218371.21547","1219138.98239","1219905.91114","1220673.46411","1221440.51498","1222207.8608","1222974.92003","1226803.56555","Mapping"
"Mixed","Male","tile","25","F_greet.wav","space","479.455722496","204","1216854.07332","1223725.35047","1224492.83604","1225260.00934","1226027.25901","1226794.29257","1227561.73146","1228312.33844","1217604.29909","1218371.21547","1219138.98239","1219905.91114","1220673.46411","1221440.51498","1222207.8608","1222974.92003","1227571.17571","Mapping"
"Mixed","Female","ball","10","M_romp.wav","None","734.445669688","204","1231448.03434","1223725.35047","1224492.83604","1225260.00934","1226027.25901","1226794.29257","1227561.73146","1228312.33844","1217604.29909","1218371.21547","1219138.98239","1219905.91114","1220673.46411","1221440.51498","1222207.8608","1222974.92003","1228321.82907","Mapping"
"Mixed","Female","ball","10","F_cling.wav","None","719.781057443","204","1231448.03434","1223725.35047","1224492.83604","1225260.00934","1226027.25901","1226794.29257","1227561.73146","1228312.33844","1232198.63049","1218371.21547","1219138.98239","1219905.91114","1220673.46411","1221440.51498","1222207.8608","1222974.92003","1231457.33081","Mapping"
"Mixed","Female","ball","10","F_ball.wav","None","734.254292678","204","1231448.03434","1223725.35047","1224492.83604","1225260.00934","1226027.25901","1226794.29257","1227561.73146","1228312.33844","1232198.63049","1232965.5846","1219138.98239","1219905.91114","1220673.46411","1221440.51498","1222207.8608","1222974.92003","1232207.61841","Mapping"
"Mixed","Female","ball","10","M_greet.wav","space","524.209193885","204","1231448.03434","1223725.35047","1224492.83604","1225260.00934","1226027.25901","1226794.29257","1227561.73146","1228312.33844","1232198.63049","1232965.5846","1233733.1725","1219905.91114","1220673.46411","1221440.51498","1222207.8608","1222974.92003","1232974.31343","Mapping"
"Mixed","Female","ball","10","M_priest.wav","None","727.790758014","204","1231448.03434","1223725.35047","1224492.83604","1225260.00934","1226027.25901","1226794.29257","1227561.73146","1228312.33844","1232198.63049","1232965.5846","1233733.1725","1234500.23358","1220673.46411","1221440.51498","1222207.8608","1222974.92003","1233742.55369","Mapping"
"Mixed","Female","ball","10","F_lash.wav","None","725.639853161","204","1231448.03434","1223725.35047","1224492.83604","1225260.00934","1226027.25901","1226794.29257","1227561.73146","1228312.33844","1232198.63049","1232965.5846","1233733.1725","1234500.23358","1235267.63382","1221440.51498","1222207.8608","1222974.92003","1234509.43792","Mapping"
"Mixed","Female","ball","10","M_park.wav","None","723.03353902","204","1231448.03434","1223725.35047","1224492.83604","1225260.00934","1226027.25901","1226794.29257","1227561.73146","1228312.33844","1232198.63049","1232965.5846","1233733.1725","1234500.23358","1235267.63382","1236034.59101","1222207.8608","1222974.92003","1235276.89257","Mapping"
"Mixed","Female","ball","10","F_dime.wav","None","721.211592667","204","1231448.03434","1223725.35047","1224492.83604","1225260.00934","1226027.25901","1226794.29257","1227561.73146","1228312.33844","1232198.63049","1232965.5846","1233733.1725","1234500.23358","1235267.63382","1236034.59101","1236801.39517","1222974.92003","1236043.62036","Mapping"
"Mixed","Female","ball","10","F_ball.wav","None","721.195516177","204","1231448.03434","1223725.35047","1224492.83604","1225260.00934","1226027.25901","1226794.29257","1227561.73146","1228312.33844","1232198.63049","1232965.5846","1233733.1725","1234500.23358","1235267.63382","1236034.59101","1236801.39517","1237551.87662","1236810.28106","Mapping"
"Mixed","Female","ball","10","M_depth.wav","space","589.218022302","204","1231448.03434","1238319.48957","1224492.83604","1225260.00934","1226027.25901","1226794.29257","1227561.73146","1228312.33844","1232198.63049","1232965.5846","1233733.1725","1234500.23358","1235267.63382","1236034.59101","1236801.39517","1237551.87662","1237557.24384","Mapping"
"Mixed","Female","ball","10","F_ball.wav","None","732.266012114","204","1231448.03434","1238319.48957","1239086.69472","1225260.00934","1226027.25901","1226794.29257","1227561.73146","1228312.33844","1232198.63049","1232965.5846","1233733.1725","1234500.23358","1235267.63382","1236034.59101","1236801.39517","1237551.87662","1238328.59034","Mapping"
"Mixed","Female","ball","10","M_tile.wav","None","730.240631383","204","1231448.03434","1238319.48957","1239086.69472","1239854.07826","1226027.25901","1226794.29257","1227561.73146","1228312.33844","1232198.63049","1232965.5846","1233733.1725","1234500.23358","1235267.63382","1236034.59101","1236801.39517","1237551.87662","1239095.4724","Mapping"
"Mixed","Female","ball","10","M_reek.wav","space","195.145516191","204","1231448.03434","1238319.48957","1239086.69472","1239854.07826","1240621.40708","1226794.29257","1227561.73146","1228312.33844","1232198.63049","1232965.5846","1233733.1725","1234500.23358","1235267.63382","1236034.59101","1236801.39517","1237551.87662","1239863.23777","Mapping"
"Mixed","Female","ball","10","F_ball.wav","None","724.142536521","204","1231448.03434","1238319.48957","1239086.69472","1239854.07826","1240621.40708","1241388.39674","1227561.73146","1228312.33844","1232198.63049","1232965.5846","1233733.1725","1234500.23358","1235267.63382","1236034.59101","1236801.39517","1237551.87662","1240630.45467","Mapping"
"Mixed","Female","ball","10","M_bluff.wav","space","548.79171215","204","1231448.03434","1238319.48957","1239086.69472","1239854.07826","1240621.40708","1241388.39674","1242139.00217","1228312.33844","1232198.63049","1232965.5846","1233733.1725","1234500.23358","1235267.63382","1236034.59101","1236801.39517","1237551.87662","1241397.52131","Mapping"
"Mixed","Female","ball","10","F_cling.wav","None","735.26188219","204","1231448.03434","1238319.48957","1239086.69472","1239854.07826","1240621.40708","1241388.39674","1242139.00217","1242906.38324","1232198.63049","1232965.5846","1233733.1725","1234500.23358","1235267.63382","1236034.59101","1236801.39517","1237551.87662","1242148.06089","Mapping"
"Mixed","Male","cave","15","F_reek.wav","None","732.702252921","204","1246041.87416","1238319.48957","1239086.69472","1239854.07826","1240621.40708","1241388.39674","1242139.00217","1242906.38324","1232198.63049","1232965.5846","1233733.1725","1234500.23358","1235267.63382","1236034.59101","1236801.39517","1237551.87662","1242915.47783","Mapping"
"Mixed","Male","cave","15","M_cave.wav","None","720.751855057","204","1246041.87416","1238319.48957","1239086.69472","1239854.07826","1240621.40708","1241388.39674","1242139.00217","1242906.38324","1246792.60512","1232965.5846","1233733.1725","1234500.23358","1235267.63382","1236034.59101","1236801.39517","1237551.87662","1246051.06057","Mapping"
"Mixed","Male","cave","15","F_jolt.wav","space","479.87001203","204","1246041.87416","1238319.48957","1239086.69472","1239854.07826","1240621.40708","1241388.39674","1242139.00217","1242906.38324","1246792.60512","1247559.8888","1233733.1725","1234500.23358","1235267.63382","1236034.59101","1236801.39517","1237551.87662","1246802.33721","Mapping"
"Mixed","Male","cave","15","M_cling.wav","None","731.440524571","204","1246041.87416","1238319.48957","1239086.69472","1239854.07826","1240621.40708","1241388.39674","1242139.00217","1242906.38324","1246792.60512","1247559.8888","1248326.80054","1234500.23358","1235267.63382","1236034.59101","1236801.39517","1237551.87662","1247568.92495","Mapping"
"Mixed","Male","cave","15","M_cave.wav","None","729.375570081","204","1246041.87416","1238319.48957","1239086.69472","1239854.07826","1240621.40708","1241388.39674","1242139.00217","1242906.38324","1246792.60512","1247559.8888","1248326.80054","1249094.16986","1235267.63382","1236034.59101","1236801.39517","1237551.87662","1248335.92883","Mapping"
"Mixed","Male","cave","15","M_knife.wav","space","467.113913968","204","1246041.87416","1238319.48957","1239086.69472","1239854.07826","1240621.40708","1241388.39674","1242139.00217","1242906.38324","1246792.60512","1247559.8888","1248326.80054","1249094.16986","1249861.67058","1236034.59101","1236801.39517","1237551.87662","1249103.04895","Mapping"
"Mixed","Male","cave","15","M_cave.wav","None","722.626669798","204","1246041.87416","1238319.48957","1239086.69472","1239854.07826","1240621.40708","1241388.39674","1242139.00217","1242906.38324","1246792.60512","1247559.8888","1248326.80054","1249094.16986","1249861.67058","1250628.78855","1236801.39517","1237551.87662","1249871.30869","Mapping"
"Mixed","Male","cave","15","F_tile.wav","space","636.430642102","204","1246041.87416","1238319.48957","1239086.69472","1239854.07826","1240621.40708","1241388.39674","1242139.00217","1242906.38324","1246792.60512","1247559.8888","1248326.80054","1249094.16986","1249861.67058","1250628.78855","1251379.24187","1237551.87662","1250637.67908","Mapping"
"Mixed","Male","cave","15","F_ball.wav","None","734.233578201","204","1246041.87416","1238319.48957","1239086.69472","1239854.07826","1240621.40708","1241388.39674","1242139.00217","1242906.38324","1246792.60512","1247559.8888","1248326.80054","1249094.16986","1249861.67058","1250628.78855","1251379.24187","1252146.22689","1251388.27029","Mapping"
"Mixed","Male","cave","15","F_gnash.wav","None","732.200777158","204","1246041.87416","1252913.77398","1239086.69472","1239854.07826","1240621.40708","1241388.39674","1242139.00217","1242906.38324","1246792.60512","1247559.8888","1248326.80054","1249094.16986","1249861.67058","1250628.78855","1251379.24187","1252146.22689","1252155.20924","Mapping"
"Mixed","Male","cave","15","F_reek.wav","None","728.53153199","204","1246041.87416","1252913.77398","1253681.10775","1239854.07826","1240621.40708","1241388.39674","1242139.00217","1242906.38324","1246792.60512","1247559.8888","1248326.80054","1249094.16986","1249861.67058","1250628.78855","1251379.24187","1252146.22689","1252923.78","Mapping"
"Mixed","Male","cave","15","M_priest.wav","None","727.291446179","204","1246041.87416","1252913.77398","1253681.10775","1254448.14595","1240621.40708","1241388.39674","1242139.00217","1242906.38324","1246792.60512","1247559.8888","1248326.80054","1249094.16986","1249861.67058","1250628.78855","1251379.24187","1252146.22689","1253690.10463","Mapping"
"Mixed","Male","cave","15","F_done.wav","None","725.141778123","204","1246041.87416","1252913.77398","1253681.10775","1254448.14595","1255215.54618","1241388.39674","1242139.00217","1242906.38324","1246792.60512","1247559.8888","1248326.80054","1249094.16986","1249861.67058","1250628.78855","1251379.24187","1252146.22689","1254457.20065","Mapping"
"Mixed","Male","cave","15","M_reek.wav","None","722.170332912","204","1246041.87416","1252913.77398","1253681.10775","1254448.14595","1255215.54618","1255982.71732","1242139.00217","1242906.38324","1246792.60512","1247559.8888","1248326.80054","1249094.16986","1249861.67058","1250628.78855","1251379.24187","1252146.22689","1255225.1679","Mapping"
"Mixed","Male","cave","15","M_cave.wav","None","719.352855347","204","1246041.87416","1252913.77398","1253681.10775","1254448.14595","1255215.54618","1255982.71732","1256732.63424","1242906.38324","1246792.60512","1247559.8888","1248326.80054","1249094.16986","1249861.67058","1250628.78855","1251379.24187","1252146.22689","1255992.78147","Mapping"
"Mixed","Male","cave","15","F_bluff.wav","space","500.401768368","204","1246041.87416","1252913.77398","1253681.10775","1254448.14595","1255215.54618","1255982.71732","1256732.63424","1257500.48988","1246792.60512","1247559.8888","1248326.80054","1249094.16986","1249861.67058","1250628.78855","1251379.24187","1252146.22689","1256741.61566","Mapping"
"Mixed","Male","ball","1","F_knife.wav","None","730.657703243","204","1260635.99347","1252913.77398","1253681.10775","1254448.14595","1255215.54618","1255982.71732","1256732.63424","1257500.48988","1246792.60512","1247559.8888","1248326.80054","1249094.16986","1249861.67058","1250628.78855","1251379.24187","1252146.22689","1257509.96134","Mapping"
"Mixed","Male","ball","1","M_ball.wav","None","720.52492341","204","1260635.99347","1252913.77398","1253681.10775","1254448.14595","1255215.54618","1255982.71732","1256732.63424","1257500.48988","1261386.54295","1247559.8888","1248326.80054","1249094.16986","1249861.67058","1250628.78855","1251379.24187","1252146.22689","1260644.94306","Mapping"
"Mixed","Male","ball","1","F_cave.wav","space","395.894762129","204","1260635.99347","1252913.77398","1253681.10775","1254448.14595","1255215.54618","1255982.71732","1256732.63424","1257500.48988","1261386.54295","1262153.83343","1248326.80054","1249094.16986","1249861.67058","1250628.78855","1251379.24187","1252146.22689","1261397.986","Mapping"
"Mixed","Male","ball","1","M_dime.wav","None","729.67020981","204","1260635.99347","1252913.77398","1253681.10775","1254448.14595","1255215.54618","1255982.71732","1256732.63424","1257500.48988","1261386.54295","1262153.83343","1262921.27602","1249094.16986","1249861.67058","1250628.78855","1251379.24187","1252146.22689","1262164.5051","Mapping"
"Mixed","Male","ball","1","F_depth.wav","None","728.492576629","204","1260635.99347","1252913.77398","1253681.10775","1254448.14595","1255215.54618","1255982.71732","1256732.63424","1257500.48988","1261386.54295","1262153.83343","1262921.27602","1263687.99299","1249861.67058","1250628.78855","1251379.24187","1252146.22689","1262930.60496","Mapping"
"Mixed","Male","ball","1","M_ball.wav","None","727.57742973","204","1260635.99347","1252913.77398","1253681.10775","1254448.14595","1255215.54618","1255982.71732","1256732.63424","1257500.48988","1261386.54295","1262153.83343","1262921.27602","1263687.99299","1264455.43311","1250628.78855","1251379.24187","1252146.22689","1263696.83622","Mapping"
"Mixed","Male","ball","1","M_depth.wav","space","449.739724398","204","1260635.99347","1252913.77398","1253681.10775","1254448.14595","1255215.54618","1255982.71732","1256732.63424","1257500.48988","1261386.54295","1262153.83343","1262921.27602","1263687.99299","1264455.43311","1265222.82562","1251379.24187","1252146.22689","1264464.0525","Mapping"
"Mixed","Male","ball","1","M_ball.wav","None","721.850649454","204","1260635.99347","1252913.77398","1253681.10775","1254448.14595","1255215.54618","1255982.71732","1256732.63424","1257500.48988","1261386.54295","1262153.83343","1262921.27602","1263687.99299","1264455.43311","1265222.82562","1265973.17413","1252146.22689","1265231.51364","Mapping"
"Mixed","Male","ball","1","M_cling.wav","space","475.263050757","204","1260635.99347","1252913.77398","1253681.10775","1254448.14595","1255215.54618","1255982.71732","1256732.63424","1257500.48988","1261386.54295","1262153.83343","1262921.27602","1263687.99299","1264455.43311","1265222.82562","1265973.17413","1266740.85912","1265982.51575","Mapping"
"Mixed","Male","ball","1","F_done.wav","None","731.680750847","204","1260635.99347","1267507.75293","1253681.10775","1254448.14595","1255215.54618","1255982.71732","1256732.63424","1257500.48988","1261386.54295","1262153.83343","1262921.27602","1263687.99299","1264455.43311","1265222.82562","1265973.17413","1266740.85912","1266750.38067","Mapping"
"Mixed","Male","ball","1","F_tile.wav","None","730.353169143","204","1260635.99347","1267507.75293","1268275.00693","1254448.14595","1255215.54618","1255982.71732","1256732.63424","1257500.48988","1261386.54295","1262153.83343","1262921.27602","1263687.99299","1264455.43311","1265222.82562","1265973.17413","1266740.85912","1267516.78754","Mapping"
"Mixed","Male","ball","1","M_ball.wav","None","733.603177592","204","1260635.99347","1267507.75293","1268275.00693","1269042.0844","1255215.54618","1255982.71732","1256732.63424","1257500.48988","1261386.54295","1262153.83343","1262921.27602","1263687.99299","1264455.43311","1265222.82562","1265973.17413","1266740.85912","1268278.86725","Mapping"
"Mixed","Male","ball","1","M_depth.wav","space","429.302265402","204","1260635.99347","1267507.75293","1268275.00693","1269042.0844","1269809.7431","1255982.71732","1256732.63424","1257500.48988","1261386.54295","1262153.83343","1262921.27602","1263687.99299","1264455.43311","1265222.82562","1265973.17413","1266740.85912","1269051.44487","Mapping"
"Mixed","Male","ball","1","F_lash.wav","None","722.477648873","204","1260635.99347","1267507.75293","1268275.00693","1269042.0844","1269809.7431","1270576.66845","1256732.63424","1257500.48988","1261386.54295","1262153.83343","1262921.27602","1263687.99299","1264455.43311","1265222.82562","1265973.17413","1266740.85912","1269819.1586","Mapping"
"Mixed","Male","ball","1","F_done.wav","None","720.97847797","204","1260635.99347","1267507.75293","1268275.00693","1269042.0844","1269809.7431","1270576.66845","1271327.24575","1257500.48988","1261386.54295","1262153.83343","1262921.27602","1263687.99299","1264455.43311","1265222.82562","1265973.17413","1266740.85912","1270585.81034","Mapping"
"Mixed","Male","ball","1","F_jolt.wav","None","735.288161784","204","1260635.99347","1267507.75293","1268275.00693","1269042.0844","1269809.7431","1270576.66845","1271327.24575","1272094.33991","1261386.54295","1262153.83343","1262921.27602","1263687.99299","1264455.43311","1265222.82562","1265973.17413","1266740.85912","1271336.4943","Mapping"
"Mixed","Female","tile","32","F_park.wav","None","733.319358435","204","1275230.16906","1267507.75293","1268275.00693","1269042.0844","1269809.7431","1270576.66845","1271327.24575","1272094.33991","1261386.54295","1262153.83343","1262921.27602","1263687.99299","1264455.43311","1265222.82562","1265973.17413","1266740.85912","1272103.48983","Mapping"
"Mixed","Female","tile","32","M_jaw.wav","None","720.587684773","204","1275230.16906","1267507.75293","1268275.00693","1269042.0844","1269809.7431","1270576.66845","1271327.24575","1272094.33991","1275980.63166","1262153.83343","1262921.27602","1263687.99299","1264455.43311","1265222.82562","1265973.17413","1266740.85912","1275239.27972","Mapping"
"Mixed","Female","tile","32","F_tile.wav","None","735.159546603","204","1275230.16906","1267507.75293","1268275.00693","1269042.0844","1269809.7431","1270576.66845","1271327.24575","1272094.33991","1275980.63166","1276748.13887","1262921.27602","1263687.99299","1264455.43311","1265222.82562","1265973.17413","1266740.85912","1275989.67955","Mapping"
"Mixed","Female","tile","32","M_romp.wav","space","435.908637475","204","1275230.16906","1267507.75293","1268275.00693","1269042.0844","1269809.7431","1270576.66845","1271327.24575","1272094.33991","1275980.63166","1276748.13887","1277515.13223","1263687.99299","1264455.43311","1265222.82562","1265973.17413","1266740.85912","1276757.56766","Mapping"
"Mixed","Female","tile","32","M_jaw.wav","None","728.992197197","204","1275230.16906","1267507.75293","1268275.00693","1269042.0844","1269809.7431","1270576.66845","1271327.24575","1272094.33991","1275980.63166","1276748.13887","1277515.13223","1278282.75322","1264455.43311","1265222.82562","1265973.17413","1266740.85912","1277525.10641","Mapping"
"Mixed","Female","tile","32","F_tile.wav","None","726.969907992","204","1275230.16906","1267507.75293","1268275.00693","1269042.0844","1269809.7431","1270576.66845","1271327.24575","1272094.33991","1275980.63166","1276748.13887","1277515.13223","1278282.75322","1279049.86686","1265222.82562","1265973.17413","1266740.85912","1278292.17058","Mapping"
"Mixed","Female","tile","32","M_cling.wav","space","486.344058532","204","1275230.16906","1267507.75293","1268275.00693","1269042.0844","1269809.7431","1270576.66845","1271327.24575","1272094.33991","1275980.63166","1276748.13887","1277515.13223","1278282.75322","1279049.86686","1279817.09458","1265973.17413","1266740.85912","1279059.10768","Mapping"
"Mixed","Female","tile","32","F_knife.wav","None","721.757280175","204","1275230.16906","1267507.75293","1268275.00693","1269042.0844","1269809.7431","1270576.66845","1271327.24575","1272094.33991","1275980.63166","1276748.13887","1277515.13223","1278282.75322","1279049.86686","1279817.09458","1280567.50554","1266740.85912","1279826.42475","Mapping"
"Mixed","Female","tile","32","F_tile.wav","None","736.268543638","204","1275230.16906","1267507.75293","1268275.00693","1269042.0844","1269809.7431","1270576.66845","1271327.24575","1272094.33991","1275980.63166","1276748.13887","1277515.13223","1278282.75322","1279049.86686","1279817.09458","1280567.50554","1281334.62381","1280577.0376","Mapping"
"Mixed","Female","tile","32","M_park.wav","space","521.504563279","204","1275230.16906","1282101.96407","1268275.00693","1269042.0844","1269809.7431","1270576.66845","1271327.24575","1272094.33991","1275980.63166","1276748.13887","1277515.13223","1278282.75322","1279049.86686","1279817.09458","1280567.50554","1281334.62381","1281343.85969","Mapping"
"Mixed","Female","tile","32","M_lash.wav","None","731.441761367","204","1275230.16906","1282101.96407","1282869.53281","1269042.0844","1269809.7431","1270576.66845","1271327.24575","1272094.33991","1275980.63166","1276748.13887","1277515.13223","1278282.75322","1279049.86686","1279817.09458","1280567.50554","1281334.62381","1282111.05402","Mapping"
"Mixed","Female","tile","32","F_jolt.wav","None","728.676533327","204","1275230.16906","1282101.96407","1282869.53281","1283636.38056","1269809.7431","1270576.66845","1271327.24575","1272094.33991","1275980.63166","1276748.13887","1277515.13223","1278282.75322","1279049.86686","1279817.09458","1280567.50554","1281334.62381","1282879.01015","Mapping"
"Mixed","Female","tile","32","M_knife.wav","None","726.991240866","204","1275230.16906","1282101.96407","1282869.53281","1283636.38056","1284403.59436","1270576.66845","1271327.24575","1272094.33991","1275980.63166","1276748.13887","1277515.13223","1278282.75322","1279049.86686","1279817.09458","1280567.50554","1281334.62381","1283645.91045","Mapping"
"Mixed","Female","tile","32","F_tile.wav","None","725.067576859","204","1275230.16906","1282101.96407","1282869.53281","1283636.38056","1284403.59436","1285170.85671","1271327.24575","1272094.33991","1275980.63166","1276748.13887","1277515.13223","1278282.75322","1279049.86686","1279817.09458","1280567.50554","1281334.62381","1284413.08747","Mapping"
"Mixed","Female","tile","32","F_knife.wav","space","541.332955007","204","1275230.16906","1282101.96407","1282869.53281","1283636.38056","1284403.59436","1285170.85671","1285938.38804","1272094.33991","1275980.63166","1276748.13887","1277515.13223","1278282.75322","1279049.86686","1279817.09458","1280567.50554","1281334.62381","1285179.98128","Mapping"
"Mixed","Female","tile","32","M_lash.wav","None","720.752782654","204","1275230.16906","1282101.96407","1282869.53281","1283636.38056","1284403.59436","1285170.85671","1285938.38804","1286688.56125","1275980.63166","1276748.13887","1277515.13223","1278282.75322","1279049.86686","1279817.09458","1280567.50554","1281334.62381","1285947.1246","Mapping"
"Mixed","Male","done","38","F_depth.wav","None","734.52048935","204","1289824.2757","1282101.96407","1282869.53281","1283636.38056","1284403.59436","1285170.85671","1285938.38804","1286688.56125","1275980.63166","1276748.13887","1277515.13223","1278282.75322","1279049.86686","1279817.09458","1280567.50554","1281334.62381","1286698.42134","Mapping"
"Mixed","Male","done","38","F_gnash.wav","None","720.389815513","204","1289824.2757","1282101.96407","1282869.53281","1283636.38056","1284403.59436","1285170.85671","1285938.38804","1286688.56125","1290574.62792","1276748.13887","1277515.13223","1278282.75322","1279049.86686","1279817.09458","1280567.50554","1281334.62381","1289833.29391","Mapping"
"Mixed","Male","done","38","M_done.wav","None","734.890876338","204","1289824.2757","1282101.96407","1282869.53281","1283636.38056","1284403.59436","1285170.85671","1285938.38804","1286688.56125","1290574.62792","1291342.19635","1277515.13223","1278282.75322","1279049.86686","1279817.09458","1280567.50554","1281334.62381","1290583.90893","Mapping"
"Mixed","Male","done","38","M_priest.wav","space","465.986675117","204","1289824.2757","1282101.96407","1282869.53281","1283636.38056","1284403.59436","1285170.85671","1285938.38804","1286688.56125","1290574.62792","1291342.19635","1292109.2364","1278282.75322","1279049.86686","1279817.09458","1280567.50554","1281334.62381","1291351.18983","Mapping"
"Mixed","Male","done","38","M_cad.wav","None","729.097933974","204","1289824.2757","1282101.96407","1282869.53281","1283636.38056","1284403.59436","1285170.85671","1285938.38804","1286688.56125","1290574.62792","1291342.19635","1292109.2364","1292876.69414","1279049.86686","1279817.09458","1280567.50554","1281334.62381","1292118.48155","Mapping"
"Mixed","Male","done","38","F_cad.wav","None","726.90838296","204","1289824.2757","1282101.96407","1282869.53281","1283636.38056","1284403.59436","1285170.85671","1285938.38804","1286688.56125","1290574.62792","1291342.19635","1292109.2364","1292876.69414","1293643.64856","1279817.09458","1280567.50554","1281334.62381","1292885.84747","Mapping"
"Mixed","Male","done","38","F_bluff.wav","None","725.156927481","204","1289824.2757","1282101.96407","1282869.53281","1283636.38056","1284403.59436","1285170.85671","1285938.38804","1286688.56125","1290574.62792","1291342.19635","1292109.2364","1292876.69414","1293643.64856","1294411.10661","1280567.50554","1281334.62381","1293652.83651","Mapping"
"Mixed","Male","done","38","F_cave.wav","None","723.004786298","204","1289824.2757","1282101.96407","1282869.53281","1283636.38056","1284403.59436","1285170.85671","1285938.38804","1286688.56125","1290574.62792","1291342.19635","1292109.2364","1292876.69414","1293643.64856","1294411.10661","1295178.65587","1281334.62381","1294420.22067","Mapping"
"Mixed","Male","done","38","F_cad.wav","None","720.899329986","204","1289824.2757","1282101.96407","1282869.53281","1283636.38056","1284403.59436","1285170.85671","1285938.38804","1286688.56125","1290574.62792","1291342.19635","1292109.2364","1292876.69414","1293643.64856","1294411.10661","1295178.65587","1295928.77652","1295188.22317","Mapping"
"Mixed","Male","done","38","M_done.wav","None","736.059544142","204","1289824.2757","1296696.1579","1282869.53281","1283636.38056","1284403.59436","1285170.85671","1285938.38804","1286688.56125","1290574.62792","1291342.19635","1292109.2364","1292876.69414","1293643.64856","1294411.10661","1295178.65587","1295928.77652","1295938.20501","Mapping"
"Mixed","Male","done","38","F_park.wav","space","607.776029035","204","1289824.2757","1296696.1579","1297463.27679","1283636.38056","1284403.59436","1285170.85671","1285938.38804","1286688.56125","1290574.62792","1291342.19635","1292109.2364","1292876.69414","1293643.64856","1294411.10661","1295178.65587","1295928.77652","1296705.18941","Mapping"
"Mixed","Male","done","38","M_done.wav","None","730.724174995","204","1289824.2757","1296696.1579","1297463.27679","1298230.5515","1284403.59436","1285170.85671","1285938.38804","1286688.56125","1290574.62792","1291342.19635","1292109.2364","1292876.69414","1293643.64856","1294411.10661","1295178.65587","1295928.77652","1297472.743","Mapping"
"Mixed","Male","done","38","M_ball.wav","space","504.826009274","204","1289824.2757","1296696.1579","1297463.27679","1298230.5515","1298997.71059","1285170.85671","1285938.38804","1286688.56125","1290574.62792","1291342.19635","1292109.2364","1292876.69414","1293643.64856","1294411.10661","1295178.65587","1295928.77652","1298240.1185","Mapping"
"Mixed","Male","done","38","F_tile.wav","None","725.556995254","204","1289824.2757","1296696.1579","1297463.27679","1298230.5515","1298997.71059","1299765.60148","1285938.38804","1286688.56125","1290574.62792","1291342.19635","1292109.2364","1292876.69414","1293643.64856","1294411.10661","1295178.65587","1295928.77652","1299007.28253","Mapping"
"Mixed","Male","done","38","M_done.wav","None","723.438553512","204","1289824.2757","1296696.1579","1297463.27679","1298230.5515","1298997.71059","1299765.60148","1300531.70072","1286688.56125","1290574.62792","1291342.19635","1292109.2364","1292876.69414","1293643.64856","1294411.10661","1295178.65587","1295928.77652","1299775.11128","Mapping"
"Mixed","Male","done","38","M_cling.wav","space","508.451969828","204","1289824.2757","1296696.1579","1297463.27679","1298230.5515","1298997.71059","1299765.60148","1300531.70072","1301299.50659","1290574.62792","1291342.19635","1292109.2364","1292876.69414","1293643.64856","1294411.10661","1295178.65587","1295928.77652","1300540.46851","Mapping"
"Mixed","Male","tile","27","F_cave.wav","None","721.7359473","204","1304418.49766","1296696.1579","1297463.27679","1298230.5515","1298997.71059","1299765.60148","1300531.70072","1301299.50659","1290574.62792","1291342.19635","1292109.2364","1292876.69414","1293643.64856","1294411.10661","1295178.65587","1295928.77652","1301308.64539","Mapping"
"Mixed","Male","tile","27","M_tile.wav","None","720.729285385","204","1304418.49766","1296696.1579","1297463.27679","1298230.5515","1298997.71059","1299765.60148","1300531.70072","1301299.50659","1305168.66129","1291342.19635","1292109.2364","1292876.69414","1293643.64856","1294411.10661","1295178.65587","1295928.77652","1304427.55328","Mapping"
"Mixed","Male","tile","27","F_done.wav","space","454.626176041","204","1304418.49766","1296696.1579","1297463.27679","1298230.5515","1298997.71059","1299765.60148","1300531.70072","1301299.50659","1305168.66129","1305935.99629","1292109.2364","1292876.69414","1293643.64856","1294411.10661","1295178.65587","1295928.77652","1305178.18593","Mapping"
"Mixed","Male","tile","27","F_reek.wav","None","732.696378604","204","1304418.49766","1296696.1579","1297463.27679","1298230.5515","1298997.71059","1299765.60148","1300531.70072","1301299.50659","1305168.66129","1305935.99629","1306703.47073","1292876.69414","1293643.64856","1294411.10661","1295178.65587","1295928.77652","1305944.76222","Mapping"
"Mixed","Male","tile","27","M_tile.wav","None","729.540358298","204","1304418.49766","1296696.1579","1297463.27679","1298230.5515","1298997.71059","1299765.60148","1300531.70072","1301299.50659","1305168.66129","1305935.99629","1306703.47073","1307470.84994","1293643.64856","1294411.10661","1295178.65587","1295928.77652","1306713.20344","Mapping"
"Mixed","Male","tile","27","M_jaw.wav","space","544.367162045","204","1304418.49766","1296696.1579","1297463.27679","1298230.5515","1298997.71059","1299765.60148","1300531.70072","1301299.50659","1305168.66129","1305935.99629","1306703.47073","1307470.84994","1308237.82259","1294411.10661","1295178.65587","1295928.77652","1307480.37211","Mapping"
"Mixed","Male","tile","27","F_romp.wav","None","724.750676192","204","1304418.49766","1296696.1579","1297463.27679","1298230.5515","1298997.71059","1299765.60148","1300531.70072","1301299.50659","1305168.66129","1305935.99629","1306703.47073","1307470.84994","1308237.82259","1309005.09298","1295178.65587","1295928.77652","1308247.12865","Mapping"
"Mixed","Male","tile","27","M_jolt.wav","None","722.574110609","204","1304418.49766","1296696.1579","1297463.27679","1298230.5515","1298997.71059","1299765.60148","1300531.70072","1301299.50659","1305168.66129","1305935.99629","1306703.47073","1307470.84994","1308237.82259","1309005.09298","1309772.30308","1295928.77652","1309014.75489","Mapping"
"Mixed","Male","tile","27","F_cave.wav","None","721.387820784","204","1304418.49766","1296696.1579","1297463.27679","1298230.5515","1298997.71059","1299765.60148","1300531.70072","1301299.50659","1305168.66129","1305935.99629","1306703.47073","1307470.84994","1308237.82259","1309005.09298","1309772.30308","1310522.94839","1309781.82493","Mapping"
"Mixed","Male","tile","27","M_tile.wav","None","735.968029127","204","1304418.49766","1311290.20208","1297463.27679","1298230.5515","1298997.71059","1299765.60148","1300531.70072","1301299.50659","1305168.66129","1305935.99629","1306703.47073","1307470.84994","1308237.82259","1309005.09298","1309772.30308","1310522.94839","1310532.46407","Mapping"
"Mixed","Male","tile","27","F_greet.wav","space","516.85895538","204","1304418.49766","1311290.20208","1312057.68487","1298230.5515","1298997.71059","1299765.60148","1300531.70072","1301299.50659","1305168.66129","1305935.99629","1306703.47073","1307470.84994","1308237.82259","1309005.09298","1309772.30308","1310522.94839","1311299.82566","Mapping"
"Mixed","Male","tile","27","M_tile.wav","None","730.926373042","204","1304418.49766","1311290.20208","1312057.68487","1312824.69524","1298997.71059","1299765.60148","1300531.70072","1301299.50659","1305168.66129","1305935.99629","1306703.47073","1307470.84994","1308237.82259","1309005.09298","1309772.30308","1310522.94839","1312066.74111","Mapping"
"Mixed","Male","tile","27","F_jaw.wav","space","542.430822272","204","1304418.49766","1311290.20208","1312057.68487","1312824.69524","1313592.18669","1299765.60148","1300531.70072","1301299.50659","1305168.66129","1305935.99629","1306703.47073","1307470.84994","1308237.82259","1309005.09298","1309772.30308","1310522.94839","1312834.17876","Mapping"
"Mixed","Male","tile","27","F_ball.wav","None","725.111788604","204","1304418.49766","1311290.20208","1312057.68487","1312824.69524","1313592.18669","1314359.19427","1300531.70072","1301299.50659","1305168.66129","1305935.99629","1306703.47073","1307470.84994","1308237.82259","1309005.09298","1309772.30308","1310522.94839","1313601.65413","Mapping"
"Mixed","Male","tile","27","M_ball.wav","None","723.859644495","204","1304418.49766","1311290.20208","1312057.68487","1312824.69524","1313592.18669","1314359.19427","1315126.19383","1301299.50659","1305168.66129","1305935.99629","1306703.47073","1307470.84994","1308237.82259","1309005.09298","1309772.30308","1310522.94839","1314368.3544","Mapping"
"Mixed","Male","tile","27","M_reek.wav","None","722.368202638","204","1304418.49766","1311290.20208","1312057.68487","1312824.69524","1313592.18669","1314359.19427","1315126.19383","1315893.74772","1305168.66129","1305935.99629","1306703.47073","1307470.84994","1308237.82259","1309005.09298","1309772.30308","1310522.94839","1315135.3252","Mapping"
"Mixed","Male","done","42","F_jaw.wav","None","719.517334364","204","1319012.63027","1311290.20208","1312057.68487","1312824.69524","1313592.18669","1314359.19427","1315126.19383","1315893.74772","1305168.66129","1305935.99629","1306703.47073","1307470.84994","1308237.82259","1309005.09298","1309772.30308","1310522.94839","1315903.48538","Mapping"
"Mixed","Male","done","42","F_knife.wav","None","719.370787032","204","1319012.63027","1311290.20208","1312057.68487","1312824.69524","1313592.18669","1314359.19427","1315126.19383","1315893.74772","1319762.89097","1305935.99629","1306703.47073","1307470.84994","1308237.82259","1309005.09298","1309772.30308","1310522.94839","1319022.7043","Mapping"
"Mixed","Male","done","42","F_cad.wav","None","734.832134098","204","1319012.63027","1311290.20208","1312057.68487","1312824.69524","1313592.18669","1314359.19427","1315126.19383","1315893.74772","1319762.89097","1320530.59667","1306703.47073","1307470.84994","1308237.82259","1309005.09298","1309772.30308","1310522.94839","1319772.55134","Mapping"
"Mixed","Male","done","42","F_jaw.wav","None","732.678756118","204","1319012.63027","1311290.20208","1312057.68487","1312824.69524","1313592.18669","1314359.19427","1315126.19383","1315893.74772","1319762.89097","1320530.59667","1321297.437","1307470.84994","1308237.82259","1309005.09298","1309772.30308","1310522.94839","1320540.11977","Mapping"
"Mixed","Male","done","42","F_knife.wav","None","731.783395633","204","1319012.63027","1311290.20208","1312057.68487","1312824.69524","1313592.18669","1314359.19427","1315126.19383","1315893.74772","1319762.89097","1320530.59667","1321297.437","1322064.86228","1308237.82259","1309005.09298","1309772.30308","1310522.94839","1321306.4781","Mapping"
"Mixed","Male","done","42","M_done.wav","None","729.595390614","204","1319012.63027","1311290.20208","1312057.68487","1312824.69524","1313592.18669","1314359.19427","1315126.19383","1315893.74772","1319762.89097","1320530.59667","1321297.437","1322064.86228","1322832.02848","1309005.09298","1309772.30308","1310522.94839","1322074.08362","Mapping"
"Mixed","Male","done","42","M_jolt.wav","space","662.887975108","204","1319012.63027","1311290.20208","1312057.68487","1312824.69524","1313592.18669","1314359.19427","1315126.19383","1315893.74772","1319762.89097","1320530.59667","1321297.437","1322064.86228","1322832.02848","1323599.62473","1309772.30308","1310522.94839","1322841.52003","Mapping"
"Mixed","Male","done","42","M_done.wav","None","723.388158251","204","1319012.63027","1311290.20208","1312057.68487","1312824.69524","1313592.18669","1314359.19427","1315126.19383","1315893.74772","1319762.89097","1320530.59667","1321297.437","1322064.86228","1322832.02848","1323599.62473","1324366.49381","1310522.94839","1323609.43906","Mapping"
"Mixed","Male","done","42","M_lash.wav","space","712.775545195","204","1319012.63027","1311290.20208","1312057.68487","1312824.69524","1313592.18669","1314359.19427","1315126.19383","1315893.74772","1319762.89097","1320530.59667","1321297.437","1322064.86228","1322832.02848","1323599.62473","1324366.49381","1325116.8955","1324375.5482","Mapping"
"Mixed","Male","done","42","M_done.wav","None","735.815607477","204","1319012.63027","1325884.07684","1312057.68487","1312824.69524","1313592.18669","1314359.19427","1315126.19383","1315893.74772","1319762.89097","1320530.59667","1321297.437","1322064.86228","1322832.02848","1323599.62473","1324366.49381","1325116.8955","1325125.95515","Mapping"
"Mixed","Male","done","42","M_lash.wav","space","426.946998574","204","1319012.63027","1325884.07684","1326651.32157","1312824.69524","1313592.18669","1314359.19427","1315126.19383","1315893.74772","1319762.89097","1320530.59667","1321297.437","1322064.86228","1322832.02848","1323599.62473","1324366.49381","1325116.8955","1325893.39619","Mapping"
"Mixed","Male","done","42","F_priest.wav","None","730.03843287","204","1319012.63027","1325884.07684","1326651.32157","1327418.85815","1313592.18669","1314359.19427","1315126.19383","1315893.74772","1319762.89097","1320530.59667","1321297.437","1322064.86228","1322832.02848","1323599.62473","1324366.49381","1325116.8955","1326660.59083","Mapping"
"Mixed","Male","done","42","M_done.wav","None","727.931430563","204","1319012.63027","1325884.07684","1326651.32157","1327418.85815","1328185.91737","1314359.19427","1315126.19383","1315893.74772","1319762.89097","1320530.59667","1321297.437","1322064.86228","1322832.02848","1323599.62473","1324366.49381","1325116.8955","1327428.0495","Mapping"
"Mixed","Male","done","42","F_romp.wav","space","669.266487937","204","1319012.63027","1325884.07684","1326651.32157","1327418.85815","1328185.91737","1328952.92032","1315126.19383","1315893.74772","1319762.89097","1320530.59667","1321297.437","1322064.86228","1322832.02848","1323599.62473","1324366.49381","1325116.8955","1328194.98011","Mapping"
"Mixed","Male","done","42","F_gnash.wav","None","723.123198841","204","1319012.63027","1325884.07684","1326651.32157","1327418.85815","1328185.91737","1328952.92032","1329720.2983","1315893.74772","1319762.89097","1320530.59667","1321297.437","1322064.86228","1322832.02848","1323599.62473","1324366.49381","1325116.8955","1328961.94782","Mapping"
"Mixed","Male","done","42","M_ball.wav","None","720.570680685","204","1319012.63027","1325884.07684","1326651.32157","1327418.85815","1328185.91737","1328952.92032","1329720.2983","1330470.84128","1319762.89097","1320530.59667","1321297.437","1322064.86228","1322832.02848","1323599.62473","1324366.49381","1325116.8955","1329729.91786","Mapping"
"Mixed","Female","done","45","M_dime.wav","None","736.203926615","204","1333590.16718","1325884.07684","1326651.32157","1327418.85815","1328185.91737","1328952.92032","1329720.2983","1330470.84128","1319762.89097","1320530.59667","1321297.437","1322064.86228","1322832.02848","1323599.62473","1324366.49381","1325116.8955","1330479.84095","Mapping"
"Mixed","Female","done","45","F_done.wav","None","734.387855045","204","1333590.16718","1325884.07684","1326651.32157","1327418.85815","1328185.91737","1328952.92032","1329720.2983","1330470.84128","1334357.16086","1320530.59667","1321297.437","1322064.86228","1322832.02848","1323599.62473","1324366.49381","1325116.8955","1333601.29642","Mapping"
"Mixed","Female","done","45","F_jaw.wav","space","391.848637257","204","1333590.16718","1325884.07684","1326651.32157","1327418.85815","1328185.91737","1328952.92032","1329720.2983","1330470.84128","1334357.16086","1335123.96223","1321297.437","1322064.86228","1322832.02848","1323599.62473","1324366.49381","1325116.8955","1334368.27278","Mapping"
"Mixed","Female","done","45","F_done.wav","None","732.962266076","204","1333590.16718","1325884.07684","1326651.32157","1327418.85815","1328185.91737","1328952.92032","1329720.2983","1330470.84128","1334357.16086","1335123.96223","1335891.67133","1322064.86228","1322832.02848","1323599.62473","1324366.49381","1325116.8955","1335132.72538","Mapping"
"Mixed","Female","done","45","M_gnash.wav","space","378.910437226","204","1333590.16718","1325884.07684","1326651.32157","1327418.85815","1328185.91737","1328952.92032","1329720.2983","1330470.84128","1334357.16086","1335123.96223","1335891.67133","1336658.46497","1322832.02848","1323599.62473","1324366.49381","1325116.8955","1335901.18298","Mapping"
"Mixed","Female","done","45","F_priest.wav","None","727.5644443","204","1333590.16718","1325884.07684","1326651.32157","1327418.85815","1328185.91737","1328952.92032","1329720.2983","1330470.84128","1334357.16086","1335123.96223","1335891.67133","1336658.46497","1337426.08101","1323599.62473","1324366.49381","1325116.8955","1336667.75619","Mapping"
"Mixed","Female","done","45","F_priest.wav","None","725.593477488","204","1333590.16718","1325884.07684","1326651.32157","1327418.85815","1328185.91737","1328952.92032","1329720.2983","1330470.84128","1334357.16086","1335123.96223","1335891.67133","1336658.46497","1337426.08101","1338193.39375","1324366.49381","1325116.8955","1337435.23248","Mapping"
"Mixed","Female","done","45","F_done.wav","None","722.021621652","204","1333590.16718","1325884.07684","1326651.32157","1327418.85815","1328185.91737","1328952.92032","1329720.2983","1330470.84128","1334357.16086","1335123.96223","1335891.67133","1336658.46497","1337426.08101","1338193.39375","1338960.61189","1325116.8955","1338204.33903","Mapping"
"Mixed","Female","done","45","M_reek.wav","space","470.387728419","204","1333590.16718","1325884.07684","1326651.32157","1327418.85815","1328185.91737","1328952.92032","1329720.2983","1330470.84128","1334357.16086","1335123.96223","1335891.67133","1336658.46497","1337426.08101","1338193.39375","1338960.61189","1339710.65339","1338969.59455","Mapping"
"Mixed","Female","done","45","M_greet.wav","None","735.842814669","204","1333590.16718","1340478.48771","1326651.32157","1327418.85815","1328185.91737","1328952.92032","1329720.2983","1330470.84128","1334357.16086","1335123.96223","1335891.67133","1336658.46497","1337426.08101","1338193.39375","1338960.61189","1339710.65339","1339720.14186","Mapping"
"Mixed","Female","done","45","F_done.wav","None","728.422394488","204","1333590.16718","1340478.48771","1341245.3874","1327418.85815","1328185.91737","1328952.92032","1329720.2983","1330470.84128","1334357.16086","1335123.96223","1335891.67133","1336658.46497","1337426.08101","1338193.39375","1338960.61189","1339710.65339","1340492.95476","Mapping"
"Mixed","Female","done","45","M_priest.wav","space","609.346619342","204","1333590.16718","1340478.48771","1341245.3874","1342012.55576","1328185.91737","1328952.92032","1329720.2983","1330470.84128","1334357.16086","1335123.96223","1335891.67133","1336658.46497","1337426.08101","1338193.39375","1338960.61189","1339710.65339","1341254.60101","Mapping"
"Mixed","Female","done","45","F_jaw.wav","None","729.295185301","204","1333590.16718","1340478.48771","1341245.3874","1342012.55576","1342779.91518","1328952.92032","1329720.2983","1330470.84128","1334357.16086","1335123.96223","1335891.67133","1336658.46497","1337426.08101","1338193.39375","1338960.61189","1339710.65339","1342021.35663","Mapping"
"Mixed","Female","done","45","M_cling.wav","None","726.857060567","204","1333590.16718","1340478.48771","1341245.3874","1342012.55576","1342779.91518","1343547.4159","1329720.2983","1330470.84128","1334357.16086","1335123.96223","1335891.67133","1336658.46497","1337426.08101","1338193.39375","1338960.61189","1339710.65339","1342789.20485","Mapping"
"Mixed","Female","done","45","M_cling.wav","None","724.448616151","204","1333590.16718","1340478.48771","1341245.3874","1342012.55576","1342779.91518","1343547.4159","1344314.34712","1330470.84128","1334357.16086","1335123.96223","1335891.67133","1336658.46497","1337426.08101","1338193.39375","1338960.61189","1339710.65339","1343556.97455","Mapping"
