"Condition","Talker","Target","Trial","current_stimulus","response_response","response_time_response","subject_nr","time_Audio1","time_Audio10","time_Audio11","time_Audio12","time_Audio13","time_Audio14","time_Audio15","time_Audio16","time_Audio2","time_Audio3","time_Audio4","time_Audio5","time_Audio6","time_Audio7","time_Audio8","time_Audio9","time_response","title"
"Mixed","Male","ball","2","F_depth.wav","NA","NA","444","104351.095849","NA","NA","NA","NA","NA","NA","NA","NA","NA","NA","NA","NA","NA","NA","NA","NA","Mapping"
"Mixed","Male","ball","2","F_knife.wav","None","717.618203722","444","104351.095849","NA","NA","NA","NA","NA","NA","NA","105118.059023","NA","NA","NA","NA","NA","NA","NA","104366.53163","Mapping"
"Mixed","Male","ball","2","M_ball.wav","None","722.089467105","444","104351.095849","NA","NA","NA","NA","NA","NA","NA","105118.059023","105883.462109","NA","NA","NA","NA","NA","NA","105128.726116","Mapping"
"Mixed","Male","ball","2","M_jaw.wav","space","351.217972115","444","104351.095849","NA","NA","NA","NA","NA","NA","NA","105118.059023","105883.462109","106651.070836","NA","NA","NA","NA","NA","105892.328578","Mapping"
"Mixed","Male","ball","2","F_romp.wav","None","722.705648746","444","104351.095849","NA","NA","NA","NA","NA","NA","NA","105118.059023","105883.462109","106651.070836","107417.675988","NA","NA","NA","NA","106661.444525","Mapping"
"Mixed","Male","ball","2","M_knife.wav","None","722.893316764","444","104351.095849","NA","NA","NA","NA","NA","NA","NA","105118.059023","105883.462109","106651.070836","107417.675988","108184.258261","NA","NA","NA","107427.983204","Mapping"
"Mixed","Male","ball","2","M_ball.wav","None","723.178375047","444","104351.095849","NA","NA","NA","NA","NA","NA","NA","105118.059023","105883.462109","106651.070836","107417.675988","108184.258261","108950.432116","NA","NA","108194.431296","Mapping"
"Mixed","Male","ball","2","F_park.wav","space","506.681387313","444","104351.095849","NA","NA","NA","NA","NA","NA","NA","105118.059023","105883.462109","106651.070836","107417.675988","108184.258261","108950.432116","109717.755786","NA","108960.817553","Mapping"
"Mixed","Male","ball","2","F_jaw.wav","None","722.937837709","444","104351.095849","NA","NA","NA","NA","NA","NA","NA","105118.059023","105883.462109","106651.070836","107417.675988","108184.258261","108950.432116","109717.755786","110483.586149","109728.054345","Mapping"
"Mixed","Male","ball","2","M_ball.wav","None","724.908198696","444","104351.095849","111250.61023","NA","NA","NA","NA","NA","NA","105118.059023","105883.462109","106651.070836","107417.675988","108184.258261","108950.432116","109717.755786","110483.586149","110492.942349","Mapping"
"Mixed","Male","ball","2","F_bluff.wav","space","287.083083764","444","104351.095849","111250.61023","112017.509715","NA","NA","NA","NA","NA","105118.059023","105883.462109","106651.070836","107417.675988","108184.258261","108950.432116","109717.755786","110483.586149","111260.383504","Mapping"
"Mixed","Male","ball","2","F_reek.wav","None","724.08765275","444","104351.095849","111250.61023","112017.509715","112784.514937","NA","NA","NA","NA","105118.059023","105883.462109","106651.070836","107417.675988","108184.258261","108950.432116","109717.755786","110483.586149","112026.903633","Mapping"
"Mixed","Male","ball","2","M_ball.wav","None","723.162916023","444","104351.095849","111250.61023","112017.509715","112784.514937","113550.850489","NA","NA","NA","105118.059023","105883.462109","106651.070836","107417.675988","108184.258261","108950.432116","109717.755786","110483.586149","112794.808858","Mapping"
"Mixed","Male","ball","2","M_depth.wav","space","282.597289886","444","104351.095849","111250.61023","112017.509715","112784.514937","113550.850489","114317.894048","NA","NA","105118.059023","105883.462109","106651.070836","107417.675988","108184.258261","108950.432116","109717.755786","110483.586149","113560.826581","Mapping"
"Mixed","Male","ball","2","F_jolt.wav","None","722.972156014","444","104351.095849","111250.61023","112017.509715","112784.514937","113550.850489","114317.894048","115084.501364","NA","105118.059023","105883.462109","106651.070836","107417.675988","108184.258261","108950.432116","109717.755786","110483.586149","114328.301127","Mapping"
"Mixed","Male","ball","2","M_priest.wav","None","723.100772128","444","104351.095849","111250.61023","112017.509715","112784.514937","113550.850489","114317.894048","115084.501364","115850.624823","105118.059023","105883.462109","106651.070836","107417.675988","108184.258261","108950.432116","109717.755786","110483.586149","115094.847227","Mapping"
"Mixed","Female","done","43","F_cling.wav","None","724.684976041","444","118984.046044","111250.61023","112017.509715","112784.514937","113550.850489","114317.894048","115084.501364","115850.624823","105118.059023","105883.462109","106651.070836","107417.675988","108184.258261","108950.432116","109717.755786","110483.586149","115860.301326","Mapping"
"Mixed","Female","done","43","M_depth.wav","None","724.681574386","444","118984.046044","111250.61023","112017.509715","112784.514937","113550.850489","114317.894048","115084.501364","115850.624823","119750.134876","105883.462109","106651.070836","107417.675988","108184.258261","108950.432116","109717.755786","110483.586149","118993.934331","Mapping"
"Mixed","Female","done","43","F_done.wav","None","726.318337955","444","118984.046044","111250.61023","112017.509715","112784.514937","113550.850489","114317.894048","115084.501364","115850.624823","119750.134876","120516.91131","106651.070836","107417.675988","108184.258261","108950.432116","109717.755786","110483.586149","119759.230134","Mapping"
"Mixed","Female","done","43","M_lash.wav","space","589.039253537","444","118984.046044","111250.61023","112017.509715","112784.514937","113550.850489","114317.894048","115084.501364","115850.624823","119750.134876","120516.91131","121284.62392","107417.675988","108184.258261","108950.432116","109717.755786","110483.586149","120526.297809","Mapping"
"Mixed","Female","done","43","M_reek.wav","None","724.642309826","444","118984.046044","111250.61023","112017.509715","112784.514937","113550.850489","114317.894048","115084.501364","115850.624823","119750.134876","120516.91131","121284.62392","122050.387502","108184.258261","108950.432116","109717.755786","110483.586149","121294.287438","Mapping"
"Mixed","Female","done","43","M_gnash.wav","None","726.255575661","444","118984.046044","111250.61023","112017.509715","112784.514937","113550.850489","114317.894048","115084.501364","115850.624823","119750.134876","120516.91131","121284.62392","122050.387502","122817.235354","108950.432116","109717.755786","110483.586149","122059.538101","Mapping"
"Mixed","Female","done","43","F_dime.wav","None","724.761650432","444","118984.046044","111250.61023","112017.509715","112784.514937","113550.850489","114317.894048","115084.501364","115850.624823","119750.134876","120516.91131","121284.62392","122050.387502","122817.235354","123583.970668","109717.755786","110483.586149","122827.857618","Mapping"
"Mixed","Female","done","43","F_jaw.wav","space","345.124168787","444","118984.046044","111250.61023","112017.509715","112784.514937","113550.850489","114317.894048","115084.501364","115850.624823","119750.134876","120516.91131","121284.62392","122050.387502","122817.235354","123583.970668","124350.747411","110483.586149","123594.130408","Mapping"
"Mixed","Female","done","43","F_done.wav","None","725.835409481","444","118984.046044","111250.61023","112017.509715","112784.514937","113550.850489","114317.894048","115084.501364","115850.624823","119750.134876","120516.91131","121284.62392","122050.387502","122817.235354","123583.970668","124350.747411","125117.186845","124360.284785","Mapping"
"Mixed","Female","done","43","M_jolt.wav","space","684.758658055","444","118984.046044","125883.505702","112017.509715","112784.514937","113550.850489","114317.894048","115084.501364","115850.624823","119750.134876","120516.91131","121284.62392","122050.387502","122817.235354","123583.970668","124350.747411","125117.186845","125126.463896","Mapping"
"Mixed","Female","done","43","M_jolt.wav","None","726.300096605","444","118984.046044","125883.505702","126650.671385","112784.514937","113550.850489","114317.894048","115084.501364","115850.624823","119750.134876","120516.91131","121284.62392","122050.387502","122817.235354","123583.970668","124350.747411","125117.186845","125892.626621","Mapping"
"Mixed","Female","done","43","F_done.wav","None","724.312421866","444","118984.046044","125883.505702","126650.671385","127417.104018","113550.850489","114317.894048","115084.501364","115850.624823","119750.134876","120516.91131","121284.62392","122050.387502","122817.235354","123583.970668","124350.747411","125117.186845","126661.109381","Mapping"
"Mixed","Female","done","43","M_greet.wav","space","575.914232992","444","118984.046044","125883.505702","126650.671385","127417.104018","128183.782134","114317.894048","115084.501364","115850.624823","119750.134876","120516.91131","121284.62392","122050.387502","122817.235354","123583.970668","124350.747411","125117.186845","127427.245826","Mapping"
"Mixed","Female","done","43","F_jaw.wav","None","725.225410424","444","118984.046044","125883.505702","126650.671385","127417.104018","128183.782134","128950.443864","115084.501364","115850.624823","119750.134876","120516.91131","121284.62392","122050.387502","122817.235354","123583.970668","124350.747411","125117.186845","128193.809548","Mapping"
"Mixed","Female","done","43","F_done.wav","None","726.15880426","444","118984.046044","125883.505702","126650.671385","127417.104018","128183.782134","128950.443864","129717.221844","115850.624823","119750.134876","120516.91131","121284.62392","122050.387502","122817.235354","123583.970668","124350.747411","125117.186845","128959.747814","Mapping"
"Mixed","Female","done","43","M_jolt.wav","space","443.973024376","444","118984.046044","125883.505702","126650.671385","127417.104018","128183.782134","128950.443864","129717.221844","130483.878318","119750.134876","120516.91131","121284.62392","122050.387502","122817.235354","123583.970668","124350.747411","125117.186845","129727.206283","Mapping"
"Mixed","Female","ball","9","M_park.wav","None","726.21476464","444","133617.362919","125883.505702","126650.671385","127417.104018","128183.782134","128950.443864","129717.221844","130483.878318","119750.134876","120516.91131","121284.62392","122050.387502","122817.235354","123583.970668","124350.747411","125117.186845","130493.198344","Mapping"
"Mixed","Female","ball","9","F_ball.wav","None","722.862399649","444","133617.362919","125883.505702","126650.671385","127417.104018","128183.782134","128950.443864","129717.221844","130483.878318","134384.270133","120516.91131","121284.62392","122050.387502","122817.235354","123583.970668","124350.747411","125117.186845","133627.624378","Mapping"
"Mixed","Female","ball","9","F_gnash.wav","space","392.134571914","444","133617.362919","125883.505702","126650.671385","127417.104018","128183.782134","128950.443864","129717.221844","130483.878318","134384.270133","135149.956422","121284.62392","122050.387502","122817.235354","123583.970668","124350.747411","125117.186845","134394.904146","Mapping"
"Mixed","Female","ball","9","M_romp.wav","None","724.305002019","444","133617.362919","125883.505702","126650.671385","127417.104018","128183.782134","128950.443864","129717.221844","130483.878318","134384.270133","135149.956422","135917.05625","122050.387502","122817.235354","123583.970668","124350.747411","125117.186845","135159.595515","Mapping"
"Mixed","Female","ball","9","F_ball.wav","None","723.836604506","444","133617.362919","125883.505702","126650.671385","127417.104018","128183.782134","128950.443864","129717.221844","130483.878318","134384.270133","135149.956422","135917.05625","136684.225952","122817.235354","123583.970668","124350.747411","125117.186845","135926.721314","Mapping"
"Mixed","Female","ball","9","M_greet.wav","space","372.543811798","444","133617.362919","125883.505702","126650.671385","127417.104018","128183.782134","128950.443864","129717.221844","130483.878318","134384.270133","135149.956422","135917.05625","136684.225952","137450.355905","123583.970668","124350.747411","125117.186845","136694.441344","Mapping"
"Mixed","Female","ball","9","M_depth.wav","None","723.902458325","444","133617.362919","125883.505702","126650.671385","127417.104018","128183.782134","128950.443864","129717.221844","130483.878318","134384.270133","135149.956422","135917.05625","136684.225952","137450.355905","138217.576002","124350.747411","125117.186845","137459.853087","Mapping"
"Mixed","Female","ball","9","M_jaw.wav","None","722.896099556","444","133617.362919","125883.505702","126650.671385","127417.104018","128183.782134","128950.443864","129717.221844","130483.878318","134384.270133","135149.956422","135917.05625","136684.225952","137450.355905","138217.576002","138984.195375","125117.186845","138227.70668","Mapping"
"Mixed","Female","ball","9","M_cad.wav","None","722.707503941","444","133617.362919","125883.505702","126650.671385","127417.104018","128183.782134","128950.443864","129717.221844","130483.878318","134384.270133","135149.956422","135917.05625","136684.225952","137450.355905","138217.576002","138984.195375","139750.767445","138994.690259","Mapping"
"Mixed","Female","ball","9","F_ball.wav","None","723.373154178","444","133617.362919","140516.929861","126650.671385","127417.104018","128183.782134","128950.443864","129717.221844","130483.878318","134384.270133","135149.956422","135917.05625","136684.225952","137450.355905","138217.576002","138984.195375","139750.767445","139760.892867","Mapping"
"Mixed","Female","ball","9","F_dime.wav","space","364.155015443","444","133617.362919","140516.929861","141284.195406","127417.104018","128183.782134","128950.443864","129717.221844","130483.878318","134384.270133","135149.956422","135917.05625","136684.225952","137450.355905","138217.576002","138984.195375","139750.767445","140526.792795","Mapping"
"Mixed","Female","ball","9","F_ball.wav","None","723.116230685","444","133617.362919","140516.929861","141284.195406","142050.352256","128183.782134","128950.443864","129717.221844","130483.878318","134384.270133","135149.956422","135917.05625","136684.225952","137450.355905","138217.576002","138984.195375","139750.767445","141294.331959","Mapping"
"Mixed","Female","ball","9","M_gnash.wav","space","430.992387235","444","133617.362919","140516.929861","141284.195406","142050.352256","142816.872076","128950.443864","129717.221844","130483.878318","134384.270133","135149.956422","135917.05625","136684.225952","137450.355905","138217.576002","138984.195375","139750.767445","142059.953321","Mapping"
"Mixed","Female","ball","9","F_priest.wav","None","724.218742456","444","133617.362919","140516.929861","141284.195406","142050.352256","142816.872076","143583.602752","129717.221844","130483.878318","134384.270133","135149.956422","135917.05625","136684.225952","137450.355905","138217.576002","138984.195375","139750.767445","142826.672557","Mapping"
"Mixed","Female","ball","9","M_jolt.wav","None","723.869376816","444","133617.362919","140516.929861","141284.195406","142050.352256","142816.872076","143583.602752","144349.68942","130483.878318","134384.270133","135149.956422","135917.05625","136684.225952","137450.355905","138217.576002","138984.195375","139750.767445","143593.78568","Mapping"
"Mixed","Female","ball","9","F_lash.wav","None","725.534583908","444","133617.362919","140516.929861","141284.195406","142050.352256","142816.872076","143583.602752","144349.68942","145116.832533","134384.270133","135149.956422","135917.05625","136684.225952","137450.355905","138217.576002","138984.195375","139750.767445","144359.018412","Mapping"
"Mixed","Male","done","39","F_romp.wav","None","724.679410458","444","148250.669282","140516.929861","141284.195406","142050.352256","142816.872076","143583.602752","144349.68942","145116.832533","134384.270133","135149.956422","135917.05625","136684.225952","137450.355905","138217.576002","138984.195375","139750.767445","145126.761012","Mapping"
"Mixed","Male","done","39","F_romp.wav","None","722.503758501","444","148250.669282","140516.929861","141284.195406","142050.352256","142816.872076","143583.602752","144349.68942","145116.832533","149017.113664","135149.956422","135917.05625","136684.225952","137450.355905","138217.576002","138984.195375","139750.767445","148260.762551","Mapping"
"Mixed","Male","done","39","F_jolt.wav","None","722.725436091","444","148250.669282","140516.929861","141284.195406","142050.352256","142816.872076","143583.602752","144349.68942","145116.832533","149017.113664","149783.327402","135917.05625","136684.225952","137450.355905","138217.576002","138984.195375","139750.767445","149027.338331","Mapping"
"Mixed","Male","done","39","M_depth.wav","None","724.102493376","444","148250.669282","140516.929861","141284.195406","142050.352256","142816.872076","143583.602752","144349.68942","145116.832533","149017.113664","149783.327402","150549.662027","136684.225952","137450.355905","138217.576002","138984.195375","139750.767445","149792.827058","Mapping"
"Mixed","Male","done","39","F_romp.wav","None","724.908817094","444","148250.669282","140516.929861","141284.195406","142050.352256","142816.872076","143583.602752","144349.68942","145116.832533","149017.113664","149783.327402","150549.662027","151316.411254","137450.355905","138217.576002","138984.195375","139750.767445","150558.776453","Mapping"
"Mixed","Male","done","39","M_done.wav","None","726.784880273","444","148250.669282","140516.929861","141284.195406","142050.352256","142816.872076","143583.602752","144349.68942","145116.832533","149017.113664","149783.327402","150549.662027","151316.411254","152083.107611","138217.576002","138984.195375","139750.767445","151325.553505","Mapping"
"Mixed","Male","done","39","M_priest.wav","space","670.324907172","444","148250.669282","140516.929861","141284.195406","142050.352256","142816.872076","143583.602752","144349.68942","145116.832533","149017.113664","149783.327402","150549.662027","151316.411254","152083.107611","152850.117161","138984.195375","139750.767445","152092.418362","Mapping"
"Mixed","Male","done","39","F_lash.wav","None","725.826133974","444","148250.669282","140516.929861","141284.195406","142050.352256","142816.872076","143583.602752","144349.68942","145116.832533","149017.113664","149783.327402","150549.662027","151316.411254","152083.107611","152850.117161","153616.671608","139750.767445","152859.635058","Mapping"
"Mixed","Male","done","39","M_done.wav","None","725.78501422","444","148250.669282","140516.929861","141284.195406","142050.352256","142816.872076","143583.602752","144349.68942","145116.832533","149017.113664","149783.327402","150549.662027","151316.411254","152083.107611","152850.117161","153616.671608","154382.954292","153626.631313","Mapping"
"Mixed","Male","done","39","F_romp.wav","space","698.346201796","444","148250.669282","155150.141308","141284.195406","142050.352256","142816.872076","143583.602752","144349.68942","145116.832533","149017.113664","149783.327402","150549.662027","151316.411254","152083.107611","152850.117161","153616.671608","154382.954292","154392.34852","Mapping"
"Mixed","Male","done","39","M_done.wav","None","726.496112533","444","148250.669282","155150.141308","155916.684933","142050.352256","142816.872076","143583.602752","144349.68942","145116.832533","149017.113664","149783.327402","150549.662027","151316.411254","152083.107611","152850.117161","153616.671608","154382.954292","155159.278612","Mapping"
"Mixed","Male","done","39","M_park.wav","space","364.370200317","444","148250.669282","155150.141308","155916.684933","156683.332442","142816.872076","143583.602752","144349.68942","145116.832533","149017.113664","149783.327402","150549.662027","151316.411254","152083.107611","152850.117161","153616.671608","154382.954292","155926.290635","Mapping"
"Mixed","Male","done","39","M_done.wav","None","726.092950441","444","148250.669282","155150.141308","155916.684933","156683.332442","157449.956762","143583.602752","144349.68942","145116.832533","149017.113664","149783.327402","150549.662027","151316.411254","152083.107611","152850.117161","153616.671608","154382.954292","156692.999979","Mapping"
"Mixed","Male","done","39","F_dime.wav","space","470.911903307","444","148250.669282","155150.141308","155916.684933","156683.332442","157449.956762","158216.621893","144349.68942","145116.832533","149017.113664","149783.327402","150549.662027","151316.411254","152083.107611","152850.117161","153616.671608","154382.954292","157459.752915","Mapping"
"Mixed","Male","done","39","F_bluff.wav","None","726.68903647","444","148250.669282","155150.141308","155916.684933","156683.332442","157449.956762","158216.621893","158983.329381","145116.832533","149017.113664","149783.327402","150549.662027","151316.411254","152083.107611","152850.117161","153616.671608","154382.954292","158226.317564","Mapping"
"Mixed","Male","done","39","M_knife.wav","None","726.046574768","444","148250.669282","155150.141308","155916.684933","156683.332442","157449.956762","158216.621893","158983.329381","159750.021101","149017.113664","149783.327402","150549.662027","151316.411254","152083.107611","152850.117161","153616.671608","154382.954292","158993.9198","Mapping"
"Mixed","Female","ball","11","M_bluff.wav","None","727.745481301","444","162883.627517","155150.141308","155916.684933","156683.332442","157449.956762","158216.621893","158983.329381","159750.021101","149017.113664","149783.327402","150549.662027","151316.411254","152083.107611","152850.117161","153616.671608","154382.954292","159759.564968","Mapping"
"Mixed","Female","ball","11","M_bluff.wav","None","722.316708881","444","162883.627517","155150.141308","155916.684933","156683.332442","157449.956762","158216.621893","158983.329381","159750.021101","163650.328512","149783.327402","150549.662027","151316.411254","152083.107611","152850.117161","153616.671608","154382.954292","162893.64411","Mapping"
"Mixed","Female","ball","11","M_dime.wav","None","722.445943393","444","162883.627517","155150.141308","155916.684933","156683.332442","157449.956762","158216.621893","158983.329381","159750.021101","163650.328512","164417.23047","150549.662027","151316.411254","152083.107611","152850.117161","153616.671608","154382.954292","163660.449297","Mapping"
"Mixed","Female","ball","11","F_ball.wav","None","722.301868722","444","162883.627517","155150.141308","155916.684933","156683.332442","157449.956762","158216.621893","158983.329381","159750.021101","163650.328512","164417.23047","165183.645789","151316.411254","152083.107611","152850.117161","153616.671608","154382.954292","164427.62209","Mapping"
"Mixed","Female","ball","11","M_jaw.wav","space","376.713321544","444","162883.627517","155150.141308","155916.684933","156683.332442","157449.956762","158216.621893","158983.329381","159750.021101","163650.328512","164417.23047","165183.645789","165950.115832","152083.107611","152850.117161","153616.671608","154382.954292","165193.780177","Mapping"
"Mixed","Female","ball","11","F_greet.wav","None","722.994107287","444","162883.627517","155150.141308","155916.684933","156683.332442","157449.956762","158216.621893","158983.329381","159750.021101","163650.328512","164417.23047","165183.645789","165950.115832","166716.440254","152850.117161","153616.671608","154382.954292","165960.401096","Mapping"
"Mixed","Female","ball","11","M_knife.wav","None","730.063971132","444","162883.627517","155150.141308","155916.684933","156683.332442","157449.956762","158216.621893","158983.329381","159750.021101","163650.328512","164417.23047","165183.645789","165950.115832","166716.440254","167482.875051","153616.671608","154382.954292","166720.664178","Mapping"
"Mixed","Female","ball","11","M_lash.wav","None","725.507067516","444","162883.627517","155150.141308","155916.684933","156683.332442","157449.956762","158216.621893","158983.329381","159750.021101","163650.328512","164417.23047","165183.645789","165950.115832","166716.440254","167482.875051","168249.82864","154382.954292","167492.111909","Mapping"
"Mixed","Female","ball","11","F_priest.wav","None","725.30579567","444","162883.627517","155150.141308","155916.684933","156683.332442","157449.956762","158216.621893","158983.329381","159750.021101","163650.328512","164417.23047","165183.645789","165950.115832","166716.440254","167482.875051","168249.82864","169016.371648","168259.368798","Mapping"
"Mixed","Female","ball","11","M_reek.wav","None","725.425136276","444","162883.627517","169783.086865","155916.684933","156683.332442","157449.956762","158216.621893","158983.329381","159750.021101","163650.328512","164417.23047","165183.645789","165950.115832","166716.440254","167482.875051","168249.82864","169016.371648","169026.177695","Mapping"
"Mixed","Female","ball","11","F_ball.wav","None","726.03266174","444","162883.627517","169783.086865","170549.353472","156683.332442","157449.956762","158216.621893","158983.329381","159750.021101","163650.328512","164417.23047","165183.645789","165950.115832","166716.440254","167482.875051","168249.82864","169016.371648","169792.701534","Mapping"
"Mixed","Female","ball","11","F_bluff.wav","space","332.091899589","444","162883.627517","169783.086865","170549.353472","171316.407543","157449.956762","158216.621893","158983.329381","159750.021101","163650.328512","164417.23047","165183.645789","165950.115832","166716.440254","167482.875051","168249.82864","169016.371648","170558.303727","Mapping"
"Mixed","Female","ball","11","F_ball.wav","None","725.773265585","444","162883.627517","169783.086865","170549.353472","171316.407543","172083.009912","158216.621893","158983.329381","159750.021101","163650.328512","164417.23047","165183.645789","165950.115832","166716.440254","167482.875051","168249.82864","169016.371648","171326.366321","Mapping"
"Mixed","Female","ball","11","M_greet.wav","space","491.726679727","444","162883.627517","169783.086865","170549.353472","171316.407543","172083.009912","172849.763158","158983.329381","159750.021101","163650.328512","164417.23047","165183.645789","165950.115832","166716.440254","167482.875051","168249.82864","169016.371648","172094.69635","Mapping"
"Mixed","Female","ball","11","F_ball.wav","None","725.658871233","444","162883.627517","169783.086865","170549.353472","171316.407543","172083.009912","172849.763158","173616.258244","159750.021101","163650.328512","164417.23047","165183.645789","165950.115832","166716.440254","167482.875051","168249.82864","169016.371648","172859.820562","Mapping"
"Mixed","Female","ball","11","F_depth.wav","space","432.56113166","444","162883.627517","169783.086865","170549.353472","171316.407543","172083.009912","172849.763158","173616.258244","174382.92894","163650.328512","164417.23047","165183.645789","165950.115832","166716.440254","167482.875051","168249.82864","169016.371648","173625.801184","Mapping"
"Mixed","Male","done","41","M_cling.wav","None","726.453755517","444","177516.47012","169783.086865","170549.353472","171316.407543","172083.009912","172849.763158","173616.258244","174382.92894","163650.328512","164417.23047","165183.645789","165950.115832","166716.440254","167482.875051","168249.82864","169016.371648","174392.763121","Mapping"
"Mixed","Male","done","41","M_done.wav","None","722.968136892","444","177516.47012","169783.086865","170549.353472","171316.407543","172083.009912","172849.763158","173616.258244","174382.92894","178282.542257","164417.23047","165183.645789","165950.115832","166716.440254","167482.875051","168249.82864","169016.371648","177526.86174","Mapping"
"Mixed","Male","done","41","F_cling.wav","space","406.331496313","444","177516.47012","169783.086865","170549.353472","171316.407543","172083.009912","172849.763158","173616.258244","174382.92894","178282.542257","179050.009074","165183.645789","165950.115832","166716.440254","167482.875051","168249.82864","169016.371648","178291.922881","Mapping"
"Mixed","Male","done","41","F_reek.wav","None","723.11313916","444","177516.47012","169783.086865","170549.353472","171316.407543","172083.009912","172849.763158","173616.258244","174382.92894","178282.542257","179050.009074","179816.281864","165950.115832","166716.440254","167482.875051","168249.82864","169016.371648","179060.15552","Mapping"
"Mixed","Male","done","41","M_done.wav","None","724.516476505","444","177516.47012","169783.086865","170549.353472","171316.407543","172083.009912","172849.763158","173616.258244","174382.92894","178282.542257","179050.009074","179816.281864","180582.857953","166716.440254","167482.875051","168249.82864","169016.371648","179825.864378","Mapping"
"Mixed","Male","done","41","M_knife.wav","space","417.866748292","444","177516.47012","169783.086865","170549.353472","171316.407543","172083.009912","172849.763158","173616.258244","174382.92894","178282.542257","179050.009074","179816.281864","180582.857953","181349.725284","167482.875051","168249.82864","169016.371648","180592.332566","Mapping"
"Mixed","Male","done","41","F_park.wav","None","724.021490198","444","177516.47012","169783.086865","170549.353472","171316.407543","172083.009912","172849.763158","173616.258244","174382.92894","178282.542257","179050.009074","179816.281864","180582.857953","181349.725284","182116.133492","168249.82864","169016.371648","181359.76321","Mapping"
"Mixed","Male","done","41","F_depth.wav","None","724.642619025","444","177516.47012","169783.086865","170549.353472","171316.407543","172083.009912","172849.763158","173616.258244","174382.92894","178282.542257","179050.009074","179816.281864","180582.857953","181349.725284","182116.133492","182882.490377","169016.371648","182126.086396","Mapping"
"Mixed","Male","done","41","F_romp.wav","None","731.450303458","444","177516.47012","169783.086865","170549.353472","171316.407543","172083.009912","172849.763158","173616.258244","174382.92894","178282.542257","179050.009074","179816.281864","180582.857953","181349.725284","182116.133492","182882.490377","183648.941251","182891.516998","Mapping"
"Mixed","Male","done","41","M_jolt.wav","None","732.051954605","444","177516.47012","184416.113427","170549.353472","171316.407543","172083.009912","172849.763158","173616.258244","174382.92894","178282.542257","179050.009074","179816.281864","180582.857953","181349.725284","182116.133492","182882.490377","183648.941251","183658.060624","Mapping"
"Mixed","Male","done","41","M_done.wav","None","731.693004724","444","177516.47012","184416.113427","185182.837919","171316.407543","172083.009912","172849.763158","173616.258244","174382.92894","178282.542257","179050.009074","179816.281864","180582.857953","181349.725284","182116.133492","182882.490377","183648.941251","184425.390478","Mapping"
"Mixed","Male","done","41","F_knife.wav","space","401.372976601","444","177516.47012","184416.113427","185182.837919","185948.997861","172083.009912","172849.763158","173616.258244","174382.92894","178282.542257","179050.009074","179816.281864","180582.857953","181349.725284","182116.133492","182882.490377","183648.941251","185192.791441","Mapping"
"Mixed","Male","done","41","F_jolt.wav","None","732.12893866","444","177516.47012","184416.113427","185182.837919","185948.997861","186716.1351","172849.763158","173616.258244","174382.92894","178282.542257","179050.009074","179816.281864","180582.857953","181349.725284","182116.133492","182882.490377","183648.941251","185958.710846","Mapping"
"Mixed","Male","done","41","F_cling.wav","None","731.973115355","444","177516.47012","184416.113427","185182.837919","185948.997861","186716.1351","187482.770551","173616.258244","174382.92894","178282.542257","179050.009074","179816.281864","180582.857953","181349.725284","182116.133492","182882.490377","183648.941251","186725.890751","Mapping"
"Mixed","Male","done","41","M_done.wav","None","732.043915894","444","177516.47012","184416.113427","185182.837919","185948.997861","186716.1351","187482.770551","188249.326853","174382.92894","178282.542257","179050.009074","179816.281864","180582.857953","181349.725284","182116.133492","182882.490377","183648.941251","187493.026753","Mapping"
"Mixed","Male","done","41","M_cling.wav","space","319.071997888","444","177516.47012","184416.113427","185182.837919","185948.997861","186716.1351","187482.770551","188249.326853","189016.04578","178282.542257","179050.009074","179816.281864","180582.857953","181349.725284","182116.133492","182882.490377","183648.941251","188259.029326","Mapping"
"Mixed","Female","tile","35","M_jaw.wav","None","733.586072456","444","192149.740001","184416.113427","185182.837919","185948.997861","186716.1351","187482.770551","188249.326853","189016.04578","178282.542257","179050.009074","179816.281864","180582.857953","181349.725284","182116.133492","182882.490377","183648.941251","189025.60356","Mapping"
"Mixed","Female","tile","35","M_jaw.wav","None","722.805820871","444","192149.740001","184416.113427","185182.837919","185948.997861","186716.1351","187482.770551","188249.326853","189016.04578","192916.374833","179050.009074","179816.281864","180582.857953","181349.725284","182116.133492","182882.490377","183648.941251","192159.946735","Mapping"
"Mixed","Female","tile","35","F_cad.wav","None","722.951132338","444","192149.740001","184416.113427","185182.837919","185948.997861","186716.1351","187482.770551","188249.326853","189016.04578","192916.374833","193682.709458","179816.281864","180582.857953","181349.725284","182116.133492","182882.490377","183648.941251","192926.908982","Mapping"
"Mixed","Female","tile","35","F_tile.wav","None","724.413212389","444","192149.740001","184416.113427","185182.837919","185948.997861","186716.1351","187482.770551","188249.326853","189016.04578","192916.374833","193682.709458","194449.265142","180582.857953","181349.725284","182116.133492","182882.490377","183648.941251","193692.639792","Mapping"
"Mixed","Female","tile","35","F_bluff.wav","space","398.996361997","444","192149.740001","184416.113427","185182.837919","185948.997861","186716.1351","187482.770551","188249.326853","189016.04578","192916.374833","193682.709458","194449.265142","195215.956243","181349.725284","182116.133492","182882.490377","183648.941251","194458.995441","Mapping"
"Mixed","Female","tile","35","F_greet.wav","None","724.300982431","444","192149.740001","184416.113427","185182.837919","185948.997861","186716.1351","187482.770551","188249.326853","189016.04578","192916.374833","193682.709458","194449.265142","195215.956243","195982.584583","182116.133492","182882.490377","183648.941251","195226.608806","Mapping"
"Mixed","Female","tile","35","M_cad.wav","None","725.457290653","444","192149.740001","184416.113427","185182.837919","185948.997861","186716.1351","187482.770551","188249.326853","189016.04578","192916.374833","193682.709458","194449.265142","195215.956243","195982.584583","196749.333499","182882.490377","183648.941251","195992.718662","Mapping"
"Mixed","Female","tile","35","F_tile.wav","None","726.344926748","444","192149.740001","184416.113427","185182.837919","185948.997861","186716.1351","187482.770551","188249.326853","189016.04578","192916.374833","193682.709458","194449.265142","195215.956243","195982.584583","196749.333499","197515.903096","183648.941251","196759.0335","Mapping"
"Mixed","Female","tile","35","M_romp.wav","space","291.961527895","444","192149.740001","184416.113427","185182.837919","185948.997861","186716.1351","187482.770551","188249.326853","189016.04578","192916.374833","193682.709458","194449.265142","195215.956243","195982.584583","196749.333499","197515.903096","198282.600691","197525.934221","Mapping"
"Mixed","Female","tile","35","M_knife.wav","None","727.756302338","444","192149.740001","199049.373723","185182.837919","185948.997861","186716.1351","187482.770551","188249.326853","189016.04578","192916.374833","193682.709458","194449.265142","195215.956243","195982.584583","196749.333499","197515.903096","198282.600691","198292.373655","Mapping"
"Mixed","Female","tile","35","F_tile.wav","None","728.045688476","444","192149.740001","199049.373723","199815.820269","185948.997861","186716.1351","187482.770551","188249.326853","189016.04578","192916.374833","193682.709458","194449.265142","195215.956243","195982.584583","196749.333499","197515.903096","198282.600691","199059.326008","Mapping"
"Mixed","Female","tile","35","M_jolt.wav","space","447.96414068","444","192149.740001","199049.373723","199815.820269","200582.567022","186716.1351","187482.770551","188249.326853","189016.04578","192916.374833","193682.709458","194449.265142","195215.956243","195982.584583","196749.333499","197515.903096","198282.600691","199825.906117","Mapping"
"Mixed","Female","tile","35","F_priest.wav","None","728.206458502","444","192149.740001","199049.373723","199815.820269","200582.567022","201349.238027","187482.770551","188249.326853","189016.04578","192916.374833","193682.709458","194449.265142","195215.956243","195982.584583","196749.333499","197515.903096","198282.600691","200592.79107","Mapping"
"Mixed","Female","tile","35","F_tile.wav","None","729.727281258","444","192149.740001","199049.373723","199815.820269","200582.567022","201349.238027","202115.751972","188249.326853","189016.04578","192916.374833","193682.709458","194449.265142","195215.956243","195982.584583","196749.333499","197515.903096","198282.600691","201358.825179","Mapping"
"Mixed","Female","tile","35","M_cling.wav","space","405.03915213","444","192149.740001","199049.373723","199815.820269","200582.567022","201349.238027","202115.751972","202882.484503","189016.04578","192916.374833","193682.709458","194449.265142","195215.956243","195982.584583","196749.333499","197515.903096","198282.600691","202124.797144","Mapping"
"Mixed","Female","tile","35","M_priest.wav","None","730.146829505","444","192149.740001","199049.373723","199815.820269","200582.567022","201349.238027","202115.751972","202882.484503","203649.077288","192916.374833","193682.709458","194449.265142","195215.956243","195982.584583","196749.333499","197515.903096","198282.600691","202892.335071","Mapping"
"Mixed","Female","tile","31","M_lash.wav","None","730.894719251","444","206782.974945","199049.373723","199815.820269","200582.567022","201349.238027","202115.751972","202882.484503","203649.077288","192916.374833","193682.709458","194449.265142","195215.956243","195982.584583","196749.333499","197515.903096","198282.600691","203658.884262","Mapping"
"Mixed","Female","tile","31","F_tile.wav","None","721.356417052","444","206782.974945","199049.373723","199815.820269","200582.567022","201349.238027","202115.751972","202882.484503","203649.077288","207549.506204","193682.709458","194449.265142","195215.956243","195982.584583","196749.333499","197515.903096","198282.600691","206793.875773","Mapping"
"Mixed","Female","tile","31","M_jolt.wav","space","465.321124066","444","206782.974945","199049.373723","199815.820269","200582.567022","201349.238027","202115.751972","202882.484503","203649.077288","207549.506204","208316.205653","194449.265142","195215.956243","195982.584583","196749.333499","197515.903096","198282.600691","207560.445989","Mapping"
"Mixed","Female","tile","31","M_knife.wav","None","722.728836816","444","206782.974945","199049.373723","199815.820269","200582.567022","201349.238027","202115.751972","202882.484503","203649.077288","207549.506204","208316.205653","209082.309326","195215.956243","195982.584583","196749.333499","197515.903096","198282.600691","208326.466803","Mapping"
"Mixed","Female","tile","31","M_park.wav","None","724.458042532","444","206782.974945","199049.373723","199815.820269","200582.567022","201349.238027","202115.751972","202882.484503","203649.077288","207549.506204","208316.205653","209082.309326","209848.613343","195982.584583","196749.333499","197515.903096","198282.600691","209092.169478","Mapping"
"Mixed","Female","tile","31","F_depth.wav","None","726.504769176","444","206782.974945","199049.373723","199815.820269","200582.567022","201349.238027","202115.751972","202882.484503","203649.077288","207549.506204","208316.205653","209082.309326","209848.613343","210615.355148","196749.333499","197515.903096","198282.600691","209857.595442","Mapping"
"Mixed","Female","tile","31","F_tile.wav","None","726.491165813","444","206782.974945","199049.373723","199815.820269","200582.567022","201349.238027","202115.751972","202882.484503","203649.077288","207549.506204","208316.205653","209082.309326","209848.613343","210615.355148","211382.336873","197515.903096","198282.600691","210624.761743","Mapping"
"Mixed","Female","tile","31","M_depth.wav","space","432.985627092","444","206782.974945","199049.373723","199815.820269","200582.567022","201349.238027","202115.751972","202882.484503","203649.077288","207549.506204","208316.205653","209082.309326","209848.613343","210615.355148","211382.336873","212149.085172","198282.600691","211392.693866","Mapping"
"Mixed","Female","tile","31","F_park.wav","None","726.052448619","444","206782.974945","199049.373723","199815.820269","200582.567022","201349.238027","202115.751972","202882.484503","203649.077288","207549.506204","208316.205653","209082.309326","209848.613343","210615.355148","211382.336873","212149.085172","212915.679193","212159.006849","Mapping"
"Mixed","Female","tile","31","M_gnash.wav","None","727.154651191","444","206782.974945","213682.040716","199815.820269","200582.567022","201349.238027","202115.751972","202882.484503","203649.077288","207549.506204","208316.205653","209082.309326","209848.613343","210615.355148","211382.336873","212149.085172","212915.679193","212925.570881","Mapping"
"Mixed","Female","tile","31","F_tile.wav","None","728.708865121","444","206782.974945","213682.040716","214448.525599","200582.567022","201349.238027","202115.751972","202882.484503","203649.077288","207549.506204","208316.205653","209082.309326","209848.613343","210615.355148","211382.336873","212149.085172","212915.679193","213691.27912","Mapping"
"Mixed","Female","tile","31","F_greet.wav","space","455.577840097","444","206782.974945","213682.040716","214448.525599","215215.582762","201349.238027","202115.751972","202882.484503","203649.077288","207549.506204","208316.205653","209082.309326","209848.613343","210615.355148","211382.336873","212149.085172","212915.679193","214457.993101","Mapping"
"Mixed","Female","tile","31","F_depth.wav","None","728.801307734","444","206782.974945","213682.040716","214448.525599","215215.582762","215981.838238","202115.751972","202882.484503","203649.077288","207549.506204","208316.205653","209082.309326","209848.613343","210615.355148","211382.336873","212149.085172","212915.679193","215225.264212","Mapping"
"Mixed","Female","tile","31","M_depth.wav","None","730.533604976","444","206782.974945","213682.040716","214448.525599","215215.582762","215981.838238","216748.353421","202882.484503","203649.077288","207549.506204","208316.205653","209082.309326","209848.613343","210615.355148","211382.336873","212149.085172","212915.679193","215991.003987","Mapping"
"Mixed","Female","tile","31","F_tile.wav","None","731.170192827","444","206782.974945","213682.040716","214448.525599","215215.582762","215981.838238","216748.353421","217515.206529","203649.077288","207549.506204","208316.205653","209082.309326","209848.613343","210615.355148","211382.336873","212149.085172","212915.679193","216757.748885","Mapping"
"Mixed","Female","tile","31","M_dime.wav","space","573.050979991","444","206782.974945","213682.040716","214448.525599","215215.582762","215981.838238","216748.353421","217515.206529","218282.451051","207549.506204","208316.205653","209082.309326","209848.613343","210615.355148","211382.336873","212149.085172","212915.679193","217524.5584","Mapping"
"Mixed","Female","tile","32","M_park.wav","None","731.326324865","444","221415.775501","213682.040716","214448.525599","215215.582762","215981.838238","216748.353421","217515.206529","218282.451051","207549.506204","208316.205653","209082.309326","209848.613343","210615.355148","211382.336873","212149.085172","212915.679193","218292.210103","Mapping"
"Mixed","Female","tile","32","F_tile.wav","None","722.824680619","444","221415.775501","213682.040716","214448.525599","215215.582762","215981.838238","216748.353421","217515.206529","218282.451051","222182.225138","208316.205653","209082.309326","209848.613343","210615.355148","211382.336873","212149.085172","212915.679193","221426.435174","Mapping"
"Mixed","Female","tile","32","M_romp.wav","space","513.608722016","444","221415.775501","213682.040716","214448.525599","215215.582762","215981.838238","216748.353421","217515.206529","218282.451051","222182.225138","222948.575531","209082.309326","209848.613343","210615.355148","211382.336873","212149.085172","212915.679193","222191.889274","Mapping"
"Mixed","Female","tile","32","M_jaw.wav","None","725.660726428","444","221415.775501","213682.040716","214448.525599","215215.582762","215981.838238","216748.353421","217515.206529","218282.451051","222182.225138","222948.575531","223715.090404","209848.613343","210615.355148","211382.336873","212149.085172","212915.679193","222957.869895","Mapping"
"Mixed","Female","tile","32","M_park.wav","None","727.143830154","444","221415.775501","213682.040716","214448.525599","215215.582762","215981.838238","216748.353421","217515.206529","218282.451051","222182.225138","222948.575531","223715.090404","224482.130871","210615.355148","211382.336873","212149.085172","212915.679193","223724.050861","Mapping"
"Mixed","Female","tile","32","F_tile.wav","None","726.706659421","444","221415.775501","213682.040716","214448.525599","215215.582762","215981.838238","216748.353421","217515.206529","218282.451051","222182.225138","222948.575531","223715.090404","224482.130871","225248.898957","211382.336873","212149.085172","212915.679193","224491.889304","Mapping"
"Mixed","Female","tile","32","F_dime.wav","space","326.391055249","444","221415.775501","213682.040716","214448.525599","215215.582762","215981.838238","216748.353421","217515.206529","218282.451051","222182.225138","222948.575531","223715.090404","224482.130871","225248.898957","226015.343338","212149.085172","212915.679193","225259.056842","Mapping"
"Mixed","Female","tile","32","M_dime.wav","None","727.947371546","444","221415.775501","213682.040716","214448.525599","215215.582762","215981.838238","216748.353421","217515.206529","218282.451051","222182.225138","222948.575531","223715.090404","224482.130871","225248.898957","226015.343338","226782.033203","212915.679193","226024.598129","Mapping"
"Mixed","Female","tile","32","F_greet.wav","None","728.583958931","444","221415.775501","213682.040716","214448.525599","215215.582762","215981.838238","216748.353421","217515.206529","218282.451051","222182.225138","222948.575531","223715.090404","224482.130871","225248.898957","226015.343338","226782.033203","227548.73729","226791.368997","Mapping"
"Mixed","Female","tile","32","F_tile.wav","None","729.053283576","444","221415.775501","228315.008225","214448.525599","215215.582762","215981.838238","216748.353421","217515.206529","218282.451051","222182.225138","222948.575531","223715.090404","224482.130871","225248.898957","226015.343338","226782.033203","227548.73729","227558.333099","Mapping"
"Mixed","Female","tile","32","M_greet.wav","space","349.015422631","444","221415.775501","228315.008225","229081.983148","215215.582762","215981.838238","216748.353421","217515.206529","218282.451051","222182.225138","222948.575531","223715.090404","224482.130871","225248.898957","226015.343338","226782.033203","227548.73729","228324.348348","Mapping"
"Mixed","Female","tile","32","F_tile.wav","None","730.53082265","444","221415.775501","228315.008225","229081.983148","229848.848932","215981.838238","216748.353421","217515.206529","218282.451051","222182.225138","222948.575531","223715.090404","224482.130871","225248.898957","226015.343338","226782.033203","227548.73729","229091.384178","Mapping"
"Mixed","Female","tile","32","M_priest.wav","space","446.652319282","444","221415.775501","228315.008225","229081.983148","229848.848932","230615.351129","216748.353421","217515.206529","218282.451051","222182.225138","222948.575531","223715.090404","224482.130871","225248.898957","226015.343338","226782.033203","227548.73729","229858.678476","Mapping"
"Mixed","Female","tile","32","F_dime.wav","None","731.224607211","444","221415.775501","228315.008225","229081.983148","229848.848932","230615.351129","231381.942987","217515.206529","218282.451051","222182.225138","222948.575531","223715.090404","224482.130871","225248.898957","226015.343338","226782.033203","227548.73729","230624.752777","Mapping"
"Mixed","Female","tile","32","M_cling.wav","None","731.624986511","444","221415.775501","228315.008225","229081.983148","229848.848932","230615.351129","231381.942987","232148.69685","218282.451051","222182.225138","222948.575531","223715.090404","224482.130871","225248.898957","226015.343338","226782.033203","227548.73729","231391.791699","Mapping"
"Mixed","Female","tile","32","F_greet.wav","None","732.573530171","444","221415.775501","228315.008225","229081.983148","229848.848932","230615.351129","231381.942987","232148.69685","232915.101967","222182.225138","222948.575531","223715.090404","224482.130871","225248.898957","226015.343338","226782.033203","227548.73729","232158.365005","Mapping"
"Mixed","Male","cave","13","F_romp.wav","None","733.201770112","444","236048.946137","228315.008225","229081.983148","229848.848932","230615.351129","231381.942987","232148.69685","232915.101967","222182.225138","222948.575531","223715.090404","224482.130871","225248.898957","226015.343338","226782.033203","227548.73729","232925.121961","Mapping"
"Mixed","Male","cave","13","F_jaw.wav","None","721.893450711","444","236048.946137","228315.008225","229081.983148","229848.848932","230615.351129","231381.942987","232148.69685","232915.101967","236815.642803","222948.575531","223715.090404","224482.130871","225248.898957","226015.343338","226782.033203","227548.73729","236059.732262","Mapping"
"Mixed","Male","cave","13","M_cave.wav","None","723.560822196","444","236048.946137","228315.008225","229081.983148","229848.848932","230615.351129","231381.942987","232148.69685","232915.101967","236815.642803","237581.957641","223715.090404","224482.130871","225248.898957","226015.343338","226782.033203","227548.73729","236825.242322","Mapping"
"Mixed","Male","cave","13","F_romp.wav","space","409.554935992","444","236048.946137","228315.008225","229081.983148","229848.848932","230615.351129","231381.942987","232148.69685","232915.101967","236815.642803","237581.957641","238347.998861","224482.130871","225248.898957","226015.343338","226782.033203","227548.73729","237591.658878","Mapping"
"Mixed","Male","cave","13","M_cave.wav","None","725.522526074","444","236048.946137","228315.008225","229081.983148","229848.848932","230615.351129","231381.942987","232148.69685","232915.101967","236815.642803","237581.957641","238347.998861","239115.158051","225248.898957","226015.343338","226782.033203","227548.73729","238357.089171","Mapping"
"Mixed","Male","cave","13","M_dime.wav","space","443.097135983","444","236048.946137","228315.008225","229081.983148","229848.848932","230615.351129","231381.942987","232148.69685","232915.101967","236815.642803","237581.957641","238347.998861","239115.158051","239881.825655","226015.343338","226782.033203","227548.73729","239126.078357","Mapping"
"Mixed","Male","cave","13","F_gnash.wav","None","724.964777473","444","236048.946137","228315.008225","229081.983148","229848.848932","230615.351129","231381.942987","232148.69685","232915.101967","236815.642803","237581.957641","238347.998861","239115.158051","239881.825655","240647.925308","226782.033203","227548.73729","239891.554099","Mapping"
"Mixed","Male","cave","13","F_jaw.wav","None","727.000373881","444","236048.946137","228315.008225","229081.983148","229848.848932","230615.351129","231381.942987","232148.69685","232915.101967","236815.642803","237581.957641","238347.998861","239115.158051","239881.825655","240647.925308","241415.103049","227548.73729","240657.103424","Mapping"
"Mixed","Male","cave","13","F_knife.wav","None","725.294664968","444","236048.946137","228315.008225","229081.983148","229848.848932","230615.351129","231381.942987","232148.69685","232915.101967","236815.642803","237581.957641","238347.998861","239115.158051","239881.825655","240647.925308","241415.103049","242181.817029","241425.972033","Mapping"
"Mixed","Male","cave","13","M_cave.wav","None","727.55070217","444","236048.946137","242948.096931","229081.983148","229848.848932","230615.351129","231381.942987","232148.69685","232915.101967","236815.642803","237581.957641","238347.998861","239115.158051","239881.825655","240647.925308","241415.103049","242181.817029","242191.171683","Mapping"
"Mixed","Male","cave","13","M_knife.wav","space","451.98648423","444","236048.946137","242948.096931","243714.776284","229848.848932","230615.351129","231381.942987","232148.69685","232915.101967","236815.642803","237581.957641","238347.998861","239115.158051","239881.825655","240647.925308","241415.103049","242181.817029","242957.151995","Mapping"
"Mixed","Male","cave","13","M_greet.wav","None","729.760671966","444","236048.946137","242948.096931","243714.776284","244481.675768","230615.351129","231381.942987","232148.69685","232915.101967","236815.642803","237581.957641","238347.998861","239115.158051","239881.825655","240647.925308","241415.103049","242181.817029","243723.767968","Mapping"
"Mixed","Male","cave","13","M_jaw.wav","None","729.799628258","444","236048.946137","242948.096931","243714.776284","244481.675768","245248.345227","231381.942987","232148.69685","232915.101967","236815.642803","237581.957641","238347.998861","239115.158051","239881.825655","240647.925308","241415.103049","242181.817029","244491.189646","Mapping"
"Mixed","Male","cave","13","M_cave.wav","None","730.528967455","444","236048.946137","242948.096931","243714.776284","244481.675768","245248.345227","246015.046223","232148.69685","232915.101967","236815.642803","237581.957641","238347.998861","239115.158051","239881.825655","240647.925308","241415.103049","242181.817029","245257.98061","Mapping"
"Mixed","Male","cave","13","F_priest.wav","space","504.589212127","444","236048.946137","242948.096931","243714.776284","244481.675768","245248.345227","246015.046223","246781.425987","232915.101967","236815.642803","237581.957641","238347.998861","239115.158051","239881.825655","240647.925308","241415.103049","242181.817029","246024.401186","Mapping"
"Mixed","Male","cave","13","F_dime.wav","None","731.471636798","444","236048.946137","242948.096931","243714.776284","244481.675768","245248.345227","246015.046223","246781.425987","247548.315578","236815.642803","237581.957641","238347.998861","239115.158051","239881.825655","240647.925308","241415.103049","242181.817029","246791.020559","Mapping"
"Mixed","Female","ball","10","M_jolt.wav","None","731.39558034","444","250681.663834","242948.096931","243714.776284","244481.675768","245248.345227","246015.046223","246781.425987","247548.315578","236815.642803","237581.957641","238347.998861","239115.158051","239881.825655","240647.925308","241415.103049","242181.817029","247558.517675","Mapping"
"Mixed","Female","ball","10","F_ball.wav","None","724.150105845","444","250681.663834","242948.096931","243714.776284","244481.675768","245248.345227","246015.046223","246781.425987","247548.315578","251448.166031","237581.957641","238347.998861","239115.158051","239881.825655","240647.925308","241415.103049","242181.817029","250691.487812","Mapping"
"Mixed","Female","ball","10","M_dime.wav","space","463.030150626","444","250681.663834","242948.096931","243714.776284","244481.675768","245248.345227","246015.046223","246781.425987","247548.315578","251448.166031","252214.701619","238347.998861","239115.158051","239881.825655","240647.925308","241415.103049","242181.817029","251457.910861","Mapping"
"Mixed","Female","ball","10","F_ball.wav","None","725.452343468","444","250681.663834","242948.096931","243714.776284","244481.675768","245248.345227","246015.046223","246781.425987","247548.315578","251448.166031","252214.701619","252981.564929","239115.158051","239881.825655","240647.925308","241415.103049","242181.817029","252224.135729","Mapping"
"Mixed","Female","ball","10","M_romp.wav","space","302.825874183","444","250681.663834","242948.096931","243714.776284","244481.675768","245248.345227","246015.046223","246781.425987","247548.315578","251448.166031","252214.701619","252981.564929","253748.304571","239881.825655","240647.925308","241415.103049","242181.817029","252986.102664","Mapping"
"Mixed","Female","ball","10","F_bluff.wav","None","725.013008341","444","250681.663834","242948.096931","243714.776284","244481.675768","245248.345227","246015.046223","246781.425987","247548.315578","251448.166031","252214.701619","252981.564929","253748.304571","254514.931056","240647.925308","241415.103049","242181.817029","253758.616734","Mapping"
"Mixed","Female","ball","10","M_jaw.wav","None","727.755065542","444","250681.663834","242948.096931","243714.776284","244481.675768","245248.345227","246015.046223","246781.425987","247548.315578","251448.166031","252214.701619","252981.564929","253748.304571","254514.931056","255281.562796","241415.103049","242181.817029","254523.896151","Mapping"
"Mixed","Female","ball","10","F_jolt.wav","None","727.764649782","444","250681.663834","242948.096931","243714.776284","244481.675768","245248.345227","246015.046223","246781.425987","247548.315578","251448.166031","252214.701619","252981.564929","253748.304571","254514.931056","255281.562796","256048.223908","242181.817029","255291.333906","Mapping"
"Mixed","Female","ball","10","F_ball.wav","None","728.312504478","444","250681.663834","242948.096931","243714.776284","244481.675768","245248.345227","246015.046223","246781.425987","247548.315578","251448.166031","252214.701619","252981.564929","253748.304571","254514.931056","255281.562796","256048.223908","256814.79505","256057.972139","Mapping"
"Mixed","Female","ball","10","M_cling.wav","space","616.589986254","444","250681.663834","257581.515833","243714.776284","244481.675768","245248.345227","246015.046223","246781.425987","247548.315578","251448.166031","252214.701619","252981.564929","253748.304571","254514.931056","255281.562796","256048.223908","256814.79505","256824.273064","Mapping"
"Mixed","Female","ball","10","M_lash.wav","None","728.801307734","444","250681.663834","257581.515833","258348.150974","244481.675768","245248.345227","246015.046223","246781.425987","247548.315578","251448.166031","252214.701619","252981.564929","253748.304571","254514.931056","255281.562796","256048.223908","256814.79505","257591.670317","Mapping"
"Mixed","Female","ball","10","M_romp.wav","None","730.563285761","444","250681.663834","257581.515833","258348.150974","259114.424383","245248.345227","246015.046223","246781.425987","247548.315578","251448.166031","252214.701619","252981.564929","253748.304571","254514.931056","255281.562796","256048.223908","256814.79505","258358.021947","Mapping"
"Mixed","Female","ball","10","M_jolt.wav","None","732.465319335","444","250681.663834","257581.515833","258348.150974","259114.424383","259881.219985","246015.046223","246781.425987","247548.315578","251448.166031","252214.701619","252981.564929","253748.304571","254514.931056","255281.562796","256048.223908","256814.79505","259123.778727","Mapping"
"Mixed","Female","ball","10","F_ball.wav","None","733.159103896","444","250681.663834","257581.515833","258348.150974","259114.424383","259881.219985","260648.058562","246781.425987","247548.315578","251448.166031","252214.701619","252981.564929","253748.304571","254514.931056","255281.562796","256048.223908","256814.79505","259890.5329","Mapping"
"Mixed","Female","ball","10","F_knife.wav","space","454.453686252","444","250681.663834","257581.515833","258348.150974","259114.424383","259881.219985","260648.058562","261414.733587","247548.315578","251448.166031","252214.701619","252981.564929","253748.304571","254514.931056","255281.562796","256048.223908","256814.79505","260658.350938","Mapping"
"Mixed","Female","ball","10","F_lash.wav","None","732.893215027","444","250681.663834","257581.515833","258348.150974","259114.424383","259881.219985","260648.058562","261414.733587","262181.062956","251448.166031","252214.701619","252981.564929","253748.304571","254514.931056","255281.562796","256048.223908","256814.79505","261424.657428","Mapping"
"Mixed","Female","done","47","M_reek.wav","None","734.766186215","444","265315.027085","257581.515833","258348.150974","259114.424383","259881.219985","260648.058562","261414.733587","262181.062956","251448.166031","252214.701619","252981.564929","253748.304571","254514.931056","255281.562796","256048.223908","256814.79505","262190.385455","Mapping"
"Mixed","Female","done","47","F_done.wav","None","723.402525298","444","265315.027085","257581.515833","258348.150974","259114.424383","259881.219985","260648.058562","261414.733587","262181.062956","266081.338213","252214.701619","252981.564929","253748.304571","254514.931056","255281.562796","256048.223908","256814.79505","265324.740998","Mapping"
"Mixed","Female","done","47","F_cad.wav","space","437.552733347","444","265315.027085","257581.515833","258348.150974","259114.424383","259881.219985","260648.058562","261414.733587","262181.062956","266081.338213","266848.115883","252981.564929","253748.304571","254514.931056","255281.562796","256048.223908","256814.79505","266091.123854","Mapping"
"Mixed","Female","done","47","F_reek.wav","None","724.411666393","444","265315.027085","257581.515833","258348.150974","259114.424383","259881.219985","260648.058562","261414.733587","262181.062956","266081.338213","266848.115883","267614.560264","253748.304571","254514.931056","255281.562796","256048.223908","256814.79505","266857.7086","Mapping"
"Mixed","Female","done","47","M_jolt.wav","space","616.570818238","444","265315.027085","257581.515833","258348.150974","259114.424383","259881.219985","260648.058562","261414.733587","262181.062956","266081.338213","266848.115883","267614.560264","268381.36576","254514.931056","255281.562796","256048.223908","256814.79505","267624.072287","Mapping"
"Mixed","Female","done","47","M_reek.wav","None","724.837398157","444","265315.027085","257581.515833","258348.150974","259114.424383","259881.219985","260648.058562","261414.733587","262181.062956","266081.338213","266848.115883","267614.560264","268381.36576","269148.102928","255281.562796","256048.223908","256814.79505","268391.304751","Mapping"
"Mixed","Female","done","47","M_lash.wav","None","725.861379877","444","265315.027085","257581.515833","258348.150974","259114.424383","259881.219985","260648.058562","261414.733587","262181.062956","266081.338213","266848.115883","267614.560264","268381.36576","269148.102928","269914.609763","256048.223908","256814.79505","269157.728109","Mapping"
"Mixed","Female","done","47","M_greet.wav","None","726.596284192","444","265315.027085","257581.515833","258348.150974","259114.424383","259881.219985","260648.058562","261414.733587","262181.062956","266081.338213","266848.115883","267614.560264","268381.36576","269148.102928","269914.609763","270681.237793","256814.79505","269924.493103","Mapping"
"Mixed","Female","done","47","F_done.wav","None","727.259460837","444","265315.027085","257581.515833","258348.150974","259114.424383","259881.219985","260648.058562","261414.733587","262181.062956","266081.338213","266848.115883","267614.560264","268381.36576","269148.102928","269914.609763","270681.237793","271447.857785","270691.506363","Mapping"
"Mixed","Female","done","47","M_knife.wav","space","390.928487293","444","265315.027085","272214.56651","258348.150974","259114.424383","259881.219985","260648.058562","261414.733587","262181.062956","266081.338213","266848.115883","267614.560264","268381.36576","269148.102928","269914.609763","270681.237793","271447.857785","271457.651774","Mapping"
"Mixed","Female","done","47","F_done.wav","None","728.550568223","444","265315.027085","272214.56651","272981.21309","259114.424383","259881.219985","260648.058562","261414.733587","262181.062956","266081.338213","266848.115883","267614.560264","268381.36576","269148.102928","269914.609763","270681.237793","271447.857785","272224.491279","Mapping"
"Mixed","Female","done","47","M_knife.wav","space","409.554935992","444","265315.027085","272214.56651","272981.21309","273747.9011","259881.219985","260648.058562","261414.733587","262181.062956","266081.338213","266848.115883","267614.560264","268381.36576","269148.102928","269914.609763","270681.237793","271447.857785","272990.994403","Mapping"
"Mixed","Female","done","47","F_done.wav","None","729.832400102","444","265315.027085","272214.56651","272981.21309","273747.9011","274514.097525","260648.058562","261414.733587","262181.062956","266081.338213","266848.115883","267614.560264","268381.36576","269148.102928","269914.609763","270681.237793","271447.857785","273757.377259","Mapping"
"Mixed","Female","done","47","M_knife.wav","space","405.200849753","444","265315.027085","272214.56651","272981.21309","273747.9011","274514.097525","275281.178803","261414.733587","262181.062956","266081.338213","266848.115883","267614.560264","268381.36576","269148.102928","269914.609763","270681.237793","271447.857785","274523.339021","Mapping"
"Mixed","Female","done","47","F_lash.wav","None","731.606435962","444","265315.027085","272214.56651","272981.21309","273747.9011","274514.097525","275281.178803","276047.201782","262181.062956","266081.338213","266848.115883","267614.560264","268381.36576","269148.102928","269914.609763","270681.237793","271447.857785","275290.944966","Mapping"
"Mixed","Female","done","47","F_romp.wav","None","732.334538829","444","265315.027085","272214.56651","272981.21309","273747.9011","274514.097525","275281.178803","276047.201782","276814.097865","266081.338213","266848.115883","267614.560264","268381.36576","269148.102928","269914.609763","270681.237793","271447.857785","276057.780142","Mapping"
"Mixed","Female","done","44","M_gnash.wav","None","734.351275954","444","279948.188755","272214.56651","272981.21309","273747.9011","274514.097525","275281.178803","276047.201782","276814.097865","266081.338213","266848.115883","267614.560264","268381.36576","269148.102928","269914.609763","270681.237793","271447.857785","276823.536923","Mapping"
"Mixed","Female","done","44","F_done.wav","None","723.080676049","444","279948.188755","272214.56651","272981.21309","273747.9011","274514.097525","275281.178803","276047.201782","276814.097865","280714.391672","266848.115883","267614.560264","268381.36576","269148.102928","269914.609763","270681.237793","271447.857785","279958.12249","Mapping"
"Mixed","Female","done","44","F_knife.wav","space","428.381110542","444","279948.188755","272214.56651","272981.21309","273747.9011","274514.097525","275281.178803","276047.201782","276814.097865","280714.391672","281480.991877","267614.560264","268381.36576","269148.102928","269914.609763","270681.237793","271447.857785","280724.082397","Mapping"
"Mixed","Female","done","44","M_jaw.wav","None","724.14361313","444","279948.188755","272214.56651","272981.21309","273747.9011","274514.097525","275281.178803","276047.201782","276814.097865","280714.391672","281480.991877","282247.90311","268381.36576","269148.102928","269914.609763","270681.237793","271447.857785","281490.958693","Mapping"
"Mixed","Female","done","44","M_bluff.wav","None","725.371649489","444","279948.188755","272214.56651","272981.21309","273747.9011","274514.097525","275281.178803","276047.201782","276814.097865","280714.391672","281480.991877","282247.90311","283013.991324","269148.102928","269914.609763","270681.237793","271447.857785","282257.608057","Mapping"
"Mixed","Female","done","44","M_gnash.wav","None","727.561523207","444","279948.188755","272214.56651","272981.21309","273747.9011","274514.097525","275281.178803","276047.201782","276814.097865","280714.391672","281480.991877","282247.90311","283013.991324","283780.992217","269914.609763","270681.237793","271447.857785","283023.057828","Mapping"
"Mixed","Female","done","44","F_depth.wav","None","728.235520888","444","279948.188755","272214.56651","272981.21309","273747.9011","274514.097525","275281.178803","276047.201782","276814.097865","280714.391672","281480.991877","282247.90311","283013.991324","283780.992217","284547.752264","270681.237793","271447.857785","283790.337904","Mapping"
"Mixed","Female","done","44","M_cad.wav","None","727.8672955","444","279948.188755","272214.56651","272981.21309","273747.9011","274514.097525","275281.178803","276047.201782","276814.097865","280714.391672","281480.991877","282247.90311","283013.991324","283780.992217","284547.752264","285314.315059","271447.857785","284558.385967","Mapping"
"Mixed","Female","done","44","M_priest.wav","None","729.390900582","444","279948.188755","272214.56651","272981.21309","273747.9011","274514.097525","275281.178803","276047.201782","276814.097865","280714.391672","281480.991877","282247.90311","283013.991324","283780.992217","284547.752264","285314.315059","286080.961022","285324.305991","Mapping"
"Mixed","Female","done","44","F_done.wav","None","731.087025255","444","279948.188755","286847.794652","272981.21309","273747.9011","274514.097525","275281.178803","276047.201782","276814.097865","280714.391672","281480.991877","282247.90311","283013.991324","283780.992217","284547.752264","285314.315059","286080.961022","286090.256314","Mapping"
"Mixed","Female","done","44","M_lash.wav","space","406.679006759","444","279948.188755","286847.794652","287614.303342","273747.9011","274514.097525","275281.178803","276047.201782","276814.097865","280714.391672","281480.991877","282247.90311","283013.991324","283780.992217","284547.752264","285314.315059","286080.961022","286857.623886","Mapping"
"Mixed","Female","done","44","F_done.wav","None","731.369918678","444","279948.188755","286847.794652","287614.303342","288380.506877","274514.097525","275281.178803","276047.201782","276814.097865","280714.391672","281480.991877","282247.90311","283013.991324","283780.992217","284547.752264","285314.315059","286080.961022","287624.14587","Mapping"
"Mixed","Female","done","44","M_knife.wav","space","402.48259902","444","279948.188755","286847.794652","287614.303342","288380.506877","289147.027934","275281.178803","276047.201782","276814.097865","280714.391672","281480.991877","282247.90311","283013.991324","283780.992217","284547.752264","285314.315059","286080.961022","288389.809589","Mapping"
"Mixed","Female","done","44","F_done.wav","None","733.952442184","444","279948.188755","286847.794652","287614.303342","288380.506877","289147.027934","289914.173211","276047.201782","276814.097865","280714.391672","281480.991877","282247.90311","283013.991324","283780.992217","284547.752264","285314.315059","286080.961022","289156.3965","Mapping"
"Mixed","Female","done","44","F_lash.wav","space","380.85346017","444","279948.188755","286847.794652","287614.303342","288380.506877","289147.027934","289914.173211","290680.889973","276814.097865","280714.391672","281480.991877","282247.90311","283013.991324","283780.992217","284547.752264","285314.315059","286080.961022","289923.434803","Mapping"
"Mixed","Female","done","44","F_bluff.wav","None","734.095589723","444","279948.188755","286847.794652","287614.303342","288380.506877","289147.027934","289914.173211","290680.889973","291447.32879","280714.391672","281480.991877","282247.90311","283013.991324","283780.992217","284547.752264","285314.315059","286080.961022","290690.446208","Mapping"
"Mixed","Female","cave","24","M_lash.wav","None","735.351760406","444","294581.364029","286847.794652","287614.303342","288380.506877","289147.027934","289914.173211","290680.889973","291447.32879","280714.391672","281480.991877","282247.90311","283013.991324","283780.992217","284547.752264","285314.315059","286080.961022","291457.030335","Mapping"
"Mixed","Female","cave","24","F_jaw.wav","None","722.00382594","444","294581.364029","286847.794652","287614.303342","288380.506877","289147.027934","289914.173211","290680.889973","291447.32879","295347.545304","281480.991877","282247.90311","283013.991324","283780.992217","284547.752264","285314.315059","286080.961022","294591.615903","Mapping"
"Mixed","Female","cave","24","F_jaw.wav","None","724.124753848","444","294581.364029","286847.794652","287614.303342","288380.506877","289147.027934","289914.173211","290680.889973","291447.32879","295347.545304","296113.896315","282247.90311","283013.991324","283780.992217","284547.752264","285314.315059","286080.961022","295357.374538","Mapping"
"Mixed","Female","cave","24","F_cave.wav","None","725.887659471","444","294581.364029","286847.794652","287614.303342","288380.506877","289147.027934","289914.173211","290680.889973","291447.32879","295347.545304","296113.896315","296880.484771","283013.991324","283780.992217","284547.752264","285314.315059","286080.961022","296123.237674","Mapping"
"Mixed","Female","cave","24","M_cad.wav","space","598.309812136","444","294581.364029","286847.794652","287614.303342","288380.506877","289147.027934","289914.173211","290680.889973","291447.32879","295347.545304","296113.896315","296880.484771","297647.40126","283780.992217","284547.752264","285314.315059","286080.961022","296889.834787","Mapping"
"Mixed","Female","cave","24","M_romp.wav","None","726.304115728","444","294581.364029","286847.794652","287614.303342","288380.506877","289147.027934","289914.173211","290680.889973","291447.32879","295347.545304","296113.896315","296880.484771","297647.40126","298413.667558","284547.752264","285314.315059","286080.961022","297656.867216","Mapping"
"Mixed","Female","cave","24","F_cave.wav","None","727.35035792","444","294581.364029","286847.794652","287614.303342","288380.506877","289147.027934","289914.173211","290680.889973","291447.32879","295347.545304","296113.896315","296880.484771","297647.40126","298413.667558","299180.726266","285314.315059","286080.961022","298423.497101","Mapping"
"Mixed","Female","cave","24","M_cad.wav","space","465.677910019","444","294581.364029","286847.794652","287614.303342","288380.506877","289147.027934","289914.173211","290680.889973","291447.32879","295347.545304","296113.896315","296880.484771","297647.40126","298413.667558","299180.726266","299947.331418","286080.961022","299190.451927","Mapping"
"Mixed","Female","cave","24","M_reek.wav","None","727.794330567","444","294581.364029","286847.794652","287614.303342","288380.506877","289147.027934","289914.173211","290680.889973","291447.32879","295347.545304","296113.896315","296880.484771","297647.40126","298413.667558","299180.726266","299947.331418","300714.03705","299957.184768","Mapping"
"Mixed","Female","cave","24","F_cave.wav","None","729.024221655","444","294581.364029","301480.713003","287614.303342","288380.506877","289147.027934","289914.173211","290680.889973","291447.32879","295347.545304","296113.896315","296880.484771","297647.40126","298413.667558","299180.726266","299947.331418","300714.03705","300723.829184","Mapping"
"Mixed","Female","cave","24","M_cling.wav","space","437.4120594","444","294581.364029","301480.713003","302247.541996","288380.506877","289147.027934","289914.173211","290680.889973","291447.32879","295347.545304","296113.896315","296880.484771","297647.40126","298413.667558","299180.726266","299947.331418","300714.03705","301490.664361","Mapping"
"Mixed","Female","cave","24","M_romp.wav","None","729.737174697","444","294581.364029","301480.713003","302247.541996","303014.020386","289147.027934","289914.173211","290680.889973","291447.32879","295347.545304","296113.896315","296880.484771","297647.40126","298413.667558","299180.726266","299947.331418","300714.03705","302257.332274","Mapping"
"Mixed","Female","cave","24","F_cling.wav","None","731.413821224","444","294581.364029","301480.713003","302247.541996","303014.020386","303780.422102","289914.173211","290680.889973","291447.32879","295347.545304","296113.896315","296880.484771","297647.40126","298413.667558","299180.726266","299947.331418","300714.03705","303023.536428","Mapping"
"Mixed","Female","cave","24","F_cave.wav","None","733.143645339","444","294581.364029","301480.713003","302247.541996","303014.020386","303780.422102","304546.89029","290680.889973","291447.32879","295347.545304","296113.896315","296880.484771","297647.40126","298413.667558","299180.726266","299947.331418","300714.03705","303789.510557","Mapping"
"Mixed","Female","cave","24","M_knife.wav","space","459.963152651","444","294581.364029","301480.713003","302247.541996","303014.020386","303780.422102","304546.89029","305313.926737","291447.32879","295347.545304","296113.896315","296880.484771","297647.40126","298413.667558","299180.726266","299947.331418","300714.03705","304556.005334","Mapping"
"Mixed","Female","cave","24","F_gnash.wav","None","733.282154892","444","294581.364029","301480.713003","302247.541996","303014.020386","303780.422102","304546.89029","305313.926737","306080.565898","295347.545304","296113.896315","296880.484771","297647.40126","298413.667558","299180.726266","299947.331418","300714.03705","305323.514817","Mapping"
"Mixed","Male","tile","25","M_bluff.wav","None","733.923071064","444","309214.312369","301480.713003","302247.541996","303014.020386","303780.422102","304546.89029","305313.926737","306080.565898","295347.545304","296113.896315","296880.484771","297647.40126","298413.667558","299180.726266","299947.331418","300714.03705","306090.619283","Mapping"
"Mixed","Male","tile","25","F_depth.wav","None","723.291841336","444","309214.312369","301480.713003","302247.541996","303014.020386","303780.422102","304546.89029","305313.926737","306080.565898","309980.105323","296113.896315","296880.484771","297647.40126","298413.667558","299180.726266","299947.331418","300714.03705","309224.356479","Mapping"
"Mixed","Male","tile","25","M_jolt.wav","None","731.261399109","444","309214.312369","301480.713003","302247.541996","303014.020386","303780.422102","304546.89029","305313.926737","306080.565898","309980.105323","310747.323256","296880.484771","297647.40126","298413.667558","299180.726266","299947.331418","300714.03705","309989.399378","Mapping"
"Mixed","Male","tile","25","M_tile.wav","None","731.205747463","444","309214.312369","301480.713003","302247.541996","303014.020386","303780.422102","304546.89029","305313.926737","306080.565898","309980.105323","310747.323256","311513.840911","297647.40126","298413.667558","299180.726266","299947.331418","300714.03705","310757.404466","Mapping"
"Mixed","Male","tile","25","F_jolt.wav","space","604.234188795","444","309214.312369","301480.713003","302247.541996","303014.020386","303780.422102","304546.89029","305313.926737","306080.565898","309980.105323","310747.323256","311513.840911","312280.432459","298413.667558","299180.726266","299947.331418","300714.03705","311523.632735","Mapping"
"Mixed","Male","tile","25","F_bluff.wav","None","733.726127539","444","309214.312369","301480.713003","302247.541996","303014.020386","303780.422102","304546.89029","305313.926737","306080.565898","309980.105323","310747.323256","311513.840911","312280.432459","313046.831392","299180.726266","299947.331418","300714.03705","312290.246853","Mapping"
"Mixed","Male","tile","25","F_depth.wav","None","728.483168408","444","309214.312369","301480.713003","302247.541996","303014.020386","303780.422102","304546.89029","305313.926737","306080.565898","309980.105323","310747.323256","311513.840911","312280.432459","313046.831392","313830.826918","299947.331418","300714.03705","313063.551169","Mapping"
"Mixed","Male","tile","25","M_tile.wav","None","718.961561099","444","309214.312369","301480.713003","302247.541996","303014.020386","303780.422102","304546.89029","305313.926737","306080.565898","309980.105323","310747.323256","311513.840911","312280.432459","313046.831392","313830.826918","314597.684045","300714.03705","313840.940901","Mapping"
"Mixed","Male","tile","25","F_cling.wav","space","335.811253637","444","309214.312369","301480.713003","302247.541996","303014.020386","303780.422102","304546.89029","305313.926737","306080.565898","309980.105323","310747.323256","311513.840911","312280.432459","313046.831392","313830.826918","314597.684045","315364.283013","314607.99559","Mapping"
"Mixed","Male","tile","25","F_cling.wav","None","720.023571514","444","309214.312369","316130.268272","302247.541996","303014.020386","303780.422102","304546.89029","305313.926737","306080.565898","309980.105323","310747.323256","311513.840911","312280.432459","313046.831392","313830.826918","314597.684045","315364.283013","315374.452647","Mapping"
"Mixed","Male","tile","25","M_depth.wav","None","722.169851884","444","309214.312369","316130.268272","316897.63399","303014.020386","303780.422102","304546.89029","305313.926737","306080.565898","309980.105323","310747.323256","311513.840911","312280.432459","313046.831392","313830.826918","314597.684045","315364.283013","316140.274663","Mapping"
"Mixed","Male","tile","25","M_tile.wav","None","722.73069201","444","309214.312369","316130.268272","316897.63399","317663.690977","303780.422102","304546.89029","305313.926737","306080.565898","309980.105323","310747.323256","311513.840911","312280.432459","313046.831392","313830.826918","314597.684045","315364.283013","316907.788784","Mapping"
"Mixed","Male","tile","25","F_knife.wav","space","302.329960279","444","309214.312369","316130.268272","316897.63399","317663.690977","318430.47545","304546.89029","305313.926737","306080.565898","309980.105323","310747.323256","311513.840911","312280.432459","313046.831392","313830.826918","314597.684045","315364.283013","317673.431788","Mapping"
"Mixed","Male","tile","25","M_tile.wav","None","696.568764746","444","309214.312369","316130.268272","316897.63399","317663.690977","318430.47545","319197.193449","305313.926737","306080.565898","309980.105323","310747.323256","311513.840911","312280.432459","313046.831392","313830.826918","314597.684045","315364.283013","318469.360163","Mapping"
"Mixed","Male","tile","25","M_cling.wav","space","417.138954625","444","309214.312369","316130.268272","316897.63399","317663.690977","318430.47545","319197.193449","319963.728419","306080.565898","309980.105323","310747.323256","311513.840911","312280.432459","313046.831392","313830.826918","314597.684045","315364.283013","319206.621377","Mapping"
"Mixed","Male","tile","25","F_jaw.wav","None","727.371690795","444","309214.312369","316130.268272","316897.63399","317663.690977","318430.47545","319197.193449","319963.728419","320730.342845","309980.105323","310747.323256","311513.840911","312280.432459","313046.831392","313830.826918","314597.684045","315364.283013","319973.312169","Mapping"
"Mixed","Female","ball","12","F_bluff.wav","None","729.163967539","444","323864.061491","316130.268272","316897.63399","317663.690977","318430.47545","319197.193449","319963.728419","320730.342845","309980.105323","310747.323256","311513.840911","312280.432459","313046.831392","313830.826918","314597.684045","315364.283013","320739.597327","Mapping"
"Mixed","Female","ball","12","F_gnash.wav","None","723.226914648","444","323864.061491","316130.268272","316897.63399","317663.690977","318430.47545","319197.193449","319963.728419","320730.342845","324629.9608","310747.323256","311513.840911","312280.432459","313046.831392","313830.826918","314597.684045","315364.283013","323873.947304","Mapping"
"Mixed","Female","ball","12","F_ball.wav","None","726.624110248","444","323864.061491","316130.268272","316897.63399","317663.690977","318430.47545","319197.193449","319963.728419","320730.342845","324629.9608","325397.035276","311513.840911","312280.432459","313046.831392","313830.826918","314597.684045","315364.283013","324638.918475","Mapping"
"Mixed","Female","ball","12","F_knife.wav","space","552.917621098","444","323864.061491","316130.268272","316897.63399","317663.690977","318430.47545","319197.193449","319963.728419","320730.342845","324629.9608","325397.035276","326163.578593","312280.432459","313046.831392","313830.826918","314597.684045","315364.283013","325406.685808","Mapping"
"Mixed","Female","ball","12","M_priest.wav","None","727.098072413","444","323864.061491","316130.268272","316897.63399","317663.690977","318430.47545","319197.193449","319963.728419","320730.342845","324629.9608","325397.035276","326163.578593","326930.325037","313046.831392","313830.826918","314597.684045","315364.283013","326172.935411","Mapping"
"Mixed","Female","ball","12","M_cling.wav","None","727.879044134","444","323864.061491","316130.268272","316897.63399","317663.690977","318430.47545","319197.193449","319963.728419","320730.342845","324629.9608","325397.035276","326163.578593","326930.325037","327696.469829","313830.826918","314597.684045","315364.283013","326940.153653","Mapping"
"Mixed","Female","ball","12","M_jaw.wav","None","730.710452422","444","323864.061491","316130.268272","316897.63399","317663.690977","318430.47545","319197.193449","319963.728419","320730.342845","324629.9608","325397.035276","326163.578593","326930.325037","327696.469829","328463.542141","314597.684045","315364.283013","327705.511599","Mapping"
"Mixed","Female","ball","12","M_cad.wav","None","731.284895912","444","323864.061491","316130.268272","316897.63399","317663.690977","318430.47545","319197.193449","319963.728419","320730.342845","324629.9608","325397.035276","326163.578593","326930.325037","327696.469829","328463.542141","329230.272199","315364.283013","328472.936678","Mapping"
"Mixed","Female","ball","12","F_ball.wav","None","732.106368989","444","323864.061491","316130.268272","316897.63399","317663.690977","318430.47545","319197.193449","319963.728419","320730.342845","324629.9608","325397.035276","326163.578593","326930.325037","327696.469829","328463.542141","329230.272199","329996.527366","329240.019812","Mapping"
"Mixed","Female","ball","12","F_romp.wav","space","409.951604903","444","323864.061491","330763.488377","316897.63399","317663.690977","318430.47545","319197.193449","319963.728419","320730.342845","324629.9608","325397.035276","326163.578593","326930.325037","327696.469829","328463.542141","329230.272199","329996.527366","330005.575011","Mapping"
"Mixed","Female","ball","12","F_ball.wav","None","733.357902151","444","323864.061491","330763.488377","331529.701496","317663.690977","318430.47545","319197.193449","319963.728419","320730.342845","324629.9608","325397.035276","326163.578593","326930.325037","327696.469829","328463.542141","329230.272199","329996.527366","330773.082948","Mapping"
"Mixed","Female","ball","12","M_reek.wav","space","380.631473847","444","323864.061491","330763.488377","331529.701496","332296.713829","318430.47545","319197.193449","319963.728419","320730.342845","324629.9608","325397.035276","326163.578593","326930.325037","327696.469829","328463.542141","329230.272199","329996.527366","331538.914857","Mapping"
"Mixed","Female","ball","12","M_jolt.wav","None","734.48731238","444","323864.061491","330763.488377","331529.701496","332296.713829","333080.675345","319197.193449","319963.728419","320730.342845","324629.9608","325397.035276","326163.578593","326930.325037","327696.469829","328463.542141","329230.272199","329996.527366","332306.24873","Mapping"
"Mixed","Female","ball","12","F_ball.wav","None","718.30178611","444","323864.061491","330763.488377","331529.701496","332296.713829","333080.675345","333847.077679","319963.728419","320730.342845","324629.9608","325397.035276","326163.578593","326930.325037","327696.469829","328463.542141","329230.272199","329996.527366","333090.498087","Mapping"
"Mixed","Female","ball","12","M_jaw.wav","space","454.139875714","444","323864.061491","330763.488377","331529.701496","332296.713829","333080.675345","333847.077679","334613.292036","320730.342845","324629.9608","325397.035276","326163.578593","326930.325037","327696.469829","328463.542141","329230.272199","329996.527366","333857.332954","Mapping"
"Mixed","Female","ball","12","M_gnash.wav","None","721.055591479","444","323864.061491","330763.488377","331529.701496","332296.713829","333080.675345","333847.077679","334613.292036","335380.338377","324629.9608","325397.035276","326163.578593","326930.325037","327696.469829","328463.542141","329230.272199","329996.527366","334622.41481","Mapping"
"Mixed","Female","tile","33","M_knife.wav","None","720.919864718","444","338513.760217","330763.488377","331529.701496","332296.713829","333080.675345","333847.077679","334613.292036","335380.338377","324629.9608","325397.035276","326163.578593","326930.325037","327696.469829","328463.542141","329230.272199","329996.527366","335390.690424","Mapping"
"Mixed","Female","tile","33","F_tile.wav","None","723.350584507","444","338513.760217","330763.488377","331529.701496","332296.713829","333080.675345","333847.077679","334613.292036","335380.338377","339279.652415","325397.035276","326163.578593","326930.325037","327696.469829","328463.542141","329230.272199","329996.527366","338523.963551","Mapping"
"Mixed","Female","tile","33","M_park.wav","space","630.696322769","444","338513.760217","330763.488377","331529.701496","332296.713829","333080.675345","333847.077679","334613.292036","335380.338377","339279.652415","340046.254784","326163.578593","326930.325037","327696.469829","328463.542141","329230.272199","329996.527366","339288.69604","Mapping"
"Mixed","Female","tile","33","F_jaw.wav","None","727.064681705","444","338513.760217","330763.488377","331529.701496","332296.713829","333080.675345","333847.077679","334613.292036","335380.338377","339279.652415","340046.254784","340813.29958","326930.325037","327696.469829","328463.542141","329230.272199","329996.527366","340055.250487","Mapping"
"Mixed","Female","tile","33","M_park.wav","None","727.538335137","444","338513.760217","330763.488377","331529.701496","332296.713829","333080.675345","333847.077679","334613.292036","335380.338377","339279.652415","340046.254784","340813.29958","341579.949562","327696.469829","328463.542141","329230.272199","329996.527366","340822.826134","Mapping"
"Mixed","Female","tile","33","M_lash.wav","None","728.678256739","444","338513.760217","330763.488377","331529.701496","332296.713829","333080.675345","333847.077679","334613.292036","335380.338377","339279.652415","340046.254784","340813.29958","341579.949562","342346.147841","328463.542141","329230.272199","329996.527366","341589.925344","Mapping"
"Mixed","Female","tile","33","F_tile.wav","None","731.796577573","444","338513.760217","330763.488377","331529.701496","332296.713829","333080.675345","333847.077679","334613.292036","335380.338377","339279.652415","340046.254784","340813.29958","341579.949562","342346.147841","343113.249215","329230.272199","329996.527366","342355.009981","Mapping"
"Mixed","Female","tile","33","M_cling.wav","space","596.579678822","444","338513.760217","330763.488377","331529.701496","332296.713829","333080.675345","333847.077679","334613.292036","335380.338377","339279.652415","340046.254784","340813.29958","341579.949562","342346.147841","343113.249215","343880.003698","329996.527366","343122.684254","Mapping"
"Mixed","Female","tile","33","M_jaw.wav","None","731.848827563","444","338513.760217","330763.488377","331529.701496","332296.713829","333080.675345","333847.077679","334613.292036","335380.338377","339279.652415","340046.254784","340813.29958","341579.949562","342346.147841","343113.249215","343880.003698","344646.550415","343889.632897","Mapping"
"Mixed","Female","tile","33","F_tile.wav","None","733.722726814","444","338513.760217","345413.044265","331529.701496","332296.713829","333080.675345","333847.077679","334613.292036","335380.338377","339279.652415","340046.254784","340813.29958","341579.949562","342346.147841","343113.249215","343880.003698","344646.550415","344655.96443","Mapping"
"Mixed","Female","tile","33","F_reek.wav","space","440.677855629","444","338513.760217","345413.044265","346179.729492","332296.713829","333080.675345","333847.077679","334613.292036","335380.338377","339279.652415","340046.254784","340813.29958","341579.949562","342346.147841","343113.249215","343880.003698","344646.550415","345422.580712","Mapping"
"Mixed","Female","tile","33","M_jaw.wav","None","735.742864199","444","338513.760217","345413.044265","346179.729492","346963.599493","333080.675345","333847.077679","334613.292036","335380.338377","339279.652415","340046.254784","340813.29958","341579.949562","342346.147841","343113.249215","343880.003698","344646.550415","346188.754258","Mapping"
"Mixed","Female","tile","33","F_dime.wav","None","719.430886675","444","338513.760217","345413.044265","346179.729492","346963.599493","347729.87383","333847.077679","334613.292036","335380.338377","339279.652415","340046.254784","340813.29958","341579.949562","342346.147841","343113.249215","343880.003698","344646.550415","346973.458408","Mapping"
"Mixed","Female","tile","33","F_tile.wav","None","722.330931108","444","338513.760217","345413.044265","346179.729492","346963.599493","347729.87383","348497.091762","334613.292036","335380.338377","339279.652415","340046.254784","340813.29958","341579.949562","342346.147841","343113.249215","343880.003698","344646.550415","347738.783892","Mapping"
"Mixed","Female","tile","33","M_reek.wav","space","476.745074149","444","338513.760217","345413.044265","346179.729492","346963.599493","347729.87383","348497.091762","349263.239028","335380.338377","339279.652415","340046.254784","340813.29958","341579.949562","342346.147841","343113.249215","343880.003698","344646.550415","348506.446416","Mapping"
"Mixed","Female","tile","33","F_dime.wav","None","723.022242077","444","338513.760217","345413.044265","346179.729492","346963.599493","347729.87383","348497.091762","349263.239028","350029.826557","339279.652415","340046.254784","340813.29958","341579.949562","342346.147841","343113.249215","343880.003698","344646.550415","349272.683033","Mapping"
"Mixed","Female","cave","22","F_romp.wav","None","724.564398173","444","353163.509647","345413.044265","346179.729492","346963.599493","347729.87383","348497.091762","349263.239028","350029.826557","339279.652415","340046.254784","340813.29958","341579.949562","342346.147841","343113.249215","343880.003698","344646.550415","350039.27118","Mapping"
"Mixed","Female","cave","22","F_cave.wav","None","723.694075365","444","353163.509647","345413.044265","346179.729492","346963.599493","347729.87383","348497.091762","349263.239028","350029.826557","353929.787694","340046.254784","340813.29958","341579.949562","342346.147841","343113.249215","343880.003698","344646.550415","353173.150904","Mapping"
"Mixed","Female","cave","22","M_cad.wav","space","475.888973568","444","353163.509647","345413.044265","346179.729492","346963.599493","347729.87383","348497.091762","349263.239028","350029.826557","353929.787694","354696.512495","340813.29958","341579.949562","342346.147841","343113.249215","343880.003698","344646.550415","353939.222114","Mapping"
"Mixed","Female","cave","22","F_cave.wav","None","725.625171326","444","353163.509647","345413.044265","346179.729492","346963.599493","347729.87383","348497.091762","349263.239028","350029.826557","353929.787694","354696.512495","355463.048083","341579.949562","342346.147841","343113.249215","343880.003698","344646.550415","354705.607134","Mapping"
"Mixed","Female","cave","22","F_cling.wav","space","483.961176127","444","353163.509647","345413.044265","346179.729492","346963.599493","347729.87383","348497.091762","349263.239028","350029.826557","353929.787694","354696.512495","355463.048083","356229.742276","342346.147841","343113.249215","343880.003698","344646.550415","355467.130715","Mapping"
"Mixed","Female","cave","22","M_cling.wav","None","727.229780052","444","353163.509647","345413.044265","346179.729492","346963.599493","347729.87383","348497.091762","349263.239028","350029.826557","353929.787694","354696.512495","355463.048083","356229.742276","356996.416682","343113.249215","343880.003698","344646.550415","356238.941416","Mapping"
"Mixed","Female","cave","22","F_cave.wav","None","728.367228527","444","353163.509647","345413.044265","346179.729492","346963.599493","347729.87383","348497.091762","349263.239028","350029.826557","353929.787694","354696.512495","355463.048083","356229.742276","356996.416682","357763.029872","343880.003698","344646.550415","357005.890058","Mapping"
"Mixed","Female","cave","22","M_reek.wav","space","386.944790371","444","353163.509647","345413.044265","346179.729492","346963.599493","347729.87383","348497.091762","349263.239028","350029.826557","353929.787694","354696.512495","355463.048083","356229.742276","356996.416682","357763.029872","358529.662231","344646.550415","357772.103797","Mapping"
"Mixed","Female","cave","22","F_dime.wav","None","730.037072673","444","353163.509647","345413.044265","346179.729492","346963.599493","347729.87383","348497.091762","349263.239028","350029.826557","353929.787694","354696.512495","355463.048083","356229.742276","356996.416682","357763.029872","358529.662231","359296.054362","358538.889505","Mapping"
"Mixed","Female","cave","22","M_dime.wav","None","731.751129031","444","353163.509647","360062.956629","346179.729492","346963.599493","347729.87383","348497.091762","349263.239028","350029.826557","353929.787694","354696.512495","355463.048083","356229.742276","356996.416682","357763.029872","358529.662231","359296.054362","359305.096751","Mapping"
"Mixed","Female","cave","22","F_cave.wav","None","733.176726848","444","353163.509647","360062.956629","360829.67803","346963.599493","347729.87383","348497.091762","349263.239028","350029.826557","353929.787694","354696.512495","355463.048083","356229.742276","356996.416682","357763.029872","358529.662231","359296.054362","360072.04694","Mapping"
"Mixed","Female","cave","22","M_greet.wav","space","439.666550606","444","353163.509647","360062.956629","360829.67803","361596.072325","347729.87383","348497.091762","349263.239028","350029.826557","353929.787694","354696.512495","355463.048083","356229.742276","356996.416682","357763.029872","358529.662231","359296.054362","360839.352059","Mapping"
"Mixed","Female","cave","22","M_cad.wav","None","734.535234049","444","353163.509647","360062.956629","360829.67803","361596.072325","362362.623681","348497.091762","349263.239028","350029.826557","353929.787694","354696.512495","355463.048083","356229.742276","356996.416682","357763.029872","358529.662231","359296.054362","361605.081941","Mapping"
"Mixed","Female","cave","22","M_lash.wav","None","735.683812294","444","353163.509647","360062.956629","360829.67803","361596.072325","362362.623681","363146.691862","349263.239028","350029.826557","353929.787694","354696.512495","355463.048083","356229.742276","356996.416682","357763.029872","358529.662231","359296.054362","362371.902587","Mapping"
