Condition,Talker,Target,Trial,current_stimulus,response_response,response_time_response,subject_nr,time_Audio1,time_Audio10,time_Audio11,time_Audio12,time_Audio13,time_Audio14,time_Audio15,time_Audio16,time_Audio2,time_Audio3,time_Audio4,time_Audio5,time_Audio6,time_Audio7,time_Audio8,time_Audio9,time_response
Blocked,Male,tile,14,M_jaw.wav,NA,NA,3411,152485.4758,NA,NA,NA,NA,NA,NA,NA,NA,NA,NA,NA,NA,NA,NA,NA,NA
Blocked,Male,tile,14,M_bluff.wav,None,721.2467259,3411,152485.4758,NA,NA,NA,NA,NA,NA,NA,153252.048,NA,NA,NA,NA,NA,NA,NA,152499.9083
Blocked,Male,tile,14,M_cad.wav,None,725.9489559,3411,152485.4758,NA,NA,NA,NA,NA,NA,NA,153252.048,154018.7029,NA,NA,NA,NA,NA,NA,153262.2394
Blocked,Male,tile,14,M_romp.wav,None,726.4065337,3411,152485.4758,NA,NA,NA,NA,NA,NA,NA,153252.048,154018.7029,154785.3218,NA,NA,NA,NA,NA,154028.7881
Blocked,Male,tile,14,M_tile.wav,None,727.2944818,3411,152485.4758,NA,NA,NA,NA,NA,NA,NA,153252.048,154018.7029,154785.3218,155552.2747,NA,NA,NA,NA,154795.0519
Blocked,Male,tile,14,M_knife.wav,space,495.9703786,3411,152485.4758,NA,NA,NA,NA,NA,NA,NA,153252.048,154018.7029,154785.3218,155552.2747,156318.791,NA,NA,NA,155562.4271
Blocked,Male,tile,14,M_lash.wav,None,728.1870679,3411,152485.4758,NA,NA,NA,NA,NA,NA,NA,153252.048,154018.7029,154785.3218,155552.2747,156318.791,157085.4817,NA,NA,156328.7387
Blocked,Male,tile,14,M_tile.wav,None,728.6458821,3411,152485.4758,NA,NA,NA,NA,NA,NA,NA,153252.048,154018.7029,154785.3218,155552.2747,156318.791,157085.4817,157852.05,NA,157095.2368
Blocked,Male,tile,14,M_depth.wav,space,629.0868572,3411,152485.4758,NA,NA,NA,NA,NA,NA,NA,153252.048,154018.7029,154785.3218,155552.2747,156318.791,157085.4817,157852.05,158618.8297,157861.2992
Blocked,Male,tile,14,M_tile.wav,None,725.674409,3411,152485.4758,159386.0426,NA,NA,NA,NA,NA,NA,153252.048,154018.7029,154785.3218,155552.2747,156318.791,157085.4817,157852.05,158618.8297,158628.4932
Blocked,Male,tile,14,M_jolt.wav,space,430.1382345,3411,152485.4758,159386.0426,160152.9605,NA,NA,NA,NA,NA,153252.048,154018.7029,154785.3218,155552.2747,156318.791,157085.4817,157852.05,158618.8297,159396.2147
Blocked,Male,tile,14,M_lash.wav,None,721.3286571,3411,152485.4758,159386.0426,160152.9605,160902.9277,NA,NA,NA,NA,153252.048,154018.7029,154785.3218,155552.2747,156318.791,157085.4817,157852.05,158618.8297,160162.9846
Blocked,Male,tile,14,M_park.wav,None,735.0318744,3411,152485.4758,159386.0426,160152.9605,160902.9277,161669.141,NA,NA,NA,153252.048,154018.7029,154785.3218,155552.2747,156318.791,157085.4817,157852.05,158618.8297,160912.6172
Blocked,Male,tile,14,M_greet.wav,None,736.04071,3411,152485.4758,159386.0426,160152.9605,160902.9277,161669.141,162452.7367,NA,NA,153252.048,154018.7029,154785.3218,155552.2747,156318.791,157085.4817,157852.05,158618.8297,161678.6543
Blocked,Male,tile,14,M_tile.wav,None,716.6326116,3411,152485.4758,159386.0426,160152.9605,160902.9277,161669.141,162452.7367,163202.3081,NA,153252.048,154018.7029,154785.3218,155552.2747,156318.791,157085.4817,157852.05,158618.8297,162465.0174
Blocked,Male,tile,14,M_knife.wav,space,438.2324144,3411,152485.4758,159386.0426,160152.9605,160902.9277,161669.141,162452.7367,163202.3081,163968.8686,153252.048,154018.7029,154785.3218,155552.2747,156318.791,157085.4817,157852.05,158618.8297,163212.0925
Blocked,Male,tile,16,M_bluff.wav,None,730.0526248,3411,167169.3832,159386.0426,160152.9605,160902.9277,161669.141,162452.7367,163202.3081,163968.8686,153252.048,154018.7029,154785.3218,155552.2747,156318.791,157085.4817,157852.05,158618.8297,163978.018
Blocked,Male,tile,16,M_tile.wav,None,720.3847487,3411,167169.3832,159386.0426,160152.9605,160902.9277,161669.141,162452.7367,163202.3081,163968.8686,167918.7633,154018.7029,154785.3218,155552.2747,156318.791,157085.4817,157852.05,158618.8297,167179.0598
Blocked,Male,tile,16,M_cad.wav,space,505.6926687,3411,167169.3832,159386.0426,160152.9605,160902.9277,161669.141,162452.7367,163202.3081,163968.8686,167918.7633,168685.6694,154785.3218,155552.2747,156318.791,157085.4817,157852.05,158618.8297,167928.5669
Blocked,Male,tile,16,M_knife.wav,None,730.316659,3411,167169.3832,159386.0426,160152.9605,160902.9277,161669.141,162452.7367,163202.3081,163968.8686,167918.7633,168685.6694,169452.4699,155552.2747,156318.791,157085.4817,157852.05,158618.8297,168695.7232
Blocked,Male,tile,16,M_tile.wav,None,727.9397286,3411,167169.3832,159386.0426,160152.9605,160902.9277,161669.141,162452.7367,163202.3081,163968.8686,167918.7633,168685.6694,169452.4699,170218.9979,156318.791,157085.4817,157852.05,158618.8297,169461.5664
Blocked,Male,tile,16,M_park.wav,space,413.7665359,3411,167169.3832,159386.0426,160152.9605,160902.9277,161669.141,162452.7367,163202.3081,163968.8686,167918.7633,168685.6694,169452.4699,170218.9979,170985.9329,157085.4817,157852.05,158618.8297,170228.3953
Blocked,Male,tile,16,M_tile.wav,None,720.0060105,3411,167169.3832,159386.0426,160152.9605,160902.9277,161669.141,162452.7367,163202.3081,163968.8686,167918.7633,168685.6694,169452.4699,170218.9979,170985.9329,171735.4205,157852.05,158618.8297,170995.9446
Blocked,Male,tile,16,M_romp.wav,space,441.1813174,3411,167169.3832,159386.0426,160152.9605,160902.9277,161669.141,162452.7367,163202.3081,163968.8686,167918.7633,168685.6694,169452.4699,170218.9979,170985.9329,171735.4205,172502.3199,158618.8297,171745.0089
Blocked,Male,tile,16,M_cad.wav,None,730.2962537,3411,167169.3832,159386.0426,160152.9605,160902.9277,161669.141,162452.7367,163202.3081,163968.8686,167918.7633,168685.6694,169452.4699,170218.9979,170985.9329,171735.4205,172502.3199,173268.9401,172512.0332
Blocked,Male,tile,16,M_reek.wav,None,727.730108,3411,167169.3832,174035.1454,160152.9605,160902.9277,161669.141,162452.7367,163202.3081,163968.8686,167918.7633,168685.6694,169452.4699,170218.9979,170985.9329,171735.4205,172502.3199,173268.9401,173277.998
Blocked,Male,tile,16,M_greet.wav,None,730.0955998,3411,167169.3832,174035.1454,174801.8824,160902.9277,161669.141,162452.7367,163202.3081,163968.8686,167918.7633,168685.6694,169452.4699,170218.9979,170985.9329,171735.4205,172502.3199,173268.9401,174044.185
Blocked,Male,tile,16,M_greet.wav,None,729.2224918,3411,167169.3832,174035.1454,174801.8824,175568.9015,161669.141,162452.7367,163202.3081,163968.8686,167918.7633,168685.6694,169452.4699,170218.9979,170985.9329,171735.4205,172502.3199,173268.9401,174810.9465
Blocked,Male,tile,16,M_cling.wav,None,724.8411849,3411,167169.3832,174035.1454,174801.8824,175568.9015,176335.5786,162452.7367,163202.3081,163968.8686,167918.7633,168685.6694,169452.4699,170218.9979,170985.9329,171735.4205,172502.3199,173268.9401,175578.5706
Blocked,Male,tile,16,M_tile.wav,None,725.7956057,3411,167169.3832,174035.1454,174801.8824,175568.9015,176335.5786,177102.1753,163202.3081,163968.8686,167918.7633,168685.6694,169452.4699,170218.9979,170985.9329,171735.4205,172502.3199,173268.9401,176345.4156
Blocked,Male,tile,16,M_jolt.wav,space,346.5823731,3411,167169.3832,174035.1454,174801.8824,175568.9015,176335.5786,177102.1753,177869.262,163968.8686,167918.7633,168685.6694,169452.4699,170218.9979,170985.9329,171735.4205,172502.3199,173268.9401,177111.5615
Blocked,Male,tile,16,M_park.wav,None,719.1894813,3411,167169.3832,174035.1454,174801.8824,175568.9015,176335.5786,177102.1753,177869.262,178618.7648,167918.7633,168685.6694,169452.4699,170218.9979,170985.9329,171735.4205,172502.3199,173268.9401,177878.9398
Blocked,Male,cave,9,M_jolt.wav,None,732.9526781,3411,181752.7553,174035.1454,174801.8824,175568.9015,176335.5786,177102.1753,177869.262,178618.7648,167918.7633,168685.6694,169452.4699,170218.9979,170985.9329,171735.4205,172502.3199,173268.9401,178628.5742
Blocked,Male,cave,9,M_cave.wav,None,719.4726849,3411,181752.7553,174035.1454,174801.8824,175568.9015,176335.5786,177102.1753,177869.262,178618.7648,182518.6693,168685.6694,169452.4699,170218.9979,170985.9329,171735.4205,172502.3199,173268.9401,181762.2831
Blocked,Male,cave,9,M_bluff.wav,space,586.1434946,3411,181752.7553,174035.1454,174801.8824,175568.9015,176335.5786,177102.1753,177869.262,178618.7648,182518.6693,183268.7543,169452.4699,170218.9979,170985.9329,171735.4205,172502.3199,173268.9401,182527.9158
Blocked,Male,cave,9,M_cave.wav,None,733.8536116,3411,181752.7553,174035.1454,174801.8824,175568.9015,176335.5786,177102.1753,177869.262,178618.7648,182518.6693,183268.7543,184035.4357,170218.9979,170985.9329,171735.4205,172502.3199,173268.9401,183277.8867
Blocked,Male,cave,9,M_depth.wav,space,484.3364647,3411,181752.7553,174035.1454,174801.8824,175568.9015,176335.5786,177102.1753,177869.262,178618.7648,182518.6693,183268.7543,184035.4357,184802.5833,170985.9329,171735.4205,172502.3199,173268.9401,184045.6595
Blocked,Male,cave,9,M_jolt.wav,None,725.7377896,3411,181752.7553,174035.1454,174801.8824,175568.9015,176335.5786,177102.1753,177869.262,178618.7648,182518.6693,183268.7543,184035.4357,184802.5833,185569.1466,171735.4205,172502.3199,173268.9401,184812.2082
Blocked,Male,cave,9,M_knife.wav,None,721.4096608,3411,181752.7553,174035.1454,174801.8824,175568.9015,176335.5786,177102.1753,177869.262,178618.7648,182518.6693,183268.7543,184035.4357,184802.5833,185569.1466,186335.18,172502.3199,173268.9401,185579.7977
Blocked,Male,cave,9,M_cave.wav,None,720.6889759,3411,181752.7553,174035.1454,174801.8824,175568.9015,176335.5786,177102.1753,177869.262,178618.7648,182518.6693,183268.7543,184035.4357,184802.5833,185569.1466,186335.18,187084.8906,173268.9401,186344.3093
Blocked,Male,cave,9,M_priest.wav,space,364.2244688,3411,181752.7553,174035.1454,174801.8824,175568.9015,176335.5786,177102.1753,177869.262,178618.7648,182518.6693,183268.7543,184035.4357,184802.5833,185569.1466,186335.18,187084.8906,187851.7665,187093.7401
Blocked,Male,cave,9,M_reek.wav,None,734.0310775,3411,181752.7553,188618.6318,174801.8824,175568.9015,176335.5786,177102.1753,177869.262,178618.7648,182518.6693,183268.7543,184035.4357,184802.5833,185569.1466,186335.18,187084.8906,187851.7665,187861.1397
Blocked,Male,cave,9,M_cave.wav,None,730.1524878,3411,181752.7553,188618.6318,189385.3627,175568.9015,176335.5786,177102.1753,177869.262,178618.7648,182518.6693,183268.7543,184035.4357,184802.5833,185569.1466,186335.18,187084.8906,187851.7665,188628.3056
Blocked,Male,cave,9,M_cad.wav,space,575.0670214,3411,181752.7553,188618.6318,189385.3627,190152.3882,176335.5786,177102.1753,177869.262,178618.7648,182518.6693,183268.7543,184035.4357,184802.5833,185569.1466,186335.18,187084.8906,187851.7665,189394.8893
Blocked,Male,cave,9,M_park.wav,None,722.2929713,3411,181752.7553,188618.6318,189385.3627,190152.3882,190918.9305,177102.1753,177869.262,178618.7648,182518.6693,183268.7543,184035.4357,184802.5833,185569.1466,186335.18,187084.8906,187851.7665,190162.1417
Blocked,Male,cave,9,M_depth.wav,None,718.6317309,3411,181752.7553,188618.6318,189385.3627,190152.3882,190918.9305,191668.3279,177869.262,178618.7648,182518.6693,183268.7543,184035.4357,184802.5833,185569.1466,186335.18,187084.8906,187851.7665,190929.2594
Blocked,Male,cave,9,M_gnash.wav,None,733.3335807,3411,181752.7553,188618.6318,189385.3627,190152.3882,190918.9305,191668.3279,192434.8776,178618.7648,182518.6693,183268.7543,184035.4357,184802.5833,185569.1466,186335.18,187084.8906,187851.7665,191677.7945
Blocked,Male,cave,9,M_cling.wav,None,734.5220461,3411,181752.7553,188618.6318,189385.3627,190152.3882,190918.9305,191668.3279,192434.8776,193201.9977,182518.6693,183268.7543,184035.4357,184802.5833,185569.1466,186335.18,187084.8906,187851.7665,192443.7323
Blocked,Male,tile,18,M_greet.wav,None,729.7922997,3411,196335.6005,188618.6318,189385.3627,190152.3882,190918.9305,191668.3279,192434.8776,193201.9977,182518.6693,183268.7543,184035.4357,184802.5833,185569.1466,186335.18,187084.8906,187851.7665,193211.6631
Blocked,Male,tile,18,M_greet.wav,space,0.039265025,3411,196335.6005,188618.6318,189385.3627,190152.3882,190918.9305,191668.3279,192434.8776,193201.9977,197085.2508,183268.7543,184035.4357,184802.5833,185569.1466,186335.18,187084.8906,187851.7665,196345.3584
Blocked,Male,tile,18,M_bluff.wav,None,732.7102856,3411,196335.6005,188618.6318,189385.3627,190152.3882,190918.9305,191668.3279,192434.8776,193201.9977,197085.2508,197851.9789,184035.4357,184802.5833,185569.1466,186335.18,187084.8906,187851.7665,197095.1629
Blocked,Male,tile,18,M_park.wav,None,729.5495979,3411,196335.6005,188618.6318,189385.3627,190152.3882,190918.9305,191668.3279,192434.8776,193201.9977,197085.2508,197851.9789,198618.3647,184802.5833,185569.1466,186335.18,187084.8906,187851.7665,197861.7098
Blocked,Male,tile,18,M_cling.wav,None,726.8301025,3411,196335.6005,188618.6318,189385.3627,190152.3882,190918.9305,191668.3279,192434.8776,193201.9977,197085.2508,197851.9789,198618.3647,199385.4313,185569.1466,186335.18,187084.8906,187851.7665,198627.8588
Blocked,Male,tile,18,M_park.wav,None,722.5282532,3411,196335.6005,188618.6318,189385.3627,190152.3882,190918.9305,191668.3279,192434.8776,193201.9977,197085.2508,197851.9789,198618.3647,199385.4313,200152.297,186335.18,187084.8906,187851.7665,199395.6761
Blocked,Male,tile,18,M_tile.wav,None,718.9362678,3411,196335.6005,188618.6318,189385.3627,190152.3882,190918.9305,191668.3279,192434.8776,193201.9977,197085.2508,197851.9789,198618.3647,199385.4313,200152.297,200901.9213,187084.8906,187851.7665,200162.7759
Blocked,Male,tile,18,M_jolt.wav,space,410.1124066,3411,196335.6005,188618.6318,189385.3627,190152.3882,190918.9305,191668.3279,192434.8776,193201.9977,197085.2508,197851.9789,198618.3647,199385.4313,200152.297,200901.9213,201668.4961,187851.7665,200911.6498
Blocked,Male,tile,18,M_tile.wav,None,730.292853,3411,196335.6005,188618.6318,189385.3627,190152.3882,190918.9305,191668.3279,192434.8776,193201.9977,197085.2508,197851.9789,198618.3647,199385.4313,200152.297,200901.9213,201668.4961,202435.1821,201678.0093
Blocked,Male,tile,18,M_gnash.wav,space,564.8231539,3411,196335.6005,203202.2865,189385.3627,190152.3882,190918.9305,191668.3279,192434.8776,193201.9977,197085.2508,197851.9789,198618.3647,199385.4313,200152.297,200901.9213,201668.4961,202435.1821,202444.9174
Blocked,Male,tile,18,M_greet.wav,None,722.9793384,3411,196335.6005,203202.2865,203968.8544,190152.3882,190918.9305,191668.3279,192434.8776,193201.9977,197085.2508,197851.9789,198618.3647,199385.4313,200152.297,200901.9213,201668.4961,202435.1821,203211.9543
Blocked,Male,tile,18,M_tile.wav,None,720.0625893,3411,196335.6005,203202.2865,203968.8544,204718.2632,190918.9305,191668.3279,192434.8776,193201.9977,197085.2508,197851.9789,198618.3647,199385.4313,200152.297,200901.9213,201668.4961,202435.1821,203978.6945
Blocked,Male,tile,18,M_dime.wav,space,561.2583756,3411,196335.6005,203202.2865,203968.8544,204718.2632,205484.8689,191668.3279,192434.8776,193201.9977,197085.2508,197851.9789,198618.3647,199385.4313,200152.297,200901.9213,201668.4961,202435.1821,204728.4202
Blocked,Male,tile,18,M_romp.wav,None,734.6778698,3411,196335.6005,203202.2865,203968.8544,204718.2632,205484.8689,206251.8635,192434.8776,193201.9977,197085.2508,197851.9789,198618.3647,199385.4313,200152.297,200901.9213,201668.4961,202435.1821,205494.6004
Blocked,Male,tile,18,M_tile.wav,None,731.4210292,3411,196335.6005,203202.2865,203968.8544,204718.2632,205484.8689,206251.8635,207018.3569,193201.9977,197085.2508,197851.9789,198618.3647,199385.4313,200152.297,200901.9213,201668.4961,202435.1821,206261.4884
Blocked,Male,tile,18,M_jaw.wav,space,541.6140687,3411,196335.6005,203202.2865,203968.8544,204718.2632,205484.8689,206251.8635,207018.3569,207785.1255,197085.2508,197851.9789,198618.3647,199385.4313,200152.297,200901.9213,201668.4961,202435.1821,207028.0585
Blocked,Male,done,24,M_bluff.wav,None,725.3401917,3411,210901.8471,203202.2865,203968.8544,204718.2632,205484.8689,206251.8635,207018.3569,207785.1255,197085.2508,197851.9789,198618.3647,199385.4313,200152.297,200901.9213,201668.4961,202435.1821,207794.6481
Blocked,Male,done,24,M_cad.wav,None,720.0319809,3411,210901.8471,203202.2865,203968.8544,204718.2632,205484.8689,206251.8635,207018.3569,207785.1255,211651.2407,197851.9789,198618.3647,199385.4313,200152.297,200901.9213,201668.4961,202435.1821,210911.6263
Blocked,Male,done,24,M_park.wav,None,734.2954213,3411,210901.8471,203202.2865,203968.8544,204718.2632,205484.8689,206251.8635,207018.3569,207785.1255,211651.2407,212418.3794,198618.3647,199385.4313,200152.297,200901.9213,201668.4961,202435.1821,211660.9003
Blocked,Male,done,24,M_greet.wav,None,731.0809377,3411,210901.8471,203202.2865,203968.8544,204718.2632,205484.8689,206251.8635,207018.3569,207785.1255,211651.2407,212418.3794,213185.0095,199385.4313,200152.297,200901.9213,201668.4961,202435.1821,212427.6723
Blocked,Male,done,24,M_done.wav,None,727.2416134,3411,210901.8471,203202.2865,203968.8544,204718.2632,205484.8689,206251.8635,207018.3569,207785.1255,211651.2407,212418.3794,213185.0095,213951.3592,200152.297,200901.9213,201668.4961,202435.1821,213194.9927
Blocked,Male,done,24,M_dime.wav,space,542.5737449,3411,210901.8471,203202.2865,203968.8544,204718.2632,205484.8689,206251.8635,207018.3569,207785.1255,211651.2407,212418.3794,213185.0095,213951.3592,214718.2638,200901.9213,201668.4961,202435.1821,213954.987
Blocked,Male,done,24,M_greet.wav,None,725.2761927,3411,210901.8471,203202.2865,203968.8544,204718.2632,205484.8689,206251.8635,207018.3569,207785.1255,211651.2407,212418.3794,213185.0095,213951.3592,214718.2638,215485.1759,201668.4961,202435.1821,214727.3823
Blocked,Male,done,24,M_done.wav,None,720.628378,3411,210901.8471,203202.2865,203968.8544,204718.2632,205484.8689,206251.8635,207018.3569,207785.1255,211651.2407,212418.3794,213185.0095,213951.3592,214718.2638,215485.1759,216234.8478,202435.1821,215495.6198
Blocked,Male,done,24,M_romp.wav,space,612.2677834,3411,210901.8471,203202.2865,203968.8544,204718.2632,205484.8689,206251.8635,207018.3569,207785.1255,211651.2407,212418.3794,213185.0095,213951.3592,214718.2638,215485.1759,216234.8478,217001.2753,216245.2447
Blocked,Male,done,24,M_bluff.wav,None,732.0164987,3411,210901.8471,217768.2118,203968.8544,204718.2632,205484.8689,206251.8635,207018.3569,207785.1255,211651.2407,212418.3794,213185.0095,213951.3592,214718.2638,215485.1759,216234.8478,217001.2753,217010.8174
Blocked,Male,done,24,M_knife.wav,None,728.6523748,3411,210901.8471,217768.2118,218534.628,204718.2632,205484.8689,206251.8635,207018.3569,207785.1255,211651.2407,212418.3794,213185.0095,213951.3592,214718.2638,215485.1759,216234.8478,217001.2753,217777.7789
Blocked,Male,done,24,M_bluff.wav,None,725.9857478,3411,210901.8471,217768.2118,218534.628,219301.9163,205484.8689,206251.8635,207018.3569,207785.1255,211651.2407,212418.3794,213185.0095,213951.3592,214718.2638,215485.1759,216234.8478,217001.2753,218544.1193
Blocked,Male,done,24,M_done.wav,None,721.8650742,3411,210901.8471,217768.2118,218534.628,219301.9163,220068.5046,206251.8635,207018.3569,207785.1255,211651.2407,212418.3794,213185.0095,213951.3592,214718.2638,215485.1759,216234.8478,217001.2753,219312.2149
Blocked,Male,done,24,M_bluff.wav,space,626.7154915,3411,210901.8471,217768.2118,218534.628,219301.9163,220068.5046,220818.2158,207018.3569,207785.1255,211651.2407,212418.3794,213185.0095,213951.3592,214718.2638,215485.1759,216234.8478,217001.2753,220078.7729
Blocked,Male,done,24,M_done.wav,None,732.5628093,3411,210901.8471,217768.2118,218534.628,219301.9163,220068.5046,220818.2158,221584.8323,207785.1255,211651.2407,212418.3794,213185.0095,213951.3592,214718.2638,215485.1759,216234.8478,217001.2753,220828.3892
Blocked,Male,done,24,M_cling.wav,space,710.6482363,3411,210901.8471,217768.2118,218534.628,219301.9163,220068.5046,220818.2158,221584.8323,222351.4936,211651.2407,212418.3794,213185.0095,213951.3592,214718.2638,215485.1759,216234.8478,217001.2753,221594.8035
Blocked,Male,tile,17,M_greet.wav,None,726.3409887,3411,225468.5513,217768.2118,218534.628,219301.9163,220068.5046,220818.2158,221584.8323,222351.4936,211651.2407,212418.3794,213185.0095,213951.3592,214718.2638,215485.1759,216234.8478,217001.2753,222361.2487
Blocked,Male,tile,17,M_jolt.wav,None,719.6878702,3411,225468.5513,217768.2118,218534.628,219301.9163,220068.5046,220818.2158,221584.8323,222351.4936,226217.781,212418.3794,213185.0095,213951.3592,214718.2638,215485.1759,216234.8478,217001.2753,225478.6371
Blocked,Male,tile,17,M_jaw.wav,None,734.8429686,3411,225468.5513,217768.2118,218534.628,219301.9163,220068.5046,220818.2158,221584.8323,222351.4936,226217.781,226984.5756,213185.0095,213951.3592,214718.2638,215485.1759,216234.8478,217001.2753,226227.1688
Blocked,Male,tile,17,M_tile.wav,None,731.4667874,3411,225468.5513,217768.2118,218534.628,219301.9163,220068.5046,220818.2158,221584.8323,222351.4936,226217.781,226984.5756,227751.3943,213951.3592,214718.2638,215485.1759,216234.8478,217001.2753,226994.1139
Blocked,Male,tile,17,M_dime.wav,space,495.5495927,3411,225468.5513,217768.2118,218534.628,219301.9163,220068.5046,220818.2158,221584.8323,222351.4936,226217.781,226984.5756,227751.3943,228518.1085,214718.2638,215485.1759,216234.8478,217001.2753,227769.805
Blocked,Male,tile,17,M_gnash.wav,None,682.0044876,3411,225468.5513,217768.2118,218534.628,219301.9163,220068.5046,220818.2158,221584.8323,222351.4936,226217.781,226984.5756,227751.3943,228518.1085,229285.0722,215485.1759,216234.8478,217001.2753,228570.6332
Blocked,Male,tile,17,M_tile.wav,None,718.5596935,3411,225468.5513,217768.2118,218534.628,219301.9163,220068.5046,220818.2158,221584.8323,222351.4936,226217.781,226984.5756,227751.3943,228518.1085,229285.0722,230051.7075,216234.8478,217001.2753,229298.2034
Blocked,Male,tile,17,M_reek.wav,space,515.2557348,3411,225468.5513,217768.2118,218534.628,219301.9163,220068.5046,220818.2158,221584.8323,222351.4936,226217.781,226984.5756,227751.3943,228518.1085,229285.0722,230051.7075,230801.4672,217001.2753,230062.046
Blocked,Male,tile,17,M_knife.wav,None,732.9483498,3411,225468.5513,217768.2118,218534.628,219301.9163,220068.5046,220818.2158,221584.8323,222351.4936,226217.781,226984.5756,227751.3943,228518.1085,229285.0722,230051.7075,230801.4672,231568.0083,230810.7291
Blocked,Male,tile,17,M_dime.wav,None,729.5468156,3411,225468.5513,232334.7364,218534.628,219301.9163,220068.5046,220818.2158,221584.8323,222351.4936,226217.781,226984.5756,227751.3943,228518.1085,229285.0722,230051.7075,230801.4672,231568.0083,231577.7519
Blocked,Male,tile,17,M_tile.wav,None,726.8155711,3411,225468.5513,232334.7364,233101.1136,219301.9163,220068.5046,220818.2158,221584.8323,222351.4936,226217.781,226984.5756,227751.3943,228518.1085,229285.0722,230051.7075,230801.4672,231568.0083,232344.2187
Blocked,Male,tile,17,M_park.wav,space,330.7523476,3411,225468.5513,232334.7364,233101.1136,233868.1827,220068.5046,220818.2158,221584.8323,222351.4936,226217.781,226984.5756,227751.3943,228518.1085,229285.0722,230051.7075,230801.4672,231568.0083,233110.5359
Blocked,Male,tile,17,M_priest.wav,None,720.2363452,3411,225468.5513,232334.7364,233101.1136,233868.1827,234617.8376,220818.2158,221584.8323,222351.4936,226217.781,226984.5756,227751.3943,228518.1085,229285.0722,230051.7075,230801.4672,231568.0083,233877.9779
Blocked,Male,tile,17,M_tile.wav,None,734.3114987,3411,225468.5513,232334.7364,233101.1136,233868.1827,234617.8376,235384.6782,221584.8323,222351.4936,226217.781,226984.5756,227751.3943,228518.1085,229285.0722,230051.7075,230801.4672,231568.0083,234627.6653
Blocked,Male,tile,17,M_reek.wav,space,375.0236132,3411,225468.5513,232334.7364,233101.1136,233868.1827,234617.8376,235384.6782,236151.3009,222351.4936,226217.781,226984.5756,227751.3943,228518.1085,229285.0722,230051.7075,230801.4672,231568.0083,235394.2113
Blocked,Male,tile,17,M_romp.wav,None,728.0266061,3411,225468.5513,232334.7364,233101.1136,233868.1827,234617.8376,235384.6782,236151.3009,236917.9044,226217.781,226984.5756,227751.3943,228518.1085,229285.0722,230051.7075,230801.4672,231568.0083,236160.7291
Blocked,Male,cave,10,M_cling.wav,None,725.2217783,3411,240034.9395,232334.7364,233101.1136,233868.1827,234617.8376,235384.6782,236151.3009,236917.9044,226217.781,226984.5756,227751.3943,228518.1085,229285.0722,230051.7075,230801.4672,231568.0083,236927.515
Blocked,Male,cave,10,M_romp.wav,None,719.425072,3411,240034.9395,232334.7364,233101.1136,233868.1827,234617.8376,235384.6782,236151.3009,236917.9044,240784.5257,226984.5756,227751.3943,228518.1085,229285.0722,230051.7075,230801.4672,231568.0083,240044.6797
Blocked,Male,cave,10,M_reek.wav,None,733.9098812,3411,240034.9395,232334.7364,233101.1136,233868.1827,234617.8376,235384.6782,236151.3009,236917.9044,240784.5257,241551.0779,227751.3943,228518.1085,229285.0722,230051.7075,230801.4672,231568.0083,240794.0443
Blocked,Male,cave,10,M_cave.wav,None,731.0982514,3411,240034.9395,232334.7364,233101.1136,233868.1827,234617.8376,235384.6782,236151.3009,236917.9044,240784.5257,241551.0779,242317.9736,228518.1085,229285.0722,230051.7075,230801.4672,231568.0083,241560.5677
Blocked,Male,cave,10,M_cad.wav,space,505.6620608,3411,240034.9395,232334.7364,233101.1136,233868.1827,234617.8376,235384.6782,236151.3009,236917.9044,240784.5257,241551.0779,242317.9736,243084.9094,229285.0722,230051.7075,230801.4672,231568.0083,242327.4692
Blocked,Male,cave,10,M_cave.wav,None,723.5593488,3411,240034.9395,232334.7364,233101.1136,233868.1827,234617.8376,235384.6782,236151.3009,236917.9044,240784.5257,241551.0779,242317.9736,243084.9094,243851.5865,230051.7075,230801.4672,231568.0083,243094.6407
Blocked,Male,cave,10,M_cling.wav,None,720.933842,3411,240034.9395,232334.7364,233101.1136,233868.1827,234617.8376,235384.6782,236151.3009,236917.9044,240784.5257,241551.0779,242317.9736,243084.9094,243851.5865,244600.9109,230801.4672,231568.0083,243860.9492
Blocked,Male,cave,10,M_cave.wav,space,166.4006221,3411,240034.9395,232334.7364,233101.1136,233868.1827,234617.8376,235384.6782,236151.3009,236917.9044,240784.5257,241551.0779,242317.9736,243084.9094,243851.5865,244600.9109,245367.8913,231568.0083,244610.6882
Blocked,Male,cave,10,M_priest.wav,space,424.2432113,3411,240034.9395,232334.7364,233101.1136,233868.1827,234617.8376,235384.6782,236151.3009,236917.9044,240784.5257,241551.0779,242317.9736,243084.9094,243851.5865,244600.9109,245367.8913,246134.4475,245376.8691
Blocked,Male,cave,10,M_depth.wav,None,727.3819782,3411,240034.9395,246900.9616,233101.1136,233868.1827,234617.8376,235384.6782,236151.3009,236917.9044,240784.5257,241551.0779,242317.9736,243084.9094,243851.5865,244600.9109,245367.8913,246134.4475,246143.9914
Blocked,Male,cave,10,M_jaw.wav,None,725.2155948,3411,240034.9395,246900.9616,247668.3968,233868.1827,234617.8376,235384.6782,236151.3009,236917.9044,240784.5257,241551.0779,242317.9736,243084.9094,243851.5865,244600.9109,245367.8913,246134.4475,246910.1147
Blocked,Male,cave,10,M_cave.wav,None,720.3349713,3411,240034.9395,246900.9616,247668.3968,248417.5895,234617.8376,235384.6782,236151.3009,236917.9044,240784.5257,241551.0779,242317.9736,243084.9094,243851.5865,244600.9109,245367.8913,246134.4475,247678.6308
Blocked,Male,cave,10,M_cling.wav,space,366.072712,3411,240034.9395,246900.9616,247668.3968,248417.5895,249184.4533,235384.6782,236151.3009,236917.9044,240784.5257,241551.0779,242317.9736,243084.9094,243851.5865,244600.9109,245367.8913,246134.4475,248426.9843
Blocked,Male,cave,10,M_reek.wav,None,731.6980492,3411,240034.9395,246900.9616,247668.3968,248417.5895,249184.4533,249950.8626,236151.3009,236917.9044,240784.5257,241551.0779,242317.9736,243084.9094,243851.5865,244600.9109,245367.8913,246134.4475,249193.9548
Blocked,Male,cave,10,M_knife.wav,None,734.4277482,3411,240034.9395,246900.9616,247668.3968,248417.5895,249184.4533,249950.8626,250717.4028,236917.9044,240784.5257,241551.0779,242317.9736,243084.9094,243851.5865,244600.9109,245367.8913,246134.4475,249954.9338
Blocked,Male,cave,10,M_jolt.wav,None,726.7286931,3411,240034.9395,246900.9616,247668.3968,248417.5895,249184.4533,249950.8626,250717.4028,251484.6422,240784.5257,241551.0779,242317.9736,243084.9094,243851.5865,244600.9109,245367.8913,246134.4475,250726.3833
Blocked,Male,ball,3,M_knife.wav,None,723.0903315,3411,254584.6054,246900.9616,247668.3968,248417.5895,249184.4533,249950.8626,250717.4028,251484.6422,240784.5257,241551.0779,242317.9736,243084.9094,243851.5865,244600.9109,245367.8913,246134.4475,251493.8297
Blocked,Male,ball,3,M_park.wav,None,735.8230511,3411,254584.6054,246900.9616,247668.3968,248417.5895,249184.4533,249950.8626,250717.4028,251484.6422,255350.7389,241551.0779,242317.9736,243084.9094,243851.5865,244600.9109,245367.8913,246134.4475,254593.9814
Blocked,Male,ball,3,M_dime.wav,None,733.7620957,3411,254584.6054,246900.9616,247668.3968,248417.5895,249184.4533,249950.8626,250717.4028,251484.6422,255350.7389,256117.7579,242317.9736,243084.9094,243851.5865,244600.9109,245367.8913,246134.4475,255359.6444
Blocked,Male,ball,3,M_ball.wav,None,729.6609008,3411,254584.6054,246900.9616,247668.3968,248417.5895,249184.4533,249950.8626,250717.4028,251484.6422,255350.7389,256117.7579,256884.0322,243084.9094,243851.5865,244600.9109,245367.8913,246134.4475,256127.3714
Blocked,Male,ball,3,M_gnash.wav,space,387.7844675,3411,254584.6054,246900.9616,247668.3968,248417.5895,249184.4533,249950.8626,250717.4028,251484.6422,255350.7389,256117.7579,256884.0322,257650.5052,243851.5865,244600.9109,245367.8913,246134.4475,256893.1114
Blocked,Male,ball,3,M_priest.wav,None,728.0763835,3411,254584.6054,246900.9616,247668.3968,248417.5895,249184.4533,249950.8626,250717.4028,251484.6422,255350.7389,256117.7579,256884.0322,257650.5052,258418.0347,244600.9109,245367.8913,246134.4475,257659.6558
Blocked,Male,ball,3,M_ball.wav,None,723.8032874,3411,254584.6054,246900.9616,247668.3968,248417.5895,249184.4533,249950.8626,250717.4028,251484.6422,255350.7389,256117.7579,256884.0322,257650.5052,258418.0347,259184.6363,245367.8913,246134.4475,258427.671
Blocked,Male,ball,3,M_lash.wav,space,502.7020276,3411,254584.6054,246900.9616,247668.3968,248417.5895,249184.4533,249950.8626,250717.4028,251484.6422,255350.7389,256117.7579,256884.0322,257650.5052,258418.0347,259184.6363,259934.1672,246134.4475,259194.2127
Blocked,Male,ball,3,M_ball.wav,None,734.6670488,3411,254584.6054,246900.9616,247668.3968,248417.5895,249184.4533,249950.8626,250717.4028,251484.6422,255350.7389,256117.7579,256884.0322,257650.5052,258418.0347,259184.6363,259934.1672,260700.8245,259943.7247
Blocked,Male,ball,3,M_jaw.wav,space,466.5818294,3411,254584.6054,261467.6262,247668.3968,248417.5895,249184.4533,249950.8626,250717.4028,251484.6422,255350.7389,256117.7579,256884.0322,257650.5052,258418.0347,259184.6363,259934.1672,260700.8245,260710.2763
Blocked,Male,ball,3,M_priest.wav,None,728.7179199,3411,254584.6054,261467.6262,262234.2541,248417.5895,249184.4533,249950.8626,250717.4028,251484.6422,255350.7389,256117.7579,256884.0322,257650.5052,258418.0347,259184.6363,259934.1672,260700.8245,261476.6386
Blocked,Male,ball,3,M_ball.wav,None,725.327516,3411,254584.6054,261467.6262,262234.2541,263001.1201,249184.4533,249950.8626,250717.4028,251484.6422,255350.7389,256117.7579,256884.0322,257650.5052,258418.0347,259184.6363,259934.1672,260700.8245,262243.7538
Blocked,Male,ball,3,M_bluff.wav,space,374.0787772,3411,254584.6054,261467.6262,262234.2541,263001.1201,263750.7045,249950.8626,250717.4028,251484.6422,255350.7389,256117.7579,256884.0322,257650.5052,258418.0347,259184.6363,259934.1672,260700.8245,263010.7525
Blocked,Male,ball,3,M_knife.wav,None,735.9290975,3411,254584.6054,261467.6262,262234.2541,263001.1201,263750.7045,264517.6305,250717.4028,251484.6422,255350.7389,256117.7579,256884.0322,257650.5052,258418.0347,259184.6363,259934.1672,260700.8245,263759.9807
Blocked,Male,ball,3,M_bluff.wav,None,732.5628093,3411,254584.6054,261467.6262,262234.2541,263001.1201,263750.7045,264517.6305,265284.1848,251484.6422,255350.7389,256117.7579,256884.0322,257650.5052,258418.0347,259184.6363,259934.1672,260700.8245,264527.1085
Blocked,Male,ball,3,M_knife.wav,None,729.5607287,3411,254584.6054,261467.6262,262234.2541,263001.1201,263750.7045,264517.6305,265284.1848,266050.5815,255350.7389,256117.7579,256884.0322,257650.5052,258418.0347,259184.6363,259934.1672,260700.8245,265293.6926
Blocked,Male,cave,7,M_depth.wav,None,727.5424395,3411,269167.9552,261467.6262,262234.2541,263001.1201,263750.7045,264517.6305,265284.1848,266050.5815,255350.7389,256117.7579,256884.0322,257650.5052,258418.0347,259184.6363,259934.1672,260700.8245,266059.5061
Blocked,Male,cave,7,M_cave.wav,None,718.8735055,3411,269167.9552,261467.6262,262234.2541,263001.1201,263750.7045,264517.6305,265284.1848,266050.5815,269917.3887,256117.7579,256884.0322,257650.5052,258418.0347,259184.6363,259934.1672,260700.8245,269177.8042
Blocked,Male,cave,7,M_cad.wav,None,733.5292879,3411,269167.9552,261467.6262,262234.2541,263001.1201,263750.7045,264517.6305,265284.1848,266050.5815,269917.3887,270684.1907,256884.0322,257650.5052,258418.0347,259184.6363,259934.1672,260700.8245,269926.914
Blocked,Male,cave,7,M_cling.wav,space,59.00310492,3411,269167.9552,261467.6262,262234.2541,263001.1201,263750.7045,264517.6305,265284.1848,266050.5815,269917.3887,270684.1907,271450.8164,257650.5052,258418.0347,259184.6363,259934.1672,260700.8245,270693.7005
Blocked,Male,cave,7,M_cave.wav,None,727.2777865,3411,269167.9552,261467.6262,262234.2541,263001.1201,263750.7045,264517.6305,265284.1848,266050.5815,269917.3887,270684.1907,271450.8164,272217.8321,258418.0347,259184.6363,259934.1672,260700.8245,271460.2425
Blocked,Male,cave,7,M_knife.wav,space,405.2500245,3411,269167.9552,261467.6262,262234.2541,263001.1201,263750.7045,264517.6305,265284.1848,266050.5815,269917.3887,270684.1907,271450.8164,272217.8321,272984.3907,259184.6363,259934.1672,260700.8245,272227.4437
Blocked,Male,cave,7,M_cad.wav,None,720.5099645,3411,269167.9552,261467.6262,262234.2541,263001.1201,263750.7045,264517.6305,265284.1848,266050.5815,269917.3887,270684.1907,271450.8164,272217.8321,272984.3907,273734.0067,259934.1672,260700.8245,272993.9757
Blocked,Male,cave,7,M_romp.wav,None,734.6874541,3411,269167.9552,261467.6262,262234.2541,263001.1201,263750.7045,264517.6305,265284.1848,266050.5815,269917.3887,270684.1907,271450.8164,272217.8321,272984.3907,273734.0067,274500.6742,260700.8245,273743.575
Blocked,Male,cave,7,M_cave.wav,None,732.0248466,3411,269167.9552,261467.6262,262234.2541,263001.1201,263750.7045,264517.6305,265284.1848,266050.5815,269917.3887,270684.1907,271450.8164,272217.8321,272984.3907,273734.0067,274500.6742,275267.3188,274510.0941
Blocked,Male,cave,7,M_park.wav,space,427.9981311,3411,269167.9552,276034.0079,262234.2541,263001.1201,263750.7045,264517.6305,265284.1848,266050.5815,269917.3887,270684.1907,271450.8164,272217.8321,272984.3907,273734.0067,274500.6742,275267.3188,275276.675
Blocked,Male,cave,7,M_reek.wav,None,725.5266244,3411,269167.9552,276034.0079,276800.8594,263001.1201,263750.7045,264517.6305,265284.1848,266050.5815,269917.3887,270684.1907,271450.8164,272217.8321,272984.3907,273734.0067,274500.6742,275267.3188,276043.4371
Blocked,Male,cave,7,M_knife.wav,None,722.4812587,3411,269167.9552,276034.0079,276800.8594,277567.7653,263750.7045,264517.6305,265284.1848,266050.5815,269917.3887,270684.1907,271450.8164,272217.8321,272984.3907,273734.0067,274500.6742,275267.3188,276810.6064
Blocked,Male,cave,7,M_greet.wav,None,718.7272664,3411,269167.9552,276034.0079,276800.8594,277567.7653,278317.2281,264517.6305,265284.1848,266050.5815,269917.3887,270684.1907,271450.8164,272217.8321,272984.3907,273734.0067,274500.6742,275267.3188,277578.0502
Blocked,Male,cave,7,M_cave.wav,None,734.1253757,3411,269167.9552,276034.0079,276800.8594,277567.7653,278317.2281,279084.0496,265284.1848,266050.5815,269917.3887,270684.1907,271450.8164,272217.8321,272984.3907,273734.0067,274500.6742,275267.3188,278326.5046
Blocked,Male,cave,7,M_gnash.wav,space,403.0684917,3411,269167.9552,276034.0079,276800.8594,277567.7653,278317.2281,279084.0496,279850.3656,266050.5815,269917.3887,270684.1907,271450.8164,272217.8321,272984.3907,273734.0067,274500.6742,275267.3188,279093.5085
Blocked,Male,cave,7,M_jolt.wav,None,727.9446749,3411,269167.9552,276034.0079,276800.8594,277567.7653,278317.2281,279084.0496,279850.3656,280617.3732,269917.3887,270684.1907,271450.8164,272217.8321,272984.3907,273734.0067,274500.6742,275267.3188,279859.6788
Blocked,Male,ball,2,M_depth.wav,None,724.4881084,3411,283734.0604,276034.0079,276800.8594,277567.7653,278317.2281,279084.0496,279850.3656,280617.3732,269917.3887,270684.1907,271450.8164,272217.8321,272984.3907,273734.0067,274500.6742,275267.3188,280626.9817
Blocked,Male,ball,2,M_gnash.wav,None,720.058261,3411,283734.0604,276034.0079,276800.8594,277567.7653,278317.2281,279084.0496,279850.3656,280617.3732,284483.8498,270684.1907,271450.8164,272217.8321,272984.3907,273734.0067,274500.6742,275267.3188,283743.3932
Blocked,Male,ball,2,M_ball.wav,None,733.9571849,3411,283734.0604,276034.0079,276800.8594,277567.7653,278317.2281,279084.0496,279850.3656,280617.3732,284483.8498,285250.6605,271450.8164,272217.8321,272984.3907,273734.0067,274500.6742,275267.3188,284493.2991
Blocked,Male,ball,2,M_cad.wav,space,556.4247472,3411,283734.0604,276034.0079,276800.8594,277567.7653,278317.2281,279084.0496,279850.3656,280617.3732,284483.8498,285250.6605,286017.2739,272217.8321,272984.3907,273734.0067,274500.6742,275267.3188,285260.0563
Blocked,Male,ball,2,M_cad.wav,None,727.9777569,3411,283734.0604,276034.0079,276800.8594,277567.7653,278317.2281,279084.0496,279850.3656,280617.3732,284483.8498,285250.6605,286017.2739,286783.9074,272984.3907,273734.0067,274500.6742,275267.3188,286026.3469
Blocked,Male,ball,2,M_dime.wav,None,724.7617273,3411,283734.0604,276034.0079,276800.8594,277567.7653,278317.2281,279084.0496,279850.3656,280617.3732,284483.8498,285250.6605,286017.2739,286783.9074,287550.8711,273734.0067,274500.6742,275267.3188,286793.3965
Blocked,Male,ball,2,M_jolt.wav,None,721.7380041,3411,283734.0604,276034.0079,276800.8594,277567.7653,278317.2281,279084.0496,279850.3656,280617.3732,284483.8498,285250.6605,286017.2739,286783.9074,287550.8711,288317.5797,274500.6742,275267.3188,287560.4981
Blocked,Male,ball,2,M_bluff.wav,None,719.0021221,3411,283734.0604,276034.0079,276800.8594,277567.7653,278317.2281,279084.0496,279850.3656,280617.3732,284483.8498,285250.6605,286017.2739,286783.9074,287550.8711,288317.5797,289067.0831,275267.3188,288327.2905
Blocked,Male,ball,2,M_greet.wav,None,733.5632974,3411,283734.0604,276034.0079,276800.8594,277567.7653,278317.2281,279084.0496,279850.3656,280617.3732,284483.8498,285250.6605,286017.2739,286783.9074,287550.8711,288317.5797,289067.0831,289833.8863,289076.6539
Blocked,Male,ball,2,M_ball.wav,None,730.7417737,3411,283734.0604,290600.6632,276800.8594,277567.7653,278317.2281,279084.0496,279850.3656,280617.3732,284483.8498,285250.6605,286017.2739,286783.9074,287550.8711,288317.5797,289067.0831,289833.8863,289843.3186
Blocked,Male,ball,2,M_knife.wav,space,357.7157347,3411,283734.0604,290600.6632,291367.6449,277567.7653,278317.2281,279084.0496,279850.3656,280617.3732,284483.8498,285250.6605,286017.2739,286783.9074,287550.8711,288317.5797,289067.0831,289833.8863,290610.7405
Blocked,Male,ball,2,M_ball.wav,None,723.5791362,3411,283734.0604,290600.6632,291367.6449,292134.2026,278317.2281,279084.0496,279850.3656,280617.3732,284483.8498,285250.6605,286017.2739,286783.9074,287550.8711,288317.5797,289067.0831,289833.8863,291377.3121
Blocked,Male,ball,2,M_priest.wav,space,528.4271725,3411,283734.0604,290600.6632,291367.6449,292134.2026,292883.7394,279084.0496,279850.3656,280617.3732,284483.8498,285250.6605,286017.2739,286783.9074,287550.8711,288317.5797,289067.0831,289833.8863,292143.9561
Blocked,Male,ball,2,M_lash.wav,None,735.0689755,3411,283734.0604,290600.6632,291367.6449,292134.2026,292883.7394,293650.1478,279850.3656,280617.3732,284483.8498,285250.6605,286017.2739,286783.9074,287550.8711,288317.5797,289067.0831,289833.8863,292892.9157
Blocked,Male,ball,2,M_ball.wav,None,732.8413753,3411,283734.0604,290600.6632,291367.6449,292134.2026,292883.7394,293650.1478,294417.1235,280617.3732,284483.8498,285250.6605,286017.2739,286783.9074,287550.8711,288317.5797,289067.0831,289833.8863,293659.3191
Blocked,Male,ball,2,M_gnash.wav,space,396.9252012,3411,283734.0604,290600.6632,291367.6449,292134.2026,292883.7394,293650.1478,294417.1235,295183.4516,284483.8498,285250.6605,286017.2739,286783.9074,287550.8711,288317.5797,289067.0831,289833.8863,294427.3912
Blocked,Male,ball,6,M_depth.wav,None,726.7456977,3411,298300.9937,290600.6632,291367.6449,292134.2026,292883.7394,293650.1478,294417.1235,295183.4516,284483.8498,285250.6605,286017.2739,286783.9074,287550.8711,288317.5797,289067.0831,289833.8863,295192.2692
Blocked,Male,ball,6,M_park.wav,None,719.5224622,3411,298300.9937,290600.6632,291367.6449,292134.2026,292883.7394,293650.1478,294417.1235,295183.4516,299049.9205,285250.6605,286017.2739,286783.9074,287550.8711,288317.5797,289067.0831,289833.8863,298310.6161
Blocked,Male,ball,6,M_knife.wav,None,735.2068666,3411,298300.9937,290600.6632,291367.6449,292134.2026,292883.7394,293650.1478,294417.1235,295183.4516,299049.9205,299816.9519,286017.2739,286783.9074,287550.8711,288317.5797,289067.0831,289833.8863,299058.9691
Blocked,Male,ball,6,M_lash.wav,None,731.8832451,3411,298300.9937,290600.6632,291367.6449,292134.2026,292883.7394,293650.1478,294417.1235,295183.4516,299049.9205,299816.9519,300583.2858,286783.9074,287550.8711,288317.5797,289067.0831,289833.8863,299826.2383
Blocked,Male,ball,6,M_romp.wav,None,729.6513161,3411,298300.9937,290600.6632,291367.6449,292134.2026,292883.7394,293650.1478,294417.1235,295183.4516,299049.9205,299816.9519,300583.2858,301350.1193,287550.8711,288317.5797,289067.0831,289833.8863,300592.2395
Blocked,Male,ball,6,M_ball.wav,None,726.6931385,3411,298300.9937,290600.6632,291367.6449,292134.2026,292883.7394,293650.1478,294417.1235,295183.4516,299049.9205,299816.9519,300583.2858,301350.1193,302116.5138,288317.5797,289067.0831,289833.8863,301359.2189
Blocked,Male,ball,6,M_reek.wav,space,442.9541221,3411,298300.9937,290600.6632,291367.6449,292134.2026,292883.7394,293650.1478,294417.1235,295183.4516,299049.9205,299816.9519,300583.2858,301350.1193,302116.5138,302884.0241,289067.0831,289833.8863,302125.3095
Blocked,Male,ball,6,M_ball.wav,None,721.353082,3411,298300.9937,290600.6632,291367.6449,292134.2026,292883.7394,293650.1478,294417.1235,295183.4516,299049.9205,299816.9519,300583.2858,301350.1193,302116.5138,302884.0241,303633.543,289833.8863,302893.7372
Blocked,Male,ball,6,M_jolt.wav,space,349.4153358,3411,298300.9937,290600.6632,291367.6449,292134.2026,292883.7394,293650.1478,294417.1235,295183.4516,299049.9205,299816.9519,300583.2858,301350.1193,302116.5138,302884.0241,303633.543,304400.2003,303642.7922
Blocked,Male,ball,6,M_ball.wav,None,732.6861699,3411,298300.9937,305166.8622,291367.6449,292134.2026,292883.7394,293650.1478,294417.1235,295183.4516,299049.9205,299816.9519,300583.2858,301350.1193,302116.5138,302884.0241,303633.543,304400.2003,304409.6137
Blocked,Male,ball,6,M_dime.wav,space,352.12061,3411,298300.9937,305166.8622,305933.4929,292134.2026,292883.7394,293650.1478,294417.1235,295183.4516,299049.9205,299816.9519,300583.2858,301350.1193,302116.5138,302884.0241,303633.543,304400.2003,305176.096
Blocked,Male,ball,6,M_gnash.wav,None,729.3699677,3411,298300.9937,305166.8622,305933.4929,306700.6254,292883.7394,293650.1478,294417.1235,295183.4516,299049.9205,299816.9519,300583.2858,301350.1193,302116.5138,302884.0241,303633.543,304400.2003,305940.1405
Blocked,Male,ball,6,M_greet.wav,None,722.8961703,3411,298300.9937,305166.8622,305933.4929,306700.6254,307467.2713,293650.1478,294417.1235,295183.4516,299049.9205,299816.9519,300583.2858,301350.1193,302116.5138,302884.0241,303633.543,304400.2003,306710.6294
Blocked,Male,ball,6,M_ball.wav,None,720.1302983,3411,298300.9937,305166.8622,305933.4929,306700.6254,307467.2713,308216.6343,294417.1235,295183.4516,299049.9205,299816.9519,300583.2858,301350.1193,302116.5138,302884.0241,303633.543,304400.2003,307477.521
Blocked,Male,ball,6,M_dime.wav,space,374.0852694,3411,298300.9937,305166.8622,305933.4929,306700.6254,307467.2713,308216.6343,308983.5841,295183.4516,299049.9205,299816.9519,300583.2858,301350.1193,302116.5138,302884.0241,303633.543,304400.2003,308226.0595
Blocked,Male,ball,6,M_bluff.wav,None,732.1921098,3411,298300.9937,305166.8622,305933.4929,306700.6254,307467.2713,308216.6343,308983.5841,309750.1146,299049.9205,299816.9519,300583.2858,301350.1193,302116.5138,302884.0241,303633.543,304400.2003,308993.0229
Blocked,Male,done,19,M_dime.wav,None,730.8991435,3411,312883.2932,305166.8622,305933.4929,306700.6254,307467.2713,308216.6343,308983.5841,309750.1146,299049.9205,299816.9519,300583.2858,301350.1193,302116.5138,302884.0241,303633.543,304400.2003,309759.0365
Blocked,Male,done,19,M_done.wav,None,721.3567924,3411,312883.2932,305166.8622,305933.4929,306700.6254,307467.2713,308216.6343,308983.5841,309750.1146,313633.0177,299816.9519,300583.2858,301350.1193,302116.5138,302884.0241,303633.543,304400.2003,312892.2237
Blocked,Male,done,19,M_lash.wav,space,558.165398,3411,312883.2932,305166.8622,305933.4929,306700.6254,307467.2713,308216.6343,308983.5841,309750.1146,313633.0177,314400.2266,300583.2858,301350.1193,302116.5138,302884.0241,303633.543,304400.2003,313641.951
Blocked,Male,done,19,M_priest.wav,None,730.894506,3411,312883.2932,305166.8622,305933.4929,306700.6254,307467.2713,308216.6343,308983.5841,309750.1146,313633.0177,314400.2266,315166.4436,301350.1193,302116.5138,302884.0241,303633.543,304400.2003,314409.8073
Blocked,Male,done,19,M_done.wav,None,729.5551631,3411,312883.2932,305166.8622,305933.4929,306700.6254,307467.2713,308216.6343,308983.5841,309750.1146,313633.0177,314400.2266,315166.4436,315933.8686,302116.5138,302884.0241,303633.543,304400.2003,315175.3277
Blocked,Male,done,19,M_bluff.wav,space,436.39221,3411,312883.2932,305166.8622,305933.4929,306700.6254,307467.2713,308216.6343,308983.5841,309750.1146,313633.0177,314400.2266,315166.4436,315933.8686,316700.498,302884.0241,303633.543,304400.2003,315939.6644
Blocked,Male,done,19,M_done.wav,None,721.5320938,3411,312883.2932,305166.8622,305933.4929,306700.6254,307467.2713,308216.6343,308983.5841,309750.1146,313633.0177,314400.2266,315166.4436,315933.8686,316700.498,317466.6016,303633.543,304400.2003,316710.4071
Blocked,Male,done,19,M_dime.wav,space,428.5067227,3411,312883.2932,305166.8622,305933.4929,306700.6254,307467.2713,308216.6343,308983.5841,309750.1146,313633.0177,314400.2266,315166.4436,315933.8686,316700.498,317466.6016,318216.6974,304400.2003,317475.5265
Blocked,Male,done,19,M_bluff.wav,None,733.0126576,3411,312883.2932,305166.8622,305933.4929,306700.6254,307467.2713,308216.6343,308983.5841,309750.1146,313633.0177,314400.2266,315166.4436,315933.8686,316700.498,317466.6016,318216.6974,318983.414,318225.9046
Blocked,Male,done,19,M_greet.wav,None,730.3141858,3411,312883.2932,319749.846,305933.4929,306700.6254,307467.2713,308216.6343,308983.5841,309750.1146,313633.0177,314400.2266,315166.4436,315933.8686,316700.498,317466.6016,318216.6974,318983.414,318992.7935
Blocked,Male,done,19,M_romp.wav,None,729.0406977,3411,312883.2932,319749.846,320516.7413,306700.6254,307467.2713,308216.6343,308983.5841,309750.1146,313633.0177,314400.2266,315166.4436,315933.8686,316700.498,317466.6016,318216.6974,318983.414,319758.8655
Blocked,Male,done,19,M_dime.wav,None,725.8834112,3411,312883.2932,319749.846,320516.7413,321283.7446,307467.2713,308216.6343,308983.5841,309750.1146,313633.0177,314400.2266,315166.4436,315933.8686,316700.498,317466.6016,318216.6974,318983.414,320526.1835
Blocked,Male,done,19,M_reek.wav,None,722.726434,3411,312883.2932,319749.846,320516.7413,321283.7446,322050.2504,308216.6343,308983.5841,309750.1146,313633.0177,314400.2266,315166.4436,315933.8686,316700.498,317466.6016,318216.6974,318983.414,321293.3732
Blocked,Male,done,19,M_depth.wav,None,720.7121644,3411,312883.2932,319749.846,320516.7413,321283.7446,322050.2504,322799.7532,308983.5841,309750.1146,313633.0177,314400.2266,315166.4436,315933.8686,316700.498,317466.6016,318216.6974,318983.414,322059.7968
Blocked,Male,done,19,M_done.wav,None,735.5633448,3411,312883.2932,319749.846,320516.7413,321283.7446,322050.2504,322799.7532,323566.3223,309750.1146,313633.0177,314400.2266,315166.4436,315933.8686,316700.498,317466.6016,318216.6974,318983.414,322809.1657
Blocked,Male,done,19,M_jaw.wav,space,560.4081466,3411,312883.2932,319749.846,320516.7413,321283.7446,322050.2504,322799.7532,323566.3223,324333.3302,313633.0177,314400.2266,315166.4436,315933.8686,316700.498,317466.6016,318216.6974,318983.414,323575.5268
Blocked,Male,tile,13,M_park.wav,None,728.9544381,3411,327467.0784,319749.846,320516.7413,321283.7446,322050.2504,322799.7532,323566.3223,324333.3302,313633.0177,314400.2266,315166.4436,315933.8686,316700.498,317466.6016,318216.6974,318983.414,324342.9558
Blocked,Male,tile,13,M_priest.wav,None,719.6380934,3411,327467.0784,319749.846,320516.7413,321283.7446,322050.2504,322799.7532,323566.3223,324333.3302,328216.4661,314400.2266,315166.4436,315933.8686,316700.498,317466.6016,318216.6974,318983.414,327477.2619
Blocked,Male,tile,13,M_cad.wav,None,735.4427669,3411,327467.0784,319749.846,320516.7413,321283.7446,322050.2504,322799.7532,323566.3223,324333.3302,328216.4661,328983.2084,315166.4436,315933.8686,316700.498,317466.6016,318216.6974,318983.414,328225.7664
Blocked,Male,tile,13,M_tile.wav,None,732.6258807,3411,327467.0784,319749.846,320516.7413,321283.7446,322050.2504,322799.7532,323566.3223,324333.3302,328216.4661,328983.2084,329749.6877,315933.8686,316700.498,317466.6016,318216.6974,318983.414,328992.7718
Blocked,Male,tile,13,M_depth.wav,None,731.4324686,3411,327467.0784,319749.846,320516.7413,321283.7446,322050.2504,322799.7532,323566.3223,324333.3302,328216.4661,328983.2084,329749.6877,330516.5138,316700.498,317466.6016,318216.6974,318983.414,329758.6883
Blocked,Male,tile,13,M_bluff.wav,space,1.838658471,3411,327467.0784,319749.846,320516.7413,321283.7446,322050.2504,322799.7532,323566.3223,324333.3302,328216.4661,328983.2084,329749.6877,330516.5138,331282.9423,317466.6016,318216.6974,318983.414,330526.0397
Blocked,Male,tile,13,M_tile.wav,None,725.8104458,3411,327467.0784,319749.846,320516.7413,321283.7446,322050.2504,322799.7532,323566.3223,324333.3302,328216.4661,328983.2084,329749.6877,330516.5138,331282.9423,332050.0337,318216.6974,318983.414,331291.7361
Blocked,Male,tile,13,M_knife.wav,space,507.5007193,3411,327467.0784,319749.846,320516.7413,321283.7446,322050.2504,322799.7532,323566.3223,324333.3302,328216.4661,328983.2084,329749.6877,330516.5138,331282.9423,332050.0337,332799.6517,318983.414,332060.3149
Blocked,Male,tile,13,M_cad.wav,None,736.148302,3411,327467.0784,319749.846,320516.7413,321283.7446,322050.2504,322799.7532,323566.3223,324333.3302,328216.4661,328983.2084,329749.6877,330516.5138,331282.9423,332050.0337,332799.6517,333566.434,332808.675
Blocked,Male,tile,13,M_knife.wav,None,733.0210055,3411,327467.0784,334332.8467,320516.7413,321283.7446,322050.2504,322799.7532,323566.3223,324333.3302,328216.4661,328983.2084,329749.6877,330516.5138,331282.9423,332050.0337,332799.6517,333566.434,333576.2369
Blocked,Male,tile,13,M_tile.wav,None,732.1958202,3411,327467.0784,334332.8467,335099.521,321283.7446,322050.2504,322799.7532,323566.3223,324333.3302,328216.4661,328983.2084,329749.6877,330516.5138,331282.9423,332050.0337,332799.6517,333566.434,334341.4727
Blocked,Male,tile,13,M_cad.wav,space,235.0848974,3411,327467.0784,334332.8467,335099.521,335866.2714,322050.2504,322799.7532,323566.3223,324333.3302,328216.4661,328983.2084,329749.6877,330516.5138,331282.9423,332050.0337,332799.6517,333566.434,335108.6797
Blocked,Male,tile,13,M_lash.wav,None,725.4406735,3411,327467.0784,334332.8467,335099.521,335866.2714,336633.4434,322799.7532,323566.3223,324333.3302,328216.4661,328983.2084,329749.6877,330516.5138,331282.9423,332050.0337,332799.6517,333566.434,335875.5305
Blocked,Male,tile,13,M_jolt.wav,None,722.2153689,3411,327467.0784,334332.8467,335099.521,335866.2714,336633.4434,337400.3691,323566.3223,324333.3302,328216.4661,328983.2084,329749.6877,330516.5138,331282.9423,332050.0337,332799.6517,333566.434,336643.0498
Blocked,Male,tile,13,M_tile.wav,None,718.8923648,3411,327467.0784,334332.8467,335099.521,335866.2714,336633.4434,337400.3691,338149.5222,324333.3302,328216.4661,328983.2084,329749.6877,330516.5138,331282.9423,332050.0337,332799.6517,333566.434,337410.8486
Blocked,Male,tile,13,M_jolt.wav,space,249.1588145,3411,327467.0784,334332.8467,335099.521,335866.2714,336633.4434,337400.3691,338149.5222,338916.4506,328216.4661,328983.2084,329749.6877,330516.5138,331282.9423,332050.0337,332799.6517,333566.434,338158.5485
Blocked,Male,tile,15,M_depth.wav,None,731.5787082,3411,342049.4719,334332.8467,335099.521,335866.2714,336633.4434,337400.3691,338149.5222,338916.4506,328216.4661,328983.2084,329749.6877,330516.5138,331282.9423,332050.0337,332799.6517,333566.434,338925.5122
Blocked,Male,tile,15,M_tile.wav,None,726.8641111,3411,342049.4719,334332.8467,335099.521,335866.2714,336633.4434,337400.3691,338149.5222,338916.4506,342799.1787,328983.2084,329749.6877,330516.5138,331282.9423,332050.0337,332799.6517,333566.434,342052.7692
Blocked,Male,tile,15,M_bluff.wav,None,735.7479217,3411,342049.4719,334332.8467,335099.521,335866.2714,336633.4434,337400.3691,338149.5222,338916.4506,342799.1787,343566.2985,329749.6877,330516.5138,331282.9423,332050.0337,332799.6517,333566.434,342808.3275
Blocked,Male,tile,15,M_tile.wav,space,424.0697646,3411,342049.4719,334332.8467,335099.521,335866.2714,336633.4434,337400.3691,338149.5222,338916.4506,342799.1787,343566.2985,344333.0461,330516.5138,331282.9423,332050.0337,332799.6517,333566.434,343575.5911
Blocked,Male,tile,15,M_jolt.wav,space,520.8134498,3411,342049.4719,334332.8467,335099.521,335866.2714,336633.4434,337400.3691,338149.5222,338916.4506,342799.1787,343566.2985,344333.0461,345099.5971,331282.9423,332050.0337,332799.6517,333566.434,344342.8074
Blocked,Male,tile,15,M_park.wav,None,725.7612874,3411,342049.4719,334332.8467,335099.521,335866.2714,336633.4434,337400.3691,338149.5222,338916.4506,342799.1787,343566.2985,344333.0461,345099.5971,345866.6847,332050.0337,332799.6517,333566.434,345109.0831
Blocked,Male,tile,15,M_bluff.wav,None,722.6819126,3411,342049.4719,334332.8467,335099.521,335866.2714,336633.4434,337400.3691,338149.5222,338916.4506,342799.1787,343566.2985,344333.0461,345099.5971,345866.6847,346633.317,332799.6517,333566.434,345876.5783
Blocked,Male,tile,15,M_jolt.wav,None,720.8404713,3411,342049.4719,334332.8467,335099.521,335866.2714,336633.4434,337400.3691,338149.5222,338916.4506,342799.1787,343566.2985,344333.0461,345099.5971,345866.6847,346633.317,347382.9292,333566.434,346642.9113
Blocked,Male,tile,15,M_tile.wav,None,735.2251085,3411,342049.4719,334332.8467,335099.521,335866.2714,336633.4434,337400.3691,338149.5222,338916.4506,342799.1787,343566.2985,344333.0461,345099.5971,345866.6847,346633.317,347382.9292,348149.4681,347392.8064
Blocked,Male,tile,15,M_jolt.wav,space,424.6015437,3411,342049.4719,348916.0787,335099.521,335866.2714,336633.4434,337400.3691,338149.5222,338916.4506,342799.1787,343566.2985,344333.0461,345099.5971,345866.6847,346633.317,347382.9292,348149.4681,348158.9505
Blocked,Male,tile,15,M_greet.wav,None,730.4171408,3411,342049.4719,348916.0787,349683.0003,335866.2714,336633.4434,337400.3691,338149.5222,338916.4506,342799.1787,343566.2985,344333.0461,345099.5971,345866.6847,346633.317,347382.9292,348149.4681,348925.383
Blocked,Male,tile,15,M_tile.wav,None,727.7925615,3411,342049.4719,348916.0787,349683.0003,350449.3148,336633.4434,337400.3691,338149.5222,338916.4506,342799.1787,343566.2985,344333.0461,345099.5971,345866.6847,346633.317,347382.9292,348149.4681,349692.4088
Blocked,Male,tile,15,M_reek.wav,space,476.9196855,3411,342049.4719,348916.0787,349683.0003,350449.3148,351216.5106,337400.3691,338149.5222,338916.4506,342799.1787,343566.2985,344333.0461,345099.5971,345866.6847,346633.317,347382.9292,348149.4681,350458.6017
Blocked,Male,tile,15,M_greet.wav,None,721.798602,3411,342049.4719,348916.0787,349683.0003,350449.3148,351216.5106,351983.2394,338149.5222,338916.4506,342799.1787,343566.2985,344333.0461,345099.5971,345866.6847,346633.317,347382.9292,348149.4681,351226.3084
Blocked,Male,tile,15,M_reek.wav,None,719.7895884,3411,342049.4719,348916.0787,349683.0003,350449.3148,351216.5106,351983.2394,352732.4688,338916.4506,342799.1787,343566.2985,344333.0461,345099.5971,345866.6847,346633.317,347382.9292,348149.4681,351992.7616
Blocked,Male,tile,15,M_park.wav,None,735.8205775,3411,342049.4719,348916.0787,349683.0003,350449.3148,351216.5106,351983.2394,352732.4688,353499.3206,342799.1787,343566.2985,344333.0461,345099.5971,345866.6847,346633.317,347382.9292,348149.4681,352741.1381
Blocked,Male,cave,8,M_cling.wav,None,732.6215529,3411,356633.0112,348916.0787,349683.0003,350449.3148,351216.5106,351983.2394,352732.4688,353499.3206,342799.1787,343566.2985,344333.0461,345099.5971,345866.6847,346633.317,347382.9292,348149.4681,353508.8574
Blocked,Male,cave,8,M_jaw.wav,None,719.6677742,3411,356633.0112,348916.0787,349683.0003,350449.3148,351216.5106,351983.2394,352732.4688,353499.3206,357382.748,343566.2985,344333.0461,345099.5971,345866.6847,346633.317,347382.9292,348149.4681,356642.7013
Blocked,Male,cave,8,M_cave.wav,None,734.4339318,3411,356633.0112,348916.0787,349683.0003,350449.3148,351216.5106,351983.2394,352732.4688,353499.3206,357382.748,358149.3555,344333.0461,345099.5971,345866.6847,346633.317,347382.9292,348149.4681,357392.3377
Blocked,Male,cave,8,M_priest.wav,space,352.5967384,3411,356633.0112,348916.0787,349683.0003,350449.3148,351216.5106,351983.2394,352732.4688,353499.3206,357382.748,358149.3555,358916.1108,345099.5971,345866.6847,346633.317,347382.9292,348149.4681,358158.8274
Blocked,Male,cave,8,M_depth.wav,None,728.7766631,3411,356633.0112,348916.0787,349683.0003,350449.3148,351216.5106,351983.2394,352732.4688,353499.3206,357382.748,358149.3555,358916.1108,359682.838,345866.6847,346633.317,347382.9292,348149.4681,358925.4043
Blocked,Male,cave,8,M_cave.wav,None,726.1496098,3411,356633.0112,348916.0787,349683.0003,350449.3148,351216.5106,351983.2394,352732.4688,353499.3206,357382.748,358149.3555,358916.1108,359682.838,360449.824,346633.317,347382.9292,348149.4681,359692.4212
Blocked,Male,cave,8,M_greet.wav,space,411.7513387,3411,356633.0112,348916.0787,349683.0003,350449.3148,351216.5106,351983.2394,352732.4688,353499.3206,357382.748,358149.3555,358916.1108,359682.838,360449.824,361216.5657,347382.9292,348149.4681,360459.6625
Blocked,Male,cave,8,M_greet.wav,None,719.4637191,3411,356633.0112,348916.0787,349683.0003,350449.3148,351216.5106,351983.2394,352732.4688,353499.3206,357382.748,358149.3555,358916.1108,359682.838,360449.824,361216.5657,361965.937,348149.4681,361226.8315
Blocked,Male,cave,8,M_jaw.wav,None,735.2371658,3411,356633.0112,348916.0787,349683.0003,350449.3148,351216.5106,351983.2394,352732.4688,353499.3206,357382.748,358149.3555,358916.1108,359682.838,360449.824,361216.5657,361965.937,362732.6905,361975.4231
Blocked,Male,cave,8,M_cave.wav,None,732.6456681,3411,356633.0112,363499.1218,349683.0003,350449.3148,351216.5106,351983.2394,352732.4688,353499.3206,357382.748,358149.3555,358916.1108,359682.838,360449.824,361216.5657,361965.937,362732.6905,362742.2094
Blocked,Male,cave,8,M_lash.wav,space,347.2393686,3411,356633.0112,363499.1218,364265.9136,350449.3148,351216.5106,351983.2394,352732.4688,353499.3206,357382.748,358149.3555,358916.1108,359682.838,360449.824,361216.5657,361965.937,362732.6905,363508.1082
Blocked,Male,cave,8,M_cling.wav,None,726.890082,3411,356633.0112,363499.1218,364265.9136,365033.0473,351216.5106,351983.2394,352732.4688,353499.3206,357382.748,358149.3555,358916.1108,359682.838,360449.824,361216.5657,361965.937,362732.6905,364275.1678
Blocked,Male,cave,8,M_cave.wav,None,723.7046608,3411,356633.0112,363499.1218,364265.9136,365033.0473,365798.9515,351983.2394,352732.4688,353499.3206,357382.748,358149.3555,358916.1108,359682.838,360449.824,361216.5657,361965.937,362732.6905,365042.8435
Blocked,Male,cave,8,M_lash.wav,space,487.3892497,3411,356633.0112,363499.1218,364265.9136,365033.0473,365798.9515,366566.3972,352732.4688,353499.3206,357382.748,358149.3555,358916.1108,359682.838,360449.824,361216.5657,361965.937,362732.6905,365807.9021
Blocked,Male,cave,8,M_reek.wav,None,721.025358,3411,356633.0112,363499.1218,364265.9136,365033.0473,365798.9515,366566.3972,367315.9021,353499.3206,357382.748,358149.3555,358916.1108,359682.838,360449.824,361216.5657,361965.937,362732.6905,366576.1454
Blocked,Male,cave,8,M_romp.wav,None,736.5712523,3411,356633.0112,363499.1218,364265.9136,365033.0473,365798.9515,366566.3972,367315.9021,368082.5446,357382.748,358149.3555,358916.1108,359682.838,360449.824,361216.5657,361965.937,362732.6905,367324.9801
Blocked,Male,done,20,M_depth.wav,None,733.774154,3411,371216.3267,363499.1218,364265.9136,365033.0473,365798.9515,366566.3972,367315.9021,368082.5446,357382.748,358149.3555,358916.1108,359682.838,360449.824,361216.5657,361965.937,362732.6905,368092.0582
Blocked,Male,done,20,M_romp.wav,None,718.7476712,3411,371216.3267,363499.1218,364265.9136,365033.0473,365798.9515,366566.3972,367315.9021,368082.5446,371965.6124,358149.3555,358916.1108,359682.838,360449.824,361216.5657,361965.937,362732.6905,371226.4583
Blocked,Male,done,20,M_done.wav,None,735.2019204,3411,371216.3267,363499.1218,364265.9136,365033.0473,365798.9515,366566.3972,367315.9021,368082.5446,371965.6124,372732.6549,358916.1108,359682.838,360449.824,361216.5657,361965.937,362732.6905,371974.4857
Blocked,Male,done,20,M_dime.wav,space,420.2384786,3411,371216.3267,363499.1218,364265.9136,365033.0473,365798.9515,366566.3972,367315.9021,368082.5446,371965.6124,372732.6549,373499.1156,359682.838,360449.824,361216.5657,361965.937,362732.6905,372738.9704
Blocked,Male,done,20,M_greet.wav,None,728.4371895,3411,371216.3267,363499.1218,364265.9136,365033.0473,365798.9515,366566.3972,367315.9021,368082.5446,371965.6124,372732.6549,373499.1156,374265.712,360449.824,361216.5657,361965.937,362732.6905,373508.6567
Blocked,Male,done,20,M_jaw.wav,None,726.5827633,3411,371216.3267,363499.1218,364265.9136,365033.0473,365798.9515,366566.3972,367315.9021,368082.5446,371965.6124,372732.6549,373499.1156,374265.712,375032.9209,361216.5657,361965.937,362732.6905,374274.9582
Blocked,Male,done,20,M_reek.wav,None,723.6023238,3411,371216.3267,363499.1218,364265.9136,365033.0473,365798.9515,366566.3972,367315.9021,368082.5446,371965.6124,372732.6549,373499.1156,374265.712,375032.9209,375799.2764,361965.937,362732.6905,375042.5411
Blocked,Male,done,20,M_done.wav,None,721.4594381,3411,371216.3267,363499.1218,364265.9136,365033.0473,365798.9515,366566.3972,367315.9021,368082.5446,371965.6124,372732.6549,373499.1156,374265.712,375032.9209,375799.2764,376566.0416,362732.6905,375809.17
Blocked,Male,done,20,M_knife.wav,space,470.8054573,3411,371216.3267,363499.1218,364265.9136,365033.0473,365798.9515,366566.3972,367315.9021,368082.5446,371965.6124,372732.6549,373499.1156,374265.712,375032.9209,375799.2764,376566.0416,377315.8545,376576.3785
Blocked,Male,done,20,M_done.wav,None,732.6750397,3411,371216.3267,378082.3832,364265.9136,365033.0473,365798.9515,366566.3972,367315.9021,368082.5446,371965.6124,372732.6549,373499.1156,374265.712,375032.9209,375799.2764,376566.0416,377315.8545,377325.3727
Blocked,Male,done,20,M_romp.wav,space,539.1174871,3411,371216.3267,378082.3832,378849.2059,365033.0473,365798.9515,366566.3972,367315.9021,368082.5446,371965.6124,372732.6549,373499.1156,374265.712,375032.9209,375799.2764,376566.0416,377315.8545,378091.9976
Blocked,Male,done,20,M_lash.wav,None,726.4504363,3411,371216.3267,378082.3832,378849.2059,379615.8406,365798.9515,366566.3972,367315.9021,368082.5446,371965.6124,372732.6549,373499.1156,374265.712,375032.9209,375799.2764,376566.0416,377315.8545,378858.9492
Blocked,Male,done,20,M_depth.wav,None,725.0712104,3411,371216.3267,378082.3832,378849.2059,379615.8406,380382.8943,366566.3972,367315.9021,368082.5446,371965.6124,372732.6549,373499.1156,374265.712,375032.9209,375799.2764,376566.0416,377315.8545,379624.8734
Blocked,Male,done,20,M_greet.wav,None,721.871567,3411,371216.3267,378082.3832,378849.2059,379615.8406,380382.8943,381149.3812,367315.9021,368082.5446,371965.6124,372732.6549,373499.1156,374265.712,375032.9209,375799.2764,376566.0416,377315.8545,380392.5479
Blocked,Male,done,20,M_done.wav,None,720.5334618,3411,371216.3267,378082.3832,378849.2059,379615.8406,380382.8943,381149.3812,381898.6676,368082.5446,371965.6124,372732.6549,373499.1156,374265.712,375032.9209,375799.2764,376566.0416,377315.8545,381158.866
Blocked,Male,done,20,M_knife.wav,space,546.6972007,3411,371216.3267,378082.3832,378849.2059,379615.8406,380382.8943,381149.3812,381898.6676,382665.7058,371965.6124,372732.6549,373499.1156,374265.712,375032.9209,375799.2764,376566.0416,377315.8545,381908.3704
Blocked,Male,done,21,M_reek.wav,None,731.8782979,3411,385799.4718,378082.3832,378849.2059,379615.8406,380382.8943,381149.3812,381898.6676,382665.7058,371965.6124,372732.6549,373499.1156,374265.712,375032.9209,375799.2764,376566.0416,377315.8545,382675.3124
Blocked,Male,done,21,M_jaw.wav,None,719.8031917,3411,385799.4718,378082.3832,378849.2059,379615.8406,380382.8943,381149.3812,381898.6676,382665.7058,386548.8021,372732.6549,373499.1156,374265.712,375032.9209,375799.2764,376566.0416,377315.8545,385809.2065
Blocked,Male,done,21,M_bluff.wav,None,735.2662282,3411,385799.4718,378082.3832,378849.2059,379615.8406,380382.8943,381149.3812,381898.6676,382665.7058,386548.8021,387315.6974,373499.1156,374265.712,375032.9209,375799.2764,376566.0416,377315.8545,386558.2949
Blocked,Male,done,21,M_done.wav,None,733.154878,3411,385799.4718,378082.3832,378849.2059,379615.8406,380382.8943,381149.3812,381898.6676,382665.7058,386548.8021,387315.6974,388082.1027,374265.712,375032.9209,375799.2764,376566.0416,377315.8545,387324.9439
Blocked,Male,done,21,M_priest.wav,space,523.931162,3411,385799.4718,378082.3832,378849.2059,379615.8406,380382.8943,381149.3812,381898.6676,382665.7058,386548.8021,387315.6974,388082.1027,388848.923,375032.9209,375799.2764,376566.0416,377315.8545,388091.0407
Blocked,Male,done,21,M_greet.wav,None,727.1856526,3411,385799.4718,378082.3832,378849.2059,379615.8406,380382.8943,381149.3812,381898.6676,382665.7058,386548.8021,387315.6974,388082.1027,388848.923,389615.3165,375799.2764,376566.0416,377315.8545,388858.8042
Blocked,Male,done,21,M_greet.wav,None,726.3375879,3411,385799.4718,378082.3832,378849.2059,379615.8406,380382.8943,381149.3812,381898.6676,382665.7058,386548.8021,387315.6974,388082.1027,388848.923,389615.3165,390382.6967,376566.0416,377315.8545,389624.4381
Blocked,Male,done,21,M_romp.wav,None,722.8943151,3411,385799.4718,378082.3832,378849.2059,379615.8406,380382.8943,381149.3812,381898.6676,382665.7058,386548.8021,387315.6974,388082.1027,388848.923,389615.3165,390382.6967,391149.072,377315.8545,390392.2613
Blocked,Male,done,21,M_gnash.wav,None,721.105434,3411,385799.4718,378082.3832,378849.2059,379615.8406,380382.8943,381149.3812,381898.6676,382665.7058,386548.8021,387315.6974,388082.1027,388848.923,389615.3165,390382.6967,391149.072,391899.3313,391158.7099
Blocked,Male,done,21,M_reek.wav,None,735.2424217,3411,385799.4718,392665.5026,378849.2059,379615.8406,380382.8943,381149.3812,381898.6676,382665.7058,386548.8021,387315.6974,388082.1027,388848.923,389615.3165,390382.6967,391149.072,391899.3313,391909.2314
Blocked,Male,done,21,M_done.wav,None,734.1074436,3411,385799.4718,392665.5026,393432.1785,379615.8406,380382.8943,381149.3812,381898.6676,382665.7058,386548.8021,387315.6974,388082.1027,388848.923,389615.3165,390382.6967,391149.072,391899.3313,392674.9222
Blocked,Male,done,21,M_jaw.wav,space,429.462071,3411,385799.4718,392665.5026,393432.1785,394198.6555,380382.8943,381149.3812,381898.6676,382665.7058,386548.8021,387315.6974,388082.1027,388848.923,389615.3165,390382.6967,391149.072,391899.3313,393441.4373
Blocked,Male,done,21,M_done.wav,None,728.9838097,3411,385799.4718,392665.5026,393432.1785,394198.6555,394965.5725,381149.3812,381898.6676,382665.7058,386548.8021,387315.6974,388082.1027,388848.923,389615.3165,390382.6967,391149.072,391899.3313,394207.804
Blocked,Male,done,21,M_dime.wav,space,504.0509542,3411,385799.4718,392665.5026,393432.1785,394198.6555,394965.5725,395732.3526,381898.6676,382665.7058,386548.8021,387315.6974,388082.1027,388848.923,389615.3165,390382.6967,391149.072,391899.3313,394974.8221
Blocked,Male,done,21,M_done.wav,None,723.0955879,3411,385799.4718,392665.5026,393432.1785,394198.6555,394965.5725,395732.3526,396499.0327,382665.7058,386548.8021,387315.6974,388082.1027,388848.923,389615.3165,390382.6967,391149.072,391899.3313,395741.7941
Blocked,Male,done,21,M_dime.wav,space,457.7818057,3411,385799.4718,392665.5026,393432.1785,394198.6555,394965.5725,395732.3526,396499.0327,397248.6957,386548.8021,387315.6974,388082.1027,388848.923,389615.3165,390382.6967,391149.072,391899.3313,396509.0704
Blocked,Male,cave,12,M_greet.wav,None,733.9949044,3411,400382.1393,392665.5026,393432.1785,394198.6555,394965.5725,395732.3526,396499.0327,397248.6957,386548.8021,387315.6974,388082.1027,388848.923,389615.3165,390382.6967,391149.072,391899.3313,397258.4949
Blocked,Male,cave,12,M_cave.wav,None,720.556031,3411,400382.1393,392665.5026,393432.1785,394198.6555,394965.5725,395732.3526,396499.0327,397248.6957,401132.0195,387315.6974,388082.1027,388848.923,389615.3165,390382.6967,391149.072,391899.3313,400391.2784
Blocked,Male,cave,12,M_jolt.wav,space,609.2437506,3411,400382.1393,392665.5026,393432.1785,394198.6555,394965.5725,395732.3526,396499.0327,397248.6957,401132.0195,401898.8858,388082.1027,388848.923,389615.3165,390382.6967,391149.072,391899.3313,401141.5668
Blocked,Male,cave,12,M_depth.wav,None,731.3400256,3411,400382.1393,392665.5026,393432.1785,394198.6555,394965.5725,395732.3526,396499.0327,397248.6957,401132.0195,401898.8858,402665.5076,388848.923,389615.3165,390382.6967,391149.072,391899.3313,401908.1682
Blocked,Male,cave,12,M_priest.wav,None,729.3195724,3411,400382.1393,392665.5026,393432.1785,394198.6555,394965.5725,395732.3526,396499.0327,397248.6957,401132.0195,401898.8858,402665.5076,403432.1163,389615.3165,390382.6967,391149.072,391899.3313,402674.656
Blocked,Male,cave,12,M_cave.wav,None,726.6850993,3411,400382.1393,392665.5026,393432.1785,394198.6555,394965.5725,395732.3526,396499.0327,397248.6957,401132.0195,401898.8858,402665.5076,403432.1163,404198.5195,390382.6967,391149.072,391899.3313,403441.9372
Blocked,Male,cave,12,M_lash.wav,space,535.0960586,3411,400382.1393,392665.5026,393432.1785,394198.6555,394965.5725,395732.3526,396499.0327,397248.6957,401132.0195,401898.8858,402665.5076,403432.1163,404198.5195,404965.8696,391149.072,391899.3313,404207.6435
Blocked,Male,cave,12,M_greet.wav,None,720.9285856,3411,400382.1393,392665.5026,393432.1785,394198.6555,394965.5725,395732.3526,396499.0327,397248.6957,401132.0195,401898.8858,402665.5076,403432.1163,404198.5195,404965.8696,405732.0505,391899.3313,404975.5004
Blocked,Male,cave,12,M_gnash.wav,None,719.579041,3411,400382.1393,392665.5026,393432.1785,394198.6555,394965.5725,395732.3526,396499.0327,397248.6957,401132.0195,401898.8858,402665.5076,403432.1163,404198.5195,404965.8696,405732.0505,406481.7419,405741.5041
Blocked,Male,cave,12,M_cave.wav,None,734.9987929,3411,400382.1393,407248.6385,393432.1785,394198.6555,394965.5725,395732.3526,396499.0327,397248.6957,401132.0195,401898.8858,402665.5076,403432.1163,404198.5195,404965.8696,405732.0505,406481.7419,406490.7605
Blocked,Male,cave,12,M_park.wav,space,492.8103094,3411,400382.1393,407248.6385,408015.374,394198.6555,394965.5725,395732.3526,396499.0327,397248.6957,401132.0195,401898.8858,402665.5076,403432.1163,404198.5195,404965.8696,405732.0505,406481.7419,407257.8667
Blocked,Male,cave,12,M_greet.wav,None,729.3999582,3411,400382.1393,407248.6385,408015.374,408782.0124,394965.5725,395732.3526,396499.0327,397248.6957,401132.0195,401898.8858,402665.5076,403432.1163,404198.5195,404965.8696,405732.0505,406481.7419,408024.6922
Blocked,Male,cave,12,M_park.wav,None,727.2397582,3411,400382.1393,407248.6385,408015.374,408782.0124,409548.8463,395732.3526,396499.0327,397248.6957,401132.0195,401898.8858,402665.5076,403432.1163,404198.5195,404965.8696,405732.0505,406481.7419,408791.3232
Blocked,Male,cave,12,M_bluff.wav,None,725.0412209,3411,400382.1393,407248.6385,408015.374,408782.0124,409548.8463,410315.7979,396499.0327,397248.6957,401132.0195,401898.8858,402665.5076,403432.1163,404198.5195,404965.8696,405732.0505,406481.7419,409558.2445
Blocked,Male,cave,12,M_cave.wav,None,722.2181512,3411,400382.1393,407248.6385,408015.374,408782.0124,409548.8463,410315.7979,411082.5464,397248.6957,401132.0195,401898.8858,402665.5076,403432.1163,404198.5195,404965.8696,405732.0505,406481.7419,410325.6312
Blocked,Male,cave,12,M_depth.wav,space,538.1992399,3411,400382.1393,407248.6385,408015.374,408782.0124,409548.8463,410315.7979,411082.5464,411831.8924,401132.0195,401898.8858,402665.5076,403432.1163,404198.5195,404965.8696,405732.0505,406481.7419,411092.4282
Blocked,Male,done,23,M_romp.wav,None,734.709715,3411,414965.7896,407248.6385,408015.374,408782.0124,409548.8463,410315.7979,411082.5464,411831.8924,401132.0195,401898.8858,402665.5076,403432.1163,404198.5195,404965.8696,405732.0505,406481.7419,411841.1043
Blocked,Male,done,23,M_done.wav,None,719.6770492,3411,414965.7896,407248.6385,408015.374,408782.0124,409548.8463,410315.7979,411082.5464,411831.8924,415714.925,401898.8858,402665.5076,403432.1163,404198.5195,404965.8696,405732.0505,406481.7419,414975.7354
Blocked,Male,done,23,M_park.wav,None,735.8459299,3411,414965.7896,407248.6385,408015.374,408782.0124,409548.8463,410315.7979,411082.5464,411831.8924,415714.925,416482.035,402665.5076,403432.1163,404198.5195,404965.8696,405732.0505,406481.7419,415724.1715
Blocked,Male,done,23,M_lash.wav,space,19.19291308,3411,414965.7896,407248.6385,408015.374,408782.0124,409548.8463,410315.7979,411082.5464,411831.8924,415714.925,416482.035,417248.401,403432.1163,404198.5195,404965.8696,405732.0505,406481.7419,416491.3498
Blocked,Male,done,23,M_done.wav,None,729.7722036,3411,414965.7896,407248.6385,408015.374,408782.0124,409548.8463,410315.7979,411082.5464,411831.8924,415714.925,416482.035,417248.401,418015.0225,404198.5195,404965.8696,405732.0505,406481.7419,417257.8769
Blocked,Male,done,23,M_jolt.wav,space,646.0605185,3411,414965.7896,407248.6385,408015.374,408782.0124,409548.8463,410315.7979,411082.5464,411831.8924,415714.925,416482.035,417248.401,418015.0225,418782.1244,404965.8696,405732.0505,406481.7419,418024.4606
Blocked,Male,done,23,M_done.wav,None,723.4322783,3411,414965.7896,407248.6385,408015.374,408782.0124,409548.8463,410315.7979,411082.5464,411831.8924,415714.925,416482.035,417248.401,418015.0225,418782.1244,419548.9548,405732.0505,406481.7419,418791.8593
Blocked,Male,done,23,M_cad.wav,space,471.5975616,3411,414965.7896,407248.6385,408015.374,408782.0124,409548.8463,410315.7979,411082.5464,411831.8924,415714.925,416482.035,417248.401,418015.0225,418782.1244,419548.9548,420298.3865,406481.7419,419558.9111
Blocked,Male,done,23,M_depth.wav,None,735.1948088,3411,414965.7896,407248.6385,408015.374,408782.0124,409548.8463,410315.7979,411082.5464,411831.8924,415714.925,416482.035,417248.401,418015.0225,418782.1244,419548.9548,420298.3865,421065.1646,420307.8441
Blocked,Male,done,23,M_knife.wav,None,733.2395916,3411,414965.7896,421831.8436,408015.374,408782.0124,409548.8463,410315.7979,411082.5464,411831.8924,415714.925,416482.035,417248.401,418015.0225,418782.1244,419548.9548,420298.3865,421065.1646,421074.4123
Blocked,Male,done,23,M_gnash.wav,None,731.1535939,3411,414965.7896,421831.8436,422598.2656,408782.0124,409548.8463,410315.7979,411082.5464,411831.8924,415714.925,416482.035,417248.401,418015.0225,418782.1244,419548.9548,420298.3865,421065.1646,421841.3414
Blocked,Male,done,23,M_depth.wav,None,729.5344486,3411,414965.7896,421831.8436,422598.2656,423365.1572,409548.8463,410315.7979,411082.5464,411831.8924,415714.925,416482.035,417248.401,418015.0225,418782.1244,419548.9548,420298.3865,421065.1646,422607.7331
Blocked,Male,done,23,M_knife.wav,None,727.3943452,3411,414965.7896,421831.8436,422598.2656,423365.1572,424131.835,410315.7979,411082.5464,411831.8924,415714.925,416482.035,417248.401,418015.0225,418782.1244,419548.9548,420298.3865,421065.1646,423374.4084
Blocked,Male,done,23,M_priest.wav,None,725.2205419,3411,414965.7896,421831.8436,422598.2656,423365.1572,424131.835,424898.6802,411082.5464,411831.8924,415714.925,416482.035,417248.401,418015.0225,418782.1244,419548.9548,420298.3865,421065.1646,424141.2595
Blocked,Male,done,23,M_done.wav,None,722.7904331,3411,414965.7896,421831.8436,422598.2656,423365.1572,424131.835,424898.6802,425665.4312,411831.8924,415714.925,416482.035,417248.401,418015.0225,418782.1244,419548.9548,420298.3865,421065.1646,424908.4384
Blocked,Male,done,23,M_priest.wav,space,426.7252614,3411,414965.7896,421831.8436,422598.2656,423365.1572,424131.835,424898.6802,425665.4312,426415.0246,415714.925,416482.035,417248.401,418015.0225,418782.1244,419548.9548,420298.3865,421065.1646,425675.7224
Blocked,Male,done,22,M_jolt.wav,None,734.5613115,3411,429548.2848,421831.8436,422598.2656,423365.1572,424131.835,424898.6802,425665.4312,426415.0246,415714.925,416482.035,417248.401,418015.0225,418782.1244,419548.9548,420298.3865,421065.1646,426424.3143
Blocked,Male,done,22,M_lash.wav,None,724.1501804,3411,429548.2848,421831.8436,422598.2656,423365.1572,424131.835,424898.6802,425665.4312,426415.0246,430315.4587,416482.035,417248.401,418015.0225,418782.1244,419548.9548,420298.3865,421065.1646,429557.2496
Blocked,Male,done,22,M_done.wav,None,721.072352,3411,429548.2848,421831.8436,422598.2656,423365.1572,424131.835,424898.6802,425665.4312,426415.0246,430315.4587,431081.9349,417248.401,418015.0225,418782.1244,419548.9548,420298.3865,421065.1646,430325.1074
Blocked,Male,done,22,M_depth.wav,space,554.4794234,3411,429548.2848,421831.8436,422598.2656,423365.1572,424131.835,424898.6802,425665.4312,426415.0246,430315.4587,431081.9349,431831.74,418015.0225,418782.1244,419548.9548,420298.3865,421065.1646,431091.8705
Blocked,Male,done,22,M_done.wav,None,732.7306909,3411,429548.2848,421831.8436,422598.2656,423365.1572,424131.835,424898.6802,425665.4312,426415.0246,430315.4587,431081.9349,431831.74,432598.1747,418782.1244,419548.9548,420298.3865,421065.1646,431841.2555
Blocked,Male,done,22,M_cling.wav,space,678.3491215,3411,429548.2848,421831.8436,422598.2656,423365.1572,424131.835,424898.6802,425665.4312,426415.0246,430315.4587,431081.9349,431831.74,432598.1747,433365.0648,419548.9548,420298.3865,421065.1646,432607.9613
Blocked,Male,done,22,M_greet.wav,None,727.5090488,3411,429548.2848,421831.8436,422598.2656,423365.1572,424131.835,424898.6802,425665.4312,426415.0246,430315.4587,431081.9349,431831.74,432598.1747,433365.0648,434131.647,420298.3865,421065.1646,433374.1536
Blocked,Male,done,22,M_done.wav,None,725.6818297,3411,429548.2848,421831.8436,422598.2656,423365.1572,424131.835,424898.6802,425665.4312,426415.0246,430315.4587,431081.9349,431831.74,432598.1747,433365.0648,434131.647,434898.8633,421065.1646,434141.0613
Blocked,Male,done,22,M_romp.wav,space,474.0953795,3411,429548.2848,421831.8436,422598.2656,423365.1572,424131.835,424898.6802,425665.4312,426415.0246,430315.4587,431081.9349,431831.74,432598.1747,433365.0648,434131.647,434898.8633,435665.3001,434908.1799
Blocked,Male,done,22,M_lash.wav,None,718.8036321,3411,429548.2848,436414.8517,422598.2656,423365.1572,424131.835,424898.6802,425665.4312,426415.0246,430315.4587,431081.9349,431831.74,432598.1747,433365.0648,434131.647,434898.8633,435665.3001,435675.6942
Blocked,Male,done,22,M_greet.wav,None,735.0754677,3411,429548.2848,436414.8517,437181.3699,423365.1572,424131.835,424898.6802,425665.4312,426415.0246,430315.4587,431081.9349,431831.74,432598.1747,433365.0648,434131.647,434898.8633,435665.3001,436424.195
Blocked,Male,done,22,M_done.wav,None,733.5135196,3411,429548.2848,436414.8517,437181.3699,437947.9734,424131.835,424898.6802,425665.4312,426415.0246,430315.4587,431081.9349,431831.74,432598.1747,433365.0648,434131.647,434898.8633,435665.3001,437190.5456
Blocked,Male,done,22,M_lash.wav,space,366.8614156,3411,429548.2848,436414.8517,437181.3699,437947.9734,438714.9065,424898.6802,425665.4312,426415.0246,430315.4587,431081.9349,431831.74,432598.1747,433365.0648,434131.647,434898.8633,435665.3001,437951.409
Blocked,Male,done,22,M_park.wav,None,727.706302,3411,429548.2848,436414.8517,437181.3699,437947.9734,438714.9065,439481.5672,425665.4312,426415.0246,430315.4587,431081.9349,431831.74,432598.1747,433365.0648,434131.647,434898.8633,435665.3001,438724.485
Blocked,Male,done,22,M_jolt.wav,None,725.986057,3411,429548.2848,436414.8517,437181.3699,437947.9734,438714.9065,439481.5672,440248.6672,426415.0246,430315.4587,431081.9349,431831.74,432598.1747,433365.0648,434131.647,434898.8633,435665.3001,439491.0159
Blocked,Male,done,22,M_gnash.wav,None,723.2078179,3411,429548.2848,436414.8517,437181.3699,437947.9734,438714.9065,439481.5672,440248.6672,441015.7141,430315.4587,431081.9349,431831.74,432598.1747,433365.0648,434131.647,434898.8633,435665.3001,440258.6236
Blocked,Male,cave,11,M_greet.wav,None,721.2461075,3411,444131.9608,436414.8517,437181.3699,437947.9734,438714.9065,439481.5672,440248.6672,441015.7141,430315.4587,431081.9349,431831.74,432598.1747,433365.0648,434131.647,434898.8633,435665.3001,441025.5396
Blocked,Male,cave,11,M_reek.wav,None,719.6566435,3411,444131.9608,436414.8517,437181.3699,437947.9734,438714.9065,439481.5672,440248.6672,441015.7141,444880.9992,431081.9349,431831.74,432598.1747,433365.0648,434131.647,434898.8633,435665.3001,444141.5276
Blocked,Male,cave,11,M_cave.wav,None,736.4973598,3411,444131.9608,436414.8517,437181.3699,437947.9734,438714.9065,439481.5672,440248.6672,441015.7141,444880.9992,445648.3453,431831.74,432598.1747,433365.0648,434131.647,434898.8633,435665.3001,444889.6276
Blocked,Male,cave,11,M_lash.wav,space,604.1003293,3411,444131.9608,436414.8517,437181.3699,437947.9734,438714.9065,439481.5672,440248.6672,441015.7141,444880.9992,445648.3453,446414.908,432598.1747,433365.0648,434131.647,434898.8633,435665.3001,445658.0033
Blocked,Male,cave,11,M_knife.wav,None,729.8711394,3411,444131.9608,436414.8517,437181.3699,437947.9734,438714.9065,439481.5672,440248.6672,441015.7141,444880.9992,445648.3453,446414.908,447181.4892,433365.0648,434131.647,434898.8633,435665.3001,446424.2043
Blocked,Male,cave,11,M_cave.wav,None,727.9592063,3411,444131.9608,436414.8517,437181.3699,437947.9734,438714.9065,439481.5672,440248.6672,441015.7141,444880.9992,445648.3453,446414.908,447181.4892,447947.6624,434131.647,434898.8633,435665.3001,447190.9923
Blocked,Male,cave,11,M_greet.wav,space,433.3796166,3411,444131.9608,436414.8517,437181.3699,437947.9734,438714.9065,439481.5672,440248.6672,441015.7141,444880.9992,445648.3453,446414.908,447181.4892,447947.6624,448714.892,434898.8633,435665.3001,447956.7029
Blocked,Male,cave,11,M_cad.wav,None,723.6493188,3411,444131.9608,436414.8517,437181.3699,437947.9734,438714.9065,439481.5672,440248.6672,441015.7141,444880.9992,445648.3453,446414.908,447181.4892,447947.6624,448714.892,449481.694,435665.3001,448723.9903
Blocked,Male,cave,11,M_bluff.wav,None,720.806153,3411,444131.9608,436414.8517,437181.3699,437947.9734,438714.9065,439481.5672,440248.6672,441015.7141,444880.9992,445648.3453,446414.908,447181.4892,447947.6624,448714.892,449481.694,450248.6425,449491.6784
Blocked,Male,cave,11,M_greet.wav,None,718.9059686,3411,444131.9608,450997.9174,437181.3699,437947.9734,438714.9065,439481.5672,440248.6672,441015.7141,444880.9992,445648.3453,446414.908,447181.4892,447947.6624,448714.892,449481.694,450248.6425,450258.37
Blocked,Male,cave,11,M_cave.wav,None,734.6843625,3411,444131.9608,450997.9174,451764.7763,437947.9734,438714.9065,439481.5672,440248.6672,441015.7141,444880.9992,445648.3453,446414.908,447181.4892,447947.6624,448714.892,449481.694,450248.6425,451007.4996
Blocked,Male,cave,11,M_park.wav,space,455.7406376,3411,444131.9608,450997.9174,451764.7763,452531.1309,438714.9065,439481.5672,440248.6672,441015.7141,444880.9992,445648.3453,446414.908,447181.4892,447947.6624,448714.892,449481.694,450248.6425,451774.2676
Blocked,Male,cave,11,M_knife.wav,None,730.0291276,3411,444131.9608,450997.9174,451764.7763,452531.1309,453297.9168,439481.5672,440248.6672,441015.7141,444880.9992,445648.3453,446414.908,447181.4892,447947.6624,448714.892,449481.694,450248.6425,452540.1585
Blocked,Male,cave,11,M_cling.wav,None,727.7131034,3411,444131.9608,450997.9174,451764.7763,452531.1309,453297.9168,454064.7723,440248.6672,441015.7141,444880.9992,445648.3453,446414.908,447181.4892,447947.6624,448714.892,449481.694,450248.6425,453307.3135
Blocked,Male,cave,11,M_cave.wav,None,725.4657168,3411,444131.9608,450997.9174,451764.7763,452531.1309,453297.9168,454064.7723,454831.5956,441015.7141,444880.9992,445648.3453,446414.908,447181.4892,447947.6624,448714.892,449481.694,450248.6425,454074.4396
Blocked,Male,cave,11,M_jolt.wav,space,436.1825897,3411,444131.9608,450997.9174,451764.7763,452531.1309,453297.9168,454064.7723,454831.5956,455598.3095,444880.9992,445648.3453,446414.908,447181.4892,447947.6624,448714.892,449481.694,450248.6425,454841.7974
Blocked,Male,ball,5,M_dime.wav,None,719.3922997,3411,458715.0549,450997.9174,451764.7763,452531.1309,453297.9168,454064.7723,454831.5956,455598.3095,444880.9992,445648.3453,446414.908,447181.4892,447947.6624,448714.892,449481.694,450248.6425,455608.4581
Blocked,Male,ball,5,M_ball.wav,None,720.0291986,3411,458715.0549,450997.9174,451764.7763,452531.1309,453297.9168,454064.7723,454831.5956,455598.3095,459464.6504,445648.3453,446414.908,447181.4892,447947.6624,448714.892,449481.694,450248.6425,458724.8625
Blocked,Male,ball,5,M_park.wav,None,735.575093,3411,458715.0549,450997.9174,451764.7763,452531.1309,453297.9168,454064.7723,454831.5956,455598.3095,459464.6504,460231.2678,446414.908,447181.4892,447947.6624,448714.892,449481.694,450248.6425,459474.3341
Blocked,Male,ball,5,M_ball.wav,space,93.13160321,3411,458715.0549,450997.9174,451764.7763,452531.1309,453297.9168,454064.7723,454831.5956,455598.3095,459464.6504,460231.2678,460997.6942,447181.4892,447947.6624,448714.892,449481.694,450248.6425,460240.7638
Blocked,Male,ball,5,M_knife.wav,space,391.138698,3411,458715.0549,450997.9174,451764.7763,452531.1309,453297.9168,454064.7723,454831.5956,455598.3095,459464.6504,460231.2678,460997.6942,461764.3305,447947.6624,448714.892,449481.694,450248.6425,461006.6806
Blocked,Male,ball,5,M_reek.wav,None,727.5949991,3411,458715.0549,450997.9174,451764.7763,452531.1309,453297.9168,454064.7723,454831.5956,455598.3095,459464.6504,460231.2678,460997.6942,461764.3305,462531.2135,448714.892,449481.694,450248.6425,461773.3713
Blocked,Male,ball,5,M_dime.wav,None,725.2625893,3411,458715.0549,450997.9174,451764.7763,452531.1309,453297.9168,454064.7723,454831.5956,455598.3095,459464.6504,460231.2678,460997.6942,461764.3305,462531.2135,463298.238,449481.694,450248.6425,462540.6677
Blocked,Male,ball,5,M_ball.wav,None,723.0594144,3411,458715.0549,450997.9174,451764.7763,452531.1309,453297.9168,454064.7723,454831.5956,455598.3095,459464.6504,460231.2678,460997.6942,461764.3305,462531.2135,463298.238,464065.0456,450248.6425,463308.0559
Blocked,Male,ball,5,M_park.wav,space,306.6135757,3411,458715.0549,450997.9174,451764.7763,452531.1309,453297.9168,454064.7723,454831.5956,455598.3095,459464.6504,460231.2678,460997.6942,461764.3305,462531.2135,463298.238,464065.0456,464814.3261,464075.2218
Blocked,Male,ball,5,M_bluff.wav,None,735.3654737,3411,458715.0549,465581.1825,451764.7763,452531.1309,453297.9168,454064.7723,454831.5956,455598.3095,459464.6504,460231.2678,460997.6942,461764.3305,462531.2135,463298.238,464065.0456,464814.3261,464823.865
Blocked,Male,ball,5,M_lash.wav,None,733.5320706,3411,458715.0549,465581.1825,466347.6317,452531.1309,453297.9168,454064.7723,454831.5956,455598.3095,459464.6504,460231.2678,460997.6942,461764.3305,462531.2135,463298.238,464065.0456,464814.3261,465590.7251
Blocked,Male,ball,5,M_gnash.wav,None,732.6465957,3411,458715.0549,465581.1825,466347.6317,467114.4334,453297.9168,454064.7723,454831.5956,455598.3095,459464.6504,460231.2678,460997.6942,461764.3305,462531.2135,463298.238,464065.0456,464814.3261,466356.6704
Blocked,Male,ball,5,M_lash.wav,None,728.9952491,3411,458715.0549,465581.1825,466347.6317,467114.4334,467881.2332,454064.7723,454831.5956,455598.3095,459464.6504,460231.2678,460997.6942,461764.3305,462531.2135,463298.238,464065.0456,464814.3261,467125.3658
Blocked,Male,ball,5,M_gnash.wav,None,728.9114627,3411,458715.0549,465581.1825,466347.6317,467114.4334,467881.2332,468647.5337,454831.5956,455598.3095,459464.6504,460231.2678,460997.6942,461764.3305,462531.2135,463298.238,464065.0456,464814.3261,467890.6788
Blocked,Male,ball,5,M_ball.wav,None,728.7330693,3411,458715.0549,465581.1825,466347.6317,467114.4334,467881.2332,468647.5337,469414.4807,455598.3095,459464.6504,460231.2678,460997.6942,461764.3305,462531.2135,463298.238,464065.0456,464814.3261,468656.6253
Blocked,Male,ball,5,M_cling.wav,space,397.7259621,3411,458715.0549,465581.1825,466347.6317,467114.4334,467881.2332,468647.5337,469414.4807,470181.5613,459464.6504,460231.2678,460997.6942,461764.3305,462531.2135,463298.238,464065.0456,464814.3261,469424.0521
Blocked,Male,ball,4,M_lash.wav,None,726.0441817,3411,473297.9443,465581.1825,466347.6317,467114.4334,467881.2332,468647.5337,469414.4807,470181.5613,459464.6504,460231.2678,460997.6942,461764.3305,462531.2135,463298.238,464065.0456,464814.3261,470187.5797
Blocked,Male,ball,4,M_gnash.wav,None,720.0171403,3411,473297.9443,465581.1825,466347.6317,467114.4334,467881.2332,468647.5337,469414.4807,470181.5613,474047.2149,460231.2678,460997.6942,461764.3305,462531.2135,463298.238,464065.0456,464814.3261,473307.5782
Blocked,Male,ball,4,M_jaw.wav,None,736.2645515,3411,473297.9443,465581.1825,466347.6317,467114.4334,467881.2332,468647.5337,469414.4807,470181.5613,474047.2149,474814.2244,460997.6942,461764.3305,462531.2135,463298.238,464065.0456,464814.3261,474056.4809
Blocked,Male,ball,4,M_depth.wav,None,734.1309409,3411,473297.9443,465581.1825,466347.6317,467114.4334,467881.2332,468647.5337,469414.4807,470181.5613,474047.2149,474814.2244,475581.014,461764.3305,462531.2135,463298.238,464065.0456,464814.3261,474823.759
Blocked,Male,ball,4,M_cling.wav,None,732.4799509,3411,473297.9443,465581.1825,466347.6317,467114.4334,467881.2332,468647.5337,469414.4807,470181.5613,474047.2149,474814.2244,475581.014,476347.5303,462531.2135,463298.238,464065.0456,464814.3261,475590.5359
Blocked,Male,ball,4,M_ball.wav,None,731.3697063,3411,473297.9443,465581.1825,466347.6317,467114.4334,467881.2332,468647.5337,469414.4807,470181.5613,474047.2149,474814.2244,475581.014,476347.5303,477114.3082,463298.238,464065.0456,464814.3261,476356.9638
Blocked,Male,ball,4,M_romp.wav,space,369.8044443,3411,473297.9443,465581.1825,466347.6317,467114.4334,467881.2332,468647.5337,469414.4807,470181.5613,474047.2149,474814.2244,475581.014,476347.5303,477114.3082,477880.7605,464065.0456,464814.3261,477123.8388
Blocked,Male,ball,4,M_ball.wav,None,726.641506,3411,473297.9443,465581.1825,466347.6317,467114.4334,467881.2332,468647.5337,469414.4807,470181.5613,474047.2149,474814.2244,475581.014,476347.5303,477114.3082,477880.7605,478647.3788,464814.3261,477890.2027
Blocked,Male,ball,4,M_gnash.wav,space,365.0700604,3411,473297.9443,465581.1825,466347.6317,467114.4334,467881.2332,468647.5337,469414.4807,470181.5613,474047.2149,474814.2244,475581.014,476347.5303,477114.3082,477880.7605,478647.3788,479414.4517,478656.552
Blocked,Male,ball,4,M_jaw.wav,None,720.9969135,3411,473297.9443,480181.2932,466347.6317,467114.4334,467881.2332,468647.5337,469414.4807,470181.5613,474047.2149,474814.2244,475581.014,476347.5303,477114.3082,477880.7605,478647.3788,479414.4517,479424.1069
Blocked,Male,ball,4,M_ball.wav,None,719.5577077,3411,473297.9443,480181.2932,480930.7125,467114.4334,467881.2332,468647.5337,469414.4807,470181.5613,474047.2149,474814.2244,475581.014,476347.5303,477114.3082,477880.7605,478647.3788,479414.4517,480191.0913
Blocked,Male,ball,4,M_dime.wav,space,457.5462146,3411,473297.9443,480181.2932,480930.7125,481697.3469,467881.2332,468647.5337,469414.4807,470181.5613,474047.2149,474814.2244,475581.014,476347.5303,477114.3082,477880.7605,478647.3788,479414.4517,480940.0542
Blocked,Male,ball,4,M_ball.wav,None,732.5093225,3411,473297.9443,480181.2932,480930.7125,481697.3469,482464.293,468647.5337,469414.4807,470181.5613,474047.2149,474814.2244,475581.014,476347.5303,477114.3082,477880.7605,478647.3788,479414.4517,481706.603
Blocked,Male,ball,4,M_greet.wav,space,435.2021986,3411,473297.9443,480181.2932,480930.7125,481697.3469,482464.293,483230.9126,469414.4807,470181.5613,474047.2149,474814.2244,475581.014,476347.5303,477114.3082,477880.7605,478647.3788,479414.4517,482474.3712
Blocked,Male,ball,4,M_greet.wav,None,726.9859258,3411,473297.9443,480181.2932,480930.7125,481697.3469,482464.293,483230.9126,483997.3587,470181.5613,474047.2149,474814.2244,475581.014,476347.5303,477114.3082,477880.7605,478647.3788,479414.4517,483240.2843
Blocked,Male,ball,4,M_jolt.wav,None,726.0213024,3411,473297.9443,480181.2932,480930.7125,481697.3469,482464.293,483230.9126,483997.3587,484764.1759,474047.2149,474814.2244,475581.014,476347.5303,477114.3082,477880.7605,478647.3788,479414.4517,484006.4203
Blocked,Male,ball,1,M_lash.wav,None,724.3032218,3411,487881.2462,480181.2932,480930.7125,481697.3469,482464.293,483230.9126,483997.3587,484764.1759,474047.2149,474814.2244,475581.014,476347.5303,477114.3082,477880.7605,478647.3788,479414.4517,484773.2931
Blocked,Male,ball,1,M_greet.wav,None,719.5762582,3411,487881.2462,480181.2932,480930.7125,481697.3469,482464.293,483230.9126,483997.3587,484764.1759,488630.4111,474814.2244,475581.014,476347.5303,477114.3082,477880.7605,478647.3788,479414.4517,487891.0758
Blocked,Male,ball,1,M_cling.wav,None,735.9281704,3411,487881.2462,480181.2932,480930.7125,481697.3469,482464.293,483230.9126,483997.3587,484764.1759,488630.4111,489397.2922,475581.014,476347.5303,477114.3082,477880.7605,478647.3788,479414.4517,488639.924
Blocked,Male,ball,1,M_jolt.wav,None,734.4221827,3411,487881.2462,480181.2932,480930.7125,481697.3469,482464.293,483230.9126,483997.3587,484764.1759,488630.4111,489397.2922,490164.1109,476347.5303,477114.3082,477880.7605,478647.3788,479414.4517,489406.6583
Blocked,Male,ball,1,M_jolt.wav,None,732.8908434,3411,487881.2462,480181.2932,480930.7125,481697.3469,482464.293,483230.9126,483997.3587,484764.1759,488630.4111,489397.2922,490164.1109,490930.3666,477114.3082,477880.7605,478647.3788,479414.4517,490173.6467
Blocked,Male,ball,1,M_greet.wav,None,732.4941731,3411,487881.2462,480181.2932,480930.7125,481697.3469,482464.293,483230.9126,483997.3587,484764.1759,488630.4111,489397.2922,490164.1109,490930.3666,491697.2891,477880.7605,478647.3788,479414.4517,490939.3224
Blocked,Male,ball,1,M_ball.wav,None,730.1886613,3411,487881.2462,480181.2932,480930.7125,481697.3469,482464.293,483230.9126,483997.3587,484764.1759,488630.4111,489397.2922,490164.1109,490930.3666,491697.2891,492464.1901,478647.3788,479414.4517,491706.7632
Blocked,Male,ball,1,M_jolt.wav,space,323.5476618,3411,487881.2462,480181.2932,480930.7125,481697.3469,482464.293,483230.9126,483997.3587,484764.1759,488630.4111,489397.2922,490164.1109,490930.3666,491697.2891,492464.1901,493230.3502,479414.4517,492473.8669
Blocked,Male,ball,1,M_depth.wav,None,728.3255779,3411,487881.2462,480181.2932,480930.7125,481697.3469,482464.293,483230.9126,483997.3587,484764.1759,488630.4111,489397.2922,490164.1109,490930.3666,491697.2891,492464.1901,493230.3502,493997.1488,493239.0847
Blocked,Male,ball,1,M_ball.wav,None,726.5512268,3411,487881.2462,494764.0318,480930.7125,481697.3469,482464.293,483230.9126,483997.3587,484764.1759,488630.4111,489397.2922,490164.1109,490930.3666,491697.2891,492464.1901,493230.3502,493997.1488,494006.2988
Blocked,Male,ball,1,M_depth.wav,space,471.7963608,3411,487881.2462,494764.0318,495530.5051,481697.3469,482464.293,483230.9126,483997.3587,484764.1759,488630.4111,489397.2922,490164.1109,490930.3666,491697.2891,492464.1901,493230.3502,493997.1488,494773.5862
Blocked,Male,ball,1,M_ball.wav,None,721.7874723,3411,487881.2462,494764.0318,495530.5051,496297.5492,482464.293,483230.9126,483997.3587,484764.1759,488630.4111,489397.2922,490164.1109,490930.3666,491697.2891,492464.1901,493230.3502,493997.1488,495539.8515
Blocked,Male,ball,1,M_depth.wav,space,377.9527294,3411,487881.2462,494764.0318,495530.5051,496297.5492,497047.227,483230.9126,483997.3587,484764.1759,488630.4111,489397.2922,490164.1109,490930.3666,491697.2891,492464.1901,493230.3502,493997.1488,496307.4085
Blocked,Male,ball,1,M_ball.wav,None,732.8531239,3411,487881.2462,494764.0318,495530.5051,496297.5492,497047.227,497814.1025,483997.3587,484764.1759,488630.4111,489397.2922,490164.1109,490930.3666,491697.2891,492464.1901,493230.3502,493997.1488,497056.8748
Blocked,Male,ball,1,M_reek.wav,space,341.9070416,3411,487881.2462,494764.0318,495530.5051,496297.5492,497047.227,497814.1025,498580.7357,484764.1759,488630.4111,489397.2922,490164.1109,490930.3666,491697.2891,492464.1901,493230.3502,493997.1488,497823.426
Blocked,Male,ball,1,M_jolt.wav,None,727.2725306,3411,487881.2462,494764.0318,495530.5051,496297.5492,497047.227,497814.1025,498580.7357,499347.1905,488630.4111,489397.2922,490164.1109,490930.3666,491697.2891,492464.1901,493230.3502,493997.1488,498590.6203
Blocked,Female,done,24,F_dime.wav,None,726.7497168,3411,506380.1819,494764.0318,495530.5051,496297.5492,497047.227,497814.1025,498580.7357,499347.1905,488630.4111,489397.2922,490164.1109,490930.3666,491697.2891,492464.1901,493230.3502,493997.1488,499356.6531
Blocked,Female,done,24,F_park.wav,None,725.5593967,3411,506380.1819,494764.0318,495530.5051,496297.5492,497047.227,497814.1025,498580.7357,499347.1905,507147.1437,489397.2922,490164.1109,490930.3666,491697.2891,492464.1901,493230.3502,493997.1488,506388.9686
Blocked,Female,done,24,F_dime.wav,None,726.8950292,3411,506380.1819,494764.0318,495530.5051,496297.5492,497047.227,497814.1025,498580.7357,499347.1905,507147.1437,507913.9695,490164.1109,490930.3666,491697.2891,492464.1901,493230.3502,493997.1488,507156.6035
Blocked,Female,done,24,F_done.wav,None,725.0390565,3411,506380.1819,494764.0318,495530.5051,496297.5492,497047.227,497814.1025,498580.7357,499347.1905,507147.1437,507913.9695,508680.594,490930.3666,491697.2891,492464.1901,493230.3502,493997.1488,507923.7079
Blocked,Female,done,24,F_jaw.wav,space,555.115704,3411,506380.1819,494764.0318,495530.5051,496297.5492,497047.227,497814.1025,498580.7357,499347.1905,507147.1437,507913.9695,508680.594,509447.1252,491697.2891,492464.1901,493230.3502,493997.1488,508690.0742
Blocked,Female,done,24,F_done.wav,None,728.5528206,3411,506380.1819,494764.0318,495530.5051,496297.5492,497047.227,497814.1025,498580.7357,499347.1905,507147.1437,507913.9695,508680.594,509447.1252,510213.9439,492464.1901,493230.3502,493997.1488,509456.5454
Blocked,Female,done,24,F_jaw.wav,None,727.4382482,3411,506380.1819,494764.0318,495530.5051,496297.5492,497047.227,497814.1025,498580.7357,499347.1905,507147.1437,507913.9695,508680.594,509447.1252,510213.9439,510980.471,493230.3502,493997.1488,510222.9446
