"Condition","Talker","Target","Trial","current_stimulus","response_response","response_time_response","subject_nr","time_Audio1","time_Audio10","time_Audio11","time_Audio12","time_Audio13","time_Audio14","time_Audio15","time_Audio16","time_Audio2","time_Audio3","time_Audio4","time_Audio5","time_Audio6","time_Audio7","time_Audio8","time_Audio9","time_response"
"Blocked","Male","cave","10","M_ball.wav","NA","NA","125","219298.284851","NA","NA","NA","NA","NA","NA","NA","NA","NA","NA","NA","NA","NA","NA","NA","NA"
"Blocked","Male","cave","10","M_cave.wav","None","716.876510298","125","219298.284851","NA","NA","NA","NA","NA","NA","NA","220048.149744","NA","NA","NA","NA","NA","NA","NA","219312.434611"
"Blocked","Male","cave","10","M_tile.wav","space","510.501250275","125","219298.284851","NA","NA","NA","NA","NA","NA","NA","220048.149744","220814.793265","NA","NA","NA","NA","NA","NA","220057.831696"
"Blocked","Male","cave","10","M_jaw.wav","None","733.284134185","125","219298.284851","NA","NA","NA","NA","NA","NA","NA","220048.149744","220814.793265","221581.737607","NA","NA","NA","NA","NA","220824.25787"
"Blocked","Male","cave","10","M_cave.wav","None","730.3417683","125","219298.284851","NA","NA","NA","NA","NA","NA","NA","220048.149744","220814.793265","221581.737607","222348.116787","NA","NA","NA","NA","221591.023203"
"Blocked","Male","cave","10","M_reek.wav","space","506.884276634","125","219298.284851","NA","NA","NA","NA","NA","NA","NA","220048.149744","220814.793265","221581.737607","222348.116787","223115.076278","NA","NA","NA","222357.368683"
"Blocked","Male","cave","10","M_cave.wav","None","724.832368316","125","219298.284851","NA","NA","NA","NA","NA","NA","NA","220048.149744","220814.793265","221581.737607","222348.116787","223115.076278","223882.031751","NA","NA","223124.866748"
"Blocked","Male","cave","10","M_bluff.wav","space","540.657640551","125","219298.284851","NA","NA","NA","NA","NA","NA","NA","220048.149744","220814.793265","221581.737607","222348.116787","223115.076278","223882.031751","224648.547584","NA","223891.543968"
"Blocked","Male","cave","10","M_knife.wav","None","719.239183411","125","219298.284851","NA","NA","NA","NA","NA","NA","NA","220048.149744","220814.793265","221581.737607","222348.116787","223115.076278","223882.031751","224648.547584","225398.361464","224658.689888"
"Blocked","Male","cave","10","M_priest.wav","None","734.287079889","125","219298.284851","226164.63429","NA","NA","NA","NA","NA","NA","220048.149744","220814.793265","221581.737607","222348.116787","223115.076278","223882.031751","224648.547584","225398.361464","225407.697454"
"Blocked","Male","cave","10","M_jolt.wav","None","732.696712133","125","219298.284851","226164.63429","226931.360049","NA","NA","NA","NA","NA","220048.149744","220814.793265","221581.737607","222348.116787","223115.076278","223882.031751","224648.547584","225398.361464","226173.646271"
"Blocked","Male","cave","10","M_priest.wav","None","730.625276745","125","219298.284851","226164.63429","226931.360049","227698.549872","NA","NA","NA","NA","220048.149744","220814.793265","221581.737607","222348.116787","223115.076278","223882.031751","224648.547584","225398.361464","226940.277424"
"Blocked","Male","cave","10","M_done.wav","None","727.332621813","125","219298.284851","226164.63429","226931.360049","227698.549872","228464.663475","NA","NA","NA","220048.149744","220814.793265","221581.737607","222348.116787","223115.076278","223882.031751","224648.547584","225398.361464","227707.634198"
"Blocked","Male","cave","10","M_cave.wav","None","725.582413434","125","219298.284851","226164.63429","226931.360049","227698.549872","228464.663475","229232.154738","NA","NA","220048.149744","220814.793265","221581.737607","222348.116787","223115.076278","223882.031751","224648.547584","225398.361464","228473.564155"
"Blocked","Male","cave","10","M_dime.wav","space","478.458307858","125","219298.284851","226164.63429","226931.360049","227698.549872","228464.663475","229232.154738","229998.586168","NA","220048.149744","220814.793265","221581.737607","222348.116787","223115.076278","223882.031751","224648.547584","225398.361464","229241.584098"
"Blocked","Male","cave","10","M_priest.wav","None","719.598747499","125","219298.284851","226164.63429","226931.360049","227698.549872","228464.663475","229232.154738","229998.586168","230748.34718","220048.149744","220814.793265","221581.737607","222348.116787","223115.076278","223882.031751","224648.547584","225398.361464","230007.944419"
"Blocked","Male","done","23","M_jolt.wav","None","734.277186508","125","233898.529961","226164.63429","226931.360049","227698.549872","228464.663475","229232.154738","229998.586168","230748.34718","220048.149744","220814.793265","221581.737607","222348.116787","223115.076278","223882.031751","224648.547584","225398.361464","230757.315259"
"Blocked","Male","done","23","M_done.wav","None","721.105639474","125","233898.529961","226164.63429","226931.360049","227698.549872","228464.663475","229232.154738","229998.586168","230748.34718","234665.298076","220814.793265","221581.737607","222348.116787","223115.076278","223882.031751","224648.547584","225398.361464","233908.044342"
"Blocked","Male","done","23","M_cad.wav","None","718.890440243","125","233898.529961","226164.63429","226931.360049","227698.549872","228464.663475","229232.154738","229998.586168","230748.34718","234665.298076","235414.927073","221581.737607","222348.116787","223115.076278","223882.031751","224648.547584","225398.361464","234675.040007"
"Blocked","Male","done","23","M_jaw.wav","None","734.490513452","125","233898.529961","226164.63429","226931.360049","227698.549872","228464.663475","229232.154738","229998.586168","230748.34718","234665.298076","235414.927073","236181.983335","222348.116787","223115.076278","223882.031751","224648.547584","225398.361464","235423.867018"
"Blocked","Male","done","23","M_done.wav","None","731.072644936","125","233898.529961","226164.63429","226931.360049","227698.549872","228464.663475","229232.154738","229998.586168","230748.34718","234665.298076","235414.927073","236181.983335","236947.96956","223115.076278","223882.031751","224648.547584","225398.361464","236191.313451"
"Blocked","Male","done","23","M_cave.wav","space","538.023825793","125","233898.529961","226164.63429","226931.360049","227698.549872","228464.663475","229232.154738","229998.586168","230748.34718","234665.298076","235414.927073","236181.983335","236947.96956","237714.915448","223882.031751","224648.547584","225398.361464","236957.831757"
"Blocked","Male","done","23","M_done.wav","None","726.360283792","125","233898.529961","226164.63429","226931.360049","227698.549872","228464.663475","229232.154738","229998.586168","230748.34718","234665.298076","235414.927073","236181.983335","236947.96956","237714.915448","238481.904311","224648.547584","225398.361464","237724.439723"
"Blocked","Male","done","23","M_reek.wav","space","468.607550138","125","233898.529961","226164.63429","226931.360049","227698.549872","228464.663475","229232.154738","229998.586168","230748.34718","234665.298076","235414.927073","236181.983335","236947.96956","237714.915448","238481.904311","239248.038629","225398.361464","238491.166719"
"Blocked","Male","done","23","M_ball.wav","None","722.014597734","125","233898.529961","226164.63429","226931.360049","227698.549872","228464.663475","229232.154738","229998.586168","230748.34718","234665.298076","235414.927073","236181.983335","236947.96956","237714.915448","238481.904311","239248.038629","240015.040786","239257.400281"
"Blocked","Male","done","23","M_greet.wav","None","718.79521606","125","233898.529961","240764.217158","226931.360049","227698.549872","228464.663475","229232.154738","229998.586168","230748.34718","234665.298076","235414.927073","236181.983335","236947.96956","237714.915448","238481.904311","239248.038629","240015.040786","240024.855989"
"Blocked","Male","done","23","M_park.wav","None","734.929224942","125","233898.529961","240764.217158","241531.010935","227698.549872","228464.663475","229232.154738","229998.586168","230748.34718","234665.298076","235414.927073","236181.983335","236947.96956","237714.915448","238481.904311","239248.038629","240015.040786","240772.795684"
"Blocked","Male","done","23","M_cling.wav","None","732.167104841","125","233898.529961","240764.217158","241531.010935","242297.659711","228464.663475","229232.154738","229998.586168","230748.34718","234665.298076","235414.927073","236181.983335","236947.96956","237714.915448","238481.904311","239248.038629","240015.040786","241539.892755"
"Blocked","Male","done","23","M_done.wav","None","729.656957905","125","233898.529961","240764.217158","241531.010935","242297.659711","243064.30354","229232.154738","229998.586168","230748.34718","234665.298076","235414.927073","236181.983335","236947.96956","237714.915448","238481.904311","239248.038629","240015.040786","242306.511542"
"Blocked","Male","done","23","M_priest.wav","space","382.043498917","125","233898.529961","240764.217158","241531.010935","242297.659711","243064.30354","243831.810571","229998.586168","230748.34718","234665.298076","235414.927073","236181.983335","236947.96956","237714.915448","238481.904311","239248.038629","240015.040786","243073.60614"
"Blocked","Male","done","23","M_bluff.wav","None","723.041040415","125","233898.529961","240764.217158","241531.010935","242297.659711","243064.30354","243831.810571","244598.694934","230748.34718","234665.298076","235414.927073","236181.983335","236947.96956","237714.915448","238481.904311","239248.038629","240015.040786","243841.219834"
"Blocked","Male","done","23","M_cave.wav","None","720.599529101","125","233898.529961","240764.217158","241531.010935","242297.659711","243064.30354","243831.810571","244598.694934","245348.220977","234665.298076","235414.927073","236181.983335","236947.96956","237714.915448","238481.904311","239248.038629","240015.040786","244607.864282"
"Blocked","Male","ball","6","M_lash.wav","None","734.943137562","125","248481.516303","240764.217158","241531.010935","242297.659711","243064.30354","243831.810571","244598.694934","245348.220977","234665.298076","235414.927073","236181.983335","236947.96956","237714.915448","238481.904311","239248.038629","240015.040786","245357.843259"
"Blocked","Male","ball","6","M_ball.wav","None","721.114605432","125","248481.516303","240764.217158","241531.010935","242297.659711","243064.30354","243831.810571","244598.694934","245348.220977","249231.466527","235414.927073","236181.983335","236947.96956","237714.915448","238481.904311","239248.038629","240015.040786","248490.956175"
"Blocked","Male","ball","6","M_cad.wav","space","374.650947691","125","248481.516303","240764.217158","241531.010935","242297.659711","243064.30354","243831.810571","244598.694934","245348.220977","249231.466527","249997.809844","236181.983335","236947.96956","237714.915448","238481.904311","239248.038629","240015.040786","249240.835289"
"Blocked","Male","ball","6","M_done.wav","None","733.863826899","125","248481.516303","240764.217158","241531.010935","242297.659711","243064.30354","243831.810571","244598.694934","245348.220977","249231.466527","249997.809844","250764.154088","236947.96956","237714.915448","238481.904311","239248.038629","240015.040786","250006.704649"
"Blocked","Male","ball","6","M_cling.wav","None","732.211316121","125","248481.516303","240764.217158","241531.010935","242297.659711","243064.30354","243831.810571","244598.694934","245348.220977","249231.466527","249997.809844","250764.154088","251531.060402","237714.915448","238481.904311","239248.038629","240015.040786","250773.424225"
"Blocked","Male","ball","6","M_priest.wav","None","729.360155179","125","248481.516303","240764.217158","241531.010935","242297.659711","243064.30354","243831.810571","244598.694934","245348.220977","249231.466527","249997.809844","250764.154088","251531.060402","252297.888805","238481.904311","239248.038629","240015.040786","251540.520988"
"Blocked","Male","ball","6","M_done.wav","None","727.525543538","125","248481.516303","240764.217158","241531.010935","242297.659711","243064.30354","243831.810571","244598.694934","245348.220977","249231.466527","249997.809844","250764.154088","251531.060402","252297.888805","253064.361664","239248.038629","240015.040786","252306.883473"
"Blocked","Male","ball","6","M_ball.wav","None","725.335387047","125","248481.516303","240764.217158","241531.010935","242297.659711","243064.30354","243831.810571","244598.694934","245348.220977","249231.466527","249997.809844","250764.154088","251531.060402","252297.888805","253064.361664","253831.35671","240015.040786","253073.626236"
"Blocked","Male","ball","6","M_reek.wav","space","414.090460516","125","248481.516303","240764.217158","241531.010935","242297.659711","243064.30354","243831.810571","244598.694934","245348.220977","249231.466527","249997.809844","250764.154088","251531.060402","252297.888805","253064.361664","253831.35671","254598.224996","253841.234984"
"Blocked","Male","ball","6","M_ball.wav","None","719.988610246","125","248481.516303","255347.326859","241531.010935","242297.659711","243064.30354","243831.810571","244598.694934","245348.220977","249231.466527","249997.809844","250764.154088","251531.060402","252297.888805","253064.361664","253831.35671","254598.224996","254607.539654"
"Blocked","Male","ball","6","M_greet.wav","space","626.433927973","125","248481.516303","255347.326859","256114.295625","242297.659711","243064.30354","243831.810571","244598.694934","245348.220977","249231.466527","249997.809844","250764.154088","251531.060402","252297.888805","253064.361664","253831.35671","254598.224996","255356.823308"
"Blocked","Male","ball","6","M_cad.wav","None","732.192765921","125","248481.516303","255347.326859","256114.295625","256880.875457","243064.30354","243831.810571","244598.694934","245348.220977","249231.466527","249997.809844","250764.154088","251531.060402","252297.888805","253064.361664","253831.35671","254598.224996","256123.859783"
"Blocked","Male","ball","6","M_jolt.wav","None","730.121330475","125","248481.516303","255347.326859","256114.295625","256880.875457","257647.649756","243831.810571","244598.694934","245348.220977","249231.466527","249997.809844","250764.154088","251531.060402","252297.888805","253064.361664","253831.35671","254598.224996","256890.298942"
"Blocked","Male","ball","6","M_romp.wav","None","728.136771591","125","248481.516303","255347.326859","256114.295625","256880.875457","257647.649756","258414.278436","244598.694934","245348.220977","249231.466527","249997.809844","250764.154088","251531.060402","252297.888805","253064.361664","253831.35671","254598.224996","257656.636694"
"Blocked","Male","ball","6","M_ball.wav","None","725.630334695","125","248481.516303","255347.326859","256114.295625","256880.875457","257647.649756","258414.278436","259181.021199","245348.220977","249231.466527","249997.809844","250764.154088","251531.060402","252297.888805","253064.361664","253831.35671","254598.224996","258423.582891"
"Blocked","Male","ball","6","M_knife.wav","space","520.10127157","125","248481.516303","255347.326859","256114.295625","256880.875457","257647.649756","258414.278436","259181.021199","259947.715114","249231.466527","249997.809844","250764.154088","251531.060402","252297.888805","253064.361664","253831.35671","254598.224996","259191.036435"
"Blocked","Male","ball","5","M_jolt.wav","None","720.420829137","125","263064.554586","255347.326859","256114.295625","256880.875457","257647.649756","258414.278436","259181.021199","259947.715114","249231.466527","249997.809844","250764.154088","251531.060402","252297.888805","253064.361664","253831.35671","254598.224996","259957.356255"
"Blocked","Male","ball","5","M_jaw.wav","space","0.0352452625521","125","263064.554586","255347.326859","256114.295625","256880.875457","257647.649756","258414.278436","259181.021199","259947.715114","263813.87936","249997.809844","250764.154088","251531.060402","252297.888805","253064.361664","253831.35671","254598.224996","263074.221697"
"Blocked","Male","ball","5","M_ball.wav","None","734.955813503","125","263064.554586","255347.326859","256114.295625","256880.875457","257647.649756","258414.278436","259181.021199","259947.715114","263813.87936","264580.576366","250764.154088","251531.060402","252297.888805","253064.361664","253831.35671","254598.224996","263823.507825"
"Blocked","Male","ball","5","M_cave.wav","space","592.565649014","125","263064.554586","255347.326859","256114.295625","256880.875457","257647.649756","258414.278436","259181.021199","259947.715114","263813.87936","264580.576366","265347.352211","251531.060402","252297.888805","253064.361664","253831.35671","254598.224996","264590.432689"
"Blocked","Male","ball","5","M_cave.wav","None","730.35629926","125","263064.554586","255347.326859","256114.295625","256880.875457","257647.649756","258414.278436","259181.021199","259947.715114","263813.87936","264580.576366","265347.352211","266114.050145","252297.888805","253064.361664","253831.35671","254598.224996","265356.769204"
"Blocked","Male","ball","5","M_ball.wav","None","728.118530649","125","263064.554586","255347.326859","256114.295625","256880.875457","257647.649756","258414.278436","259181.021199","259947.715114","263813.87936","264580.576366","265347.352211","266114.050145","266880.694593","253064.361664","253831.35671","254598.224996","266123.472394"
"Blocked","Male","ball","5","M_cave.wav","space","364.345092501","125","263064.554586","255347.326859","256114.295625","256880.875457","257647.649756","258414.278436","259181.021199","259947.715114","263813.87936","264580.576366","265347.352211","266114.050145","266880.694593","267647.409222","253831.35671","254598.224996","266890.589871"
"Blocked","Male","ball","5","M_depth.wav","None","723.230252101","125","263064.554586","255347.326859","256114.295625","256880.875457","257647.649756","258414.278436","259181.021199","259947.715114","263813.87936","264580.576366","265347.352211","266114.050145","266880.694593","267647.409222","268414.109011","254598.224996","267656.906908"
"Blocked","Male","ball","5","M_ball.wav","None","720.773591485","125","263064.554586","255347.326859","256114.295625","256880.875457","257647.649756","258414.278436","259181.021199","259947.715114","263813.87936","264580.576366","265347.352211","266114.050145","266880.694593","267647.409222","268414.109011","269163.845289","268424.00027"
"Blocked","Male","ball","5","M_lash.wav","space","441.889742797","125","263064.554586","269930.464694","256114.295625","256880.875457","257647.649756","258414.278436","259181.021199","259947.715114","263813.87936","264580.576366","265347.352211","266114.050145","266880.694593","267647.409222","268414.109011","269163.845289","269172.925906"
"Blocked","Male","ball","5","M_tile.wav","None","733.321543667","125","263064.554586","269930.464694","270696.915911","256880.875457","257647.649756","258414.278436","259181.021199","259947.715114","263813.87936","264580.576366","265347.352211","266114.050145","266880.694593","267647.409222","268414.109011","269163.845289","269940.137679"
"Blocked","Male","ball","5","M_jaw.wav","None","731.616474048","125","263064.554586","269930.464694","270696.915911","271463.805839","257647.649756","258414.278436","259181.021199","259947.715114","263813.87936","264580.576366","265347.352211","266114.050145","266880.694593","267647.409222","268414.109011","269163.845289","270706.370932"
"Blocked","Male","ball","5","M_lash.wav","None","729.382106278","125","263064.554586","269930.464694","270696.915911","271463.805839","272229.855754","258414.278436","259181.021199","259947.715114","263813.87936","264580.576366","265347.352211","266114.050145","266880.694593","267647.409222","268414.109011","269163.845289","271473.216649"
"Blocked","Male","ball","5","M_greet.wav","None","730.575500464","125","263064.554586","269930.464694","270696.915911","271463.805839","272229.855754","272996.994254","259181.021199","259947.715114","263813.87936","264580.576366","265347.352211","266114.050145","266880.694593","267647.409222","268414.109011","269163.845289","272238.559493"
"Blocked","Male","ball","5","M_ball.wav","None","727.500191715","125","263064.554586","269930.464694","270696.915911","271463.805839","272229.855754","272996.994254","273763.777519","259947.715114","263813.87936","264580.576366","265347.352211","266114.050145","266880.694593","267647.409222","268414.109011","269163.845289","273006.104242"
"Blocked","Male","ball","5","M_dime.wav","space","496.727441147","125","263064.554586","269930.464694","270696.915911","271463.805839","272229.855754","272996.994254","273763.777519","274530.873045","263813.87936","264580.576366","265347.352211","266114.050145","266880.694593","267647.409222","268414.109011","269163.845289","273772.99417"
"Blocked","Male","tile","16","M_cad.wav","None","721.719959285","125","277647.427153","269930.464694","270696.915911","271463.805839","272229.855754","272996.994254","273763.777519","274530.873045","263813.87936","264580.576366","265347.352211","266114.050145","266880.694593","267647.409222","268414.109011","269163.845289","274540.582512"
"Blocked","Male","tile","16","M_tile.wav","None","721.229307295","125","277647.427153","269930.464694","270696.915911","271463.805839","272229.855754","272996.994254","273763.777519","274530.873045","278414.154149","264580.576366","265347.352211","266114.050145","266880.694593","267647.409222","268414.109011","269163.845289","277656.978017"
"Blocked","Male","tile","16","M_lash.wav","space","374.819135875","125","277647.427153","269930.464694","270696.915911","271463.805839","272229.855754","272996.994254","273763.777519","274530.873045","278414.154149","279163.646184","265347.352211","266114.050145","266880.694593","267647.409222","268414.109011","269163.845289","278423.776431"
"Blocked","Male","tile","16","M_done.wav","None","733.891033859","125","277647.427153","269930.464694","270696.915911","271463.805839","272229.855754","272996.994254","273763.777519","274530.873045","278414.154149","279163.646184","279930.25044","266114.050145","266880.694593","267647.409222","268414.109011","269163.845289","279173.144179"
"Blocked","Male","tile","16","M_tile.wav","None","732.032306958","125","277647.427153","269930.464694","270696.915911","271463.805839","272229.855754","272996.994254","273763.777519","274530.873045","278414.154149","279163.646184","279930.25044","280696.609833","266880.694593","267647.409222","268414.109011","269163.845289","279939.648573"
"Blocked","Male","tile","16","M_lash.wav","space","404.494767601","125","277647.427153","269930.464694","270696.915911","271463.805839","272229.855754","272996.994254","273763.777519","274530.873045","278414.154149","279163.646184","279930.25044","280696.609833","281463.144216","267647.409222","268414.109011","269163.845289","280706.011058"
"Blocked","Male","tile","16","M_cave.wav","None","728.430791816","125","277647.427153","269930.464694","270696.915911","271463.805839","272229.855754","272996.994254","273763.777519","274530.873045","278414.154149","279163.646184","279930.25044","280696.609833","281463.144216","282229.733632","268414.109011","269163.845289","281472.142285"
"Blocked","Male","tile","16","M_jolt.wav","None","726.194878167","125","277647.427153","269930.464694","270696.915911","271463.805839","272229.855754","272996.994254","273763.777519","274530.873045","278414.154149","279163.646184","279930.25044","280696.609833","281463.144216","282229.733632","282996.935512","269163.845289","282239.089719"
"Blocked","Male","tile","16","M_tile.wav","None","723.813345714","125","277647.427153","269930.464694","270696.915911","271463.805839","272229.855754","272996.994254","273763.777519","274530.873045","278414.154149","279163.646184","279930.25044","280696.609833","281463.144216","282229.733632","282996.935512","283763.954982","283006.179989"
"Blocked","Male","tile","16","M_depth.wav","space","432.932793978","125","277647.427153","284513.494011","270696.915911","271463.805839","272229.855754","272996.994254","273763.777519","274530.873045","278414.154149","279163.646184","279930.25044","280696.609833","281463.144216","282229.733632","282996.935512","283763.954982","283773.481421"
"Blocked","Male","tile","16","M_done.wav","None","736.414475075","125","277647.427153","284513.494011","285279.738702","271463.805839","272229.855754","272996.994254","273763.777519","274530.873045","278414.154149","279163.646184","279930.25044","280696.609833","281463.144216","282229.733632","282996.935512","283763.954982","284522.440757"
"Blocked","Male","tile","16","M_romp.wav","None","735.177178809","125","277647.427153","284513.494011","285279.738702","286046.806403","272229.855754","272996.994254","273763.777519","274530.873045","278414.154149","279163.646184","279930.25044","280696.609833","281463.144216","282229.733632","282996.935512","283763.954982","285288.83756"
"Blocked","Male","tile","16","M_depth.wav","None","732.342094765","125","277647.427153","284513.494011","285279.738702","286046.806403","286813.45858","272996.994254","273763.777519","274530.873045","278414.154149","279163.646184","279930.25044","280696.609833","281463.144216","282229.733632","282996.935512","283763.954982","286056.170219"
"Blocked","Male","tile","16","M_cave.wav","None","730.36371934","125","277647.427153","284513.494011","285279.738702","286046.806403","286813.45858","287579.951225","273763.777519","274530.873045","278414.154149","279163.646184","279930.25044","280696.609833","281463.144216","282229.733632","282996.935512","283763.954982","286822.881756"
"Blocked","Male","tile","16","M_tile.wav","None","728.227667452","125","277647.427153","284513.494011","285279.738702","286046.806403","286813.45858","287579.951225","288346.639884","274530.873045","278414.154149","279163.646184","279930.25044","280696.609833","281463.144216","282229.733632","282996.935512","283763.954982","287589.759627"
"Blocked","Male","tile","16","M_park.wav","space","498.337595724","125","277647.427153","284513.494011","285279.738702","286046.806403","286813.45858","287579.951225","288346.639884","289112.868499","278414.154149","279163.646184","279930.25044","280696.609833","281463.144216","282229.733632","282996.935512","283763.954982","288355.945885"
"Blocked","Male","cave","11","M_cling.wav","None","725.117113383","125","292230.291683","284513.494011","285279.738702","286046.806403","286813.45858","287579.951225","288346.639884","289112.868499","278414.154149","279163.646184","279930.25044","280696.609833","281463.144216","282229.733632","282996.935512","283763.954982","289121.886663"
"Blocked","Male","cave","11","M_cave.wav","None","720.920756168","125","292230.291683","284513.494011","285279.738702","286046.806403","286813.45858","287579.951225","288346.639884","289112.868499","292979.756201","279163.646184","279930.25044","280696.609833","281463.144216","282229.733632","282996.935512","283763.954982","292239.764326"
"Blocked","Male","cave","11","M_done.wav","space","417.371366988","125","292230.291683","284513.494011","285279.738702","286046.806403","286813.45858","287579.951225","288346.639884","289112.868499","292979.756201","293745.96843","279930.25044","280696.609833","281463.144216","282229.733632","282996.935512","283763.954982","292988.769728"
"Blocked","Male","cave","11","M_gnash.wav","None","734.435172111","125","292230.291683","284513.494011","285279.738702","286046.806403","286813.45858","287579.951225","288346.639884","289112.868499","292979.756201","293745.96843","294512.730362","280696.609833","281463.144216","282229.733632","282996.935512","283763.954982","293755.180134"
"Blocked","Male","cave","11","M_cave.wav","None","732.677543652","125","292230.291683","284513.494011","285279.738702","286046.806403","286813.45858","287579.951225","288346.639884","289112.868499","292979.756201","293745.96843","294512.730362","295279.280204","281463.144216","282229.733632","282996.935512","283763.954982","294521.551586"
"Blocked","Male","cave","11","M_depth.wav","space","613.874536532","125","292230.291683","284513.494011","285279.738702","286046.806403","286813.45858","287579.951225","288346.639884","289112.868499","292979.756201","293745.96843","294512.730362","295279.280204","296046.075526","282229.733632","282996.935512","283763.954982","295288.178411"
"Blocked","Male","cave","11","M_depth.wav","None","727.952197427","125","292230.291683","284513.494011","285279.738702","286046.806403","286813.45858","287579.951225","288346.639884","289112.868499","292979.756201","293745.96843","294512.730362","295279.280204","296046.075526","296813.118184","282996.935512","283763.954982","296055.214576"
"Blocked","Male","cave","11","M_knife.wav","None","725.40556849","125","292230.291683","284513.494011","285279.738702","286046.806403","286813.45858","287579.951225","288346.639884","289112.868499","292979.756201","293745.96843","294512.730362","295279.280204","296046.075526","296813.118184","297580.030682","283763.954982","296822.537032"
"Blocked","Male","cave","11","M_cave.wav","None","722.800197371","125","292230.291683","284513.494011","285279.738702","286046.806403","286813.45858","287579.951225","288346.639884","289112.868499","292979.756201","293745.96843","294512.730362","295279.280204","296046.075526","296813.118184","297580.030682","298346.334116","297589.901227"
"Blocked","Male","cave","11","M_jolt.wav","space","458.52893457","125","292230.291683","299096.361632","285279.738702","286046.806403","286813.45858","287579.951225","288346.639884","289112.868499","292979.756201","293745.96843","294512.730362","295279.280204","296046.075526","296813.118184","297580.030682","298346.334116","298355.481204"
"Blocked","Male","cave","11","M_cad.wav","None","735.446465435","125","292230.291683","299096.361632","299862.920749","286046.806403","286813.45858","287579.951225","288346.639884","289112.868499","292979.756201","293745.96843","294512.730362","295279.280204","296046.075526","296813.118184","297580.030682","298346.334116","299106.040182"
"Blocked","Male","cave","11","M_lash.wav","None","734.312431829","125","292230.291683","299096.361632","299862.920749","300629.577254","286813.45858","287579.951225","288346.639884","289112.868499","292979.756201","293745.96843","294512.730362","295279.280204","296046.075526","296813.118184","297580.030682","298346.334116","299871.826685"
"Blocked","Male","cave","11","M_jolt.wav","None","731.783116353","125","292230.291683","299096.361632","299862.920749","300629.577254","301395.740016","287579.951225","288346.639884","289112.868499","292979.756201","293745.96843","294512.730362","295279.280204","296046.075526","296813.118184","297580.030682","298346.334116","300638.952818"
"Blocked","Male","cave","11","M_dime.wav","None","730.743688589","125","292230.291683","299096.361632","299862.920749","300629.577254","301395.740016","302163.024753","288346.639884","289112.868499","292979.756201","293745.96843","294512.730362","295279.280204","296046.075526","296813.118184","297580.030682","298346.334116","301404.691399"
"Blocked","Male","cave","11","M_cave.wav","None","727.182983828","125","292230.291683","299096.361632","299862.920749","300629.577254","301395.740016","302163.024753","302929.604585","289112.868499","292979.756201","293745.96843","294512.730362","295279.280204","296046.075526","296813.118184","297580.030682","298346.334116","302172.873656"
"Blocked","Male","cave","11","M_bluff.wav","space","490.747794393","125","292230.291683","299096.361632","299862.920749","300629.577254","301395.740016","302163.024753","302929.604585","303696.339928","292979.756201","293745.96843","294512.730362","295279.280204","296046.075526","296813.118184","297580.030682","298346.334116","302939.06548"
"Blocked","Male","tile","18","M_done.wav","None","722.673437907","125","306813.033781","299096.361632","299862.920749","300629.577254","301395.740016","302163.024753","302929.604585","303696.339928","292979.756201","293745.96843","294512.730362","295279.280204","296046.075526","296813.118184","297580.030682","298346.334116","303705.745173"
"Blocked","Male","tile","18","M_greet.wav","None","720.519454218","125","306813.033781","299096.361632","299862.920749","300629.577254","301395.740016","302163.024753","302929.604585","303696.339928","307579.17892","293745.96843","294512.730362","295279.280204","296046.075526","296813.118184","297580.030682","298346.334116","306822.928441"
"Blocked","Male","tile","18","M_greet.wav","None","720.118461351","125","306813.033781","299096.361632","299862.920749","300629.577254","301395.740016","302163.024753","302929.604585","303696.339928","307579.17892","308329.209528","294512.730362","295279.280204","296046.075526","296813.118184","297580.030682","298346.334116","307588.329718"
"Blocked","Male","tile","18","M_greet.wav","None","735.27116637","125","306813.033781","299096.361632","299862.920749","300629.577254","301395.740016","302163.024753","302929.604585","303696.339928","307579.17892","308329.209528","309095.835425","295279.280204","296046.075526","296813.118184","297580.030682","298346.334116","308338.205123"
"Blocked","Male","tile","18","M_tile.wav","None","732.577681949","125","306813.033781","299096.361632","299862.920749","300629.577254","301395.740016","302163.024753","302929.604585","303696.339928","307579.17892","308329.209528","309095.835425","309862.748232","296046.075526","296813.118184","297580.030682","298346.334116","309105.803668"
"Blocked","Male","tile","18","M_cad.wav","space","557.52469023","125","306813.033781","299096.361632","299862.920749","300629.577254","301395.740016","302163.024753","302929.604585","303696.339928","307579.17892","308329.209528","309095.835425","309862.748232","310629.280451","296813.118184","297580.030682","298346.334116","309872.060726"
"Blocked","Male","tile","18","M_tile.wav","None","728.589086561","125","306813.033781","299096.361632","299862.920749","300629.577254","301395.740016","302163.024753","302929.604585","303696.339928","307579.17892","308329.209528","309095.835425","309862.748232","310629.280451","311395.759493","297580.030682","298346.334116","310638.548115"
"Blocked","Male","tile","18","M_jaw.wav","None","726.867940102","125","306813.033781","299096.361632","299862.920749","300629.577254","301395.740016","302163.024753","302929.604585","303696.339928","307579.17892","308329.209528","309095.835425","309862.748232","310629.280451","311395.759493","312162.199889","298346.334116","311405.130111"
"Blocked","Male","tile","18","M_bluff.wav","space","0.0231877202168","125","306813.033781","299096.361632","299862.920749","300629.577254","301395.740016","302163.024753","302929.604585","303696.339928","307579.17892","308329.209528","309095.835425","309862.748232","310629.280451","311395.759493","312162.199889","312929.68806","312171.264738"
"Blocked","Male","tile","18","M_bluff.wav","None","721.553007723","125","306813.033781","313696.036633","299862.920749","300629.577254","301395.740016","302163.024753","302929.604585","303696.339928","307579.17892","308329.209528","309095.835425","309862.748232","310629.280451","311395.759493","312162.199889","312929.68806","312939.441739"
"Blocked","Male","tile","18","M_tile.wav","None","720.495029818","125","306813.033781","313696.036633","314445.939863","300629.577254","301395.740016","302163.024753","302929.604585","303696.339928","307579.17892","308329.209528","309095.835425","309862.748232","310629.280451","311395.759493","312162.199889","312929.68806","313705.655823"
"Blocked","Male","tile","18","M_bluff.wav","space","574.228807644","125","306813.033781","313696.036633","314445.939863","315212.093659","301395.740016","302163.024753","302929.604585","303696.339928","307579.17892","308329.209528","309095.835425","309862.748232","310629.280451","311395.759493","312162.199889","312929.68806","314455.256376"
"Blocked","Male","tile","18","M_tile.wav","None","734.079936403","125","306813.033781","313696.036633","314445.939863","315212.093659","315979.066444","302163.024753","302929.604585","303696.339928","307579.17892","308329.209528","309095.835425","309862.748232","310629.280451","311395.759493","312162.199889","312929.68806","315221.182623"
"Blocked","Male","tile","18","M_lash.wav","space","416.809296876","125","306813.033781","313696.036633","314445.939863","315212.093659","315979.066444","316745.338343","302929.604585","303696.339928","307579.17892","308329.209528","309095.835425","309862.748232","310629.280451","311395.759493","312162.199889","312929.68806","315988.650698"
"Blocked","Male","tile","18","M_depth.wav","None","735.335473611","125","306813.033781","313696.036633","314445.939863","315212.093659","315979.066444","316745.338343","317512.039059","303696.339928","307579.17892","308329.209528","309095.835425","309862.748232","310629.280451","311395.759493","312162.199889","312929.68806","316748.984997"
"Blocked","Male","tile","18","M_cave.wav","None","733.379667508","125","306813.033781","313696.036633","314445.939863","315212.093659","315979.066444","316745.338343","317512.039059","318279.081099","307579.17892","308329.209528","309095.835425","309862.748232","310629.280451","311395.759493","312162.199889","312929.68806","317515.786502"
"Blocked","Male","tile","14","M_knife.wav","None","725.506666931","125","321412.603974","313696.036633","314445.939863","315212.093659","315979.066444","316745.338343","317512.039059","318279.081099","307579.17892","308329.209528","309095.835425","309862.748232","310629.280451","311395.759493","312162.199889","312929.68806","318288.671536"
"Blocked","Male","tile","14","M_jolt.wav","None","720.651469543","125","321412.603974","313696.036633","314445.939863","315212.093659","315979.066444","316745.338343","317512.039059","318279.081099","322179.307782","308329.209528","309095.835425","309862.748232","310629.280451","311395.759493","312162.199889","312929.68806","321422.338175"
"Blocked","Male","tile","14","M_tile.wav","None","718.503050914","125","321412.603974","313696.036633","314445.939863","315212.093659","315979.066444","316745.338343","317512.039059","318279.081099","322179.307782","322928.752823","309095.835425","309862.748232","310629.280451","311395.759493","312162.199889","312929.68806","322189.41917"
"Blocked","Male","tile","14","M_knife.wav","space","491.479907709","125","321412.603974","313696.036633","314445.939863","315212.093659","315979.066444","316745.338343","317512.039059","318279.081099","322179.307782","322928.752823","323695.309466","309862.748232","310629.280451","311395.759493","312162.199889","312929.68806","322937.766659"
"Blocked","Male","tile","14","M_cad.wav","None","732.688673772","125","321412.603974","313696.036633","314445.939863","315212.093659","315979.066444","316745.338343","317512.039059","318279.081099","322179.307782","322928.752823","323695.309466","324461.829319","310629.280451","311395.759493","312162.199889","312929.68806","323704.606502"
"Blocked","Male","tile","14","M_tile.wav","None","731.413349684","125","321412.603974","313696.036633","314445.939863","315212.093659","315979.066444","316745.338343","317512.039059","318279.081099","322179.307782","322928.752823","323695.309466","324461.829319","325228.888672","311395.759493","312162.199889","312929.68806","324470.650542"
"Blocked","Male","tile","14","M_done.wav","space","518.870777043","125","321412.603974","313696.036633","314445.939863","315212.093659","315979.066444","316745.338343","317512.039059","318279.081099","322179.307782","322928.752823","323695.309466","324461.829319","325228.888672","325995.59619","312162.199889","312929.68806","325238.272893"
"Blocked","Male","tile","14","M_knife.wav","None","725.860356819","125","321412.603974","313696.036633","314445.939863","315212.093659","315979.066444","316745.338343","317512.039059","318279.081099","322179.307782","322928.752823","323695.309466","324461.829319","325228.888672","325995.59619","326762.536204","312929.68806","326005.247843"
"Blocked","Male","tile","14","M_ball.wav","None","723.743164272","125","321412.603974","313696.036633","314445.939863","315212.093659","315979.066444","316745.338343","317512.039059","318279.081099","322179.307782","322928.752823","323695.309466","324461.829319","325228.888672","325995.59619","326762.536204","327529.009681","326772.122312"
"Blocked","Male","tile","14","M_tile.wav","None","722.457946802","125","321412.603974","328295.589203","314445.939863","315212.093659","315979.066444","316745.338343","317512.039059","318279.081099","322179.307782","322928.752823","323695.309466","324461.829319","325228.888672","325995.59619","326762.536204","327529.009681","327538.397303"
"Blocked","Male","tile","14","M_park.wav","space","435.805287561","125","321412.603974","328295.589203","329045.220673","315212.093659","315979.066444","316745.338343","317512.039059","318279.081099","322179.307782","322928.752823","323695.309466","324461.829319","325228.888672","325995.59619","326762.536204","327529.009681","328305.290323"
"Blocked","Male","tile","14","M_park.wav","None","734.977764543","125","321412.603974","328295.589203","329045.220673","329811.642828","315979.066444","316745.338343","317512.039059","318279.081099","322179.307782","322928.752823","323695.309466","324461.829319","325228.888672","325995.59619","326762.536204","327529.009681","329055.208083"
"Blocked","Male","tile","14","M_gnash.wav","None","734.724863898","125","321412.603974","328295.589203","329045.220673","329811.642828","330578.635709","316745.338343","317512.039059","318279.081099","322179.307782","322928.752823","323695.309466","324461.829319","325228.888672","325995.59619","326762.536204","327529.009681","329820.402526"
"Blocked","Male","tile","14","M_priest.wav","None","731.938010314","125","321412.603974","328295.589203","329045.220673","329811.642828","330578.635709","331345.091255","317512.039059","318279.081099","322179.307782","322928.752823","323695.309466","324461.829319","325228.888672","325995.59619","326762.536204","327529.009681","330587.724364"
"Blocked","Male","tile","14","M_tile.wav","None","730.133078934","125","321412.603974","328295.589203","329045.220673","329811.642828","330578.635709","331345.091255","332112.068678","318279.081099","322179.307782","322928.752823","323695.309466","324461.829319","325228.888672","325995.59619","326762.536204","327529.009681","331354.536382"
"Blocked","Male","tile","14","M_greet.wav","space","544.983848988","125","321412.603974","328295.589203","329045.220673","329811.642828","330578.635709","331345.091255","332112.068678","332878.566579","322179.307782","322928.752823","323695.309466","324461.829319","325228.888672","325995.59619","326762.536204","327529.009681","332115.979362"
"Blocked","Male","done","24","M_romp.wav","None","725.692477776","125","336012.281139","328295.589203","329045.220673","329811.642828","330578.635709","331345.091255","332112.068678","332878.566579","322179.307782","322928.752823","323695.309466","324461.829319","325228.888672","325995.59619","326762.536204","327529.009681","332887.803326"
"Blocked","Male","done","24","M_bluff.wav","None","720.410008216","125","336012.281139","328295.589203","329045.220673","329811.642828","330578.635709","331345.091255","332112.068678","332878.566579","336762.013398","322928.752823","323695.309466","324461.829319","325228.888672","325995.59619","326762.536204","327529.009681","336021.894454"
"Blocked","Male","done","24","M_park.wav","None","735.363917192","125","336012.281139","328295.589203","329045.220673","329811.642828","330578.635709","331345.091255","332112.068678","332878.566579","336762.013398","337528.384231","323695.309466","324461.829319","325228.888672","325995.59619","326762.536204","327529.009681","336771.675872"
"Blocked","Male","done","24","M_jaw.wav","None","734.593776055","125","336012.281139","328295.589203","329045.220673","329811.642828","330578.635709","331345.091255","332112.068678","332878.566579","336762.013398","337528.384231","338295.063306","324461.829319","325228.888672","325995.59619","326762.536204","327529.009681","337537.387555"
"Blocked","Male","done","24","M_cad.wav","None","732.313651242","125","336012.281139","328295.589203","329045.220673","329811.642828","330578.635709","331345.091255","332112.068678","332878.566579","336762.013398","337528.384231","338295.063306","339061.838223","325228.888672","325995.59619","326762.536204","327529.009681","338304.322313"
"Blocked","Male","done","24","M_greet.wav","None","730.299102899","125","336012.281139","328295.589203","329045.220673","329811.642828","330578.635709","331345.091255","332112.068678","332878.566579","336762.013398","337528.384231","338295.063306","339061.838223","339828.399195","325995.59619","326762.536204","327529.009681","339071.250269"
"Blocked","Male","done","24","M_done.wav","None","728.504683299","125","336012.281139","328295.589203","329045.220673","329811.642828","330578.635709","331345.091255","332112.068678","332878.566579","336762.013398","337528.384231","338295.063306","339061.838223","339828.399195","340595.132065","326762.536204","327529.009681","339838.030442"
"Blocked","Male","done","24","M_cave.wav","space","576.536139473","125","336012.281139","328295.589203","329045.220673","329811.642828","330578.635709","331345.091255","332112.068678","332878.566579","336762.013398","337528.384231","338295.063306","339061.838223","339828.399195","340595.132065","341361.330381","327529.009681","340604.144973"
"Blocked","Male","done","24","M_done.wav","None","725.387327489","125","336012.281139","328295.589203","329045.220673","329811.642828","330578.635709","331345.091255","332112.068678","332878.566579","336762.013398","337528.384231","338295.063306","339061.838223","339828.399195","340595.132065","341361.330381","342128.599351","341370.150059"
"Blocked","Male","done","24","M_knife.wav","space","634.271064948","125","336012.281139","342894.988116","329045.220673","329811.642828","330578.635709","331345.091255","332112.068678","332878.566579","336762.013398","337528.384231","338295.063306","339061.838223","339828.399195","340595.132065","341361.330381","342128.599351","342138.423829"
"Blocked","Male","done","24","M_jaw.wav","None","720.327769115","125","336012.281139","342894.988116","343644.376887","329811.642828","330578.635709","331345.091255","332112.068678","332878.566579","336762.013398","337528.384231","338295.063306","339061.838223","339828.399195","340595.132065","341361.330381","342128.599351","342904.097794"
"Blocked","Male","done","24","M_priest.wav","None","735.869100143","125","336012.281139","342894.988116","343644.376887","344411.212711","330578.635709","331345.091255","332112.068678","332878.566579","336762.013398","337528.384231","338295.063306","339061.838223","339828.399195","340595.132065","341361.330381","342128.599351","343653.403399"
"Blocked","Male","done","24","M_done.wav","None","734.189073206","125","336012.281139","342894.988116","343644.376887","344411.212711","345178.201574","331345.091255","332112.068678","332878.566579","336762.013398","337528.384231","338295.063306","339061.838223","339828.399195","340595.132065","341361.330381","342128.599351","344420.06918"
"Blocked","Male","done","24","M_depth.wav","space","512.666364084","125","336012.281139","342894.988116","343644.376887","344411.212711","345178.201574","345944.415348","332112.068678","332878.566579","336762.013398","337528.384231","338295.063306","339061.838223","339828.399195","340595.132065","341361.330381","342128.599351","345187.863429"
"Blocked","Male","done","24","M_done.wav","None","729.85729971","125","336012.281139","342894.988116","343644.376887","344411.212711","345178.201574","345944.415348","346711.64258","332878.566579","336762.013398","337528.384231","338295.063306","339061.838223","339828.399195","340595.132065","341361.330381","342128.599351","345953.208128"
"Blocked","Male","done","24","M_dime.wav","space","515.410552325","125","336012.281139","342894.988116","343644.376887","344411.212711","345178.201574","345944.415348","346711.64258","347478.661123","336762.013398","337528.384231","338295.063306","339061.838223","339828.399195","340595.132065","341361.330381","342128.599351","346721.121407"
"Blocked","Male","done","19","M_bluff.wav","None","729.496808082","125","350595.022001","342894.988116","343644.376887","344411.212711","345178.201574","345944.415348","346711.64258","347478.661123","336762.013398","337528.384231","338295.063306","339061.838223","339828.399195","340595.132065","341361.330381","342128.599351","347482.656829"
"Blocked","Male","done","19","M_park.wav","None","720.914572768","125","350595.022001","342894.988116","343644.376887","344411.212711","345178.201574","345944.415348","346711.64258","347478.661123","351361.827835","337528.384231","338295.063306","339061.838223","339828.399195","340595.132065","341361.330381","342128.599351","350604.730231"
"Blocked","Male","done","19","M_done.wav","None","718.666292378","125","350595.022001","342894.988116","343644.376887","344411.212711","345178.201574","345944.415348","346711.64258","347478.661123","351361.827835","352110.905891","338295.063306","339061.838223","339828.399195","340595.132065","341361.330381","342128.599351","351371.987762"
"Blocked","Male","done","19","M_reek.wav","space","580.35561908","125","350595.022001","342894.988116","343644.376887","344411.212711","345178.201574","345944.415348","346711.64258","347478.661123","351361.827835","352110.905891","352877.594241","339061.838223","339828.399195","340595.132065","341361.330381","342128.599351","352119.991455"
"Blocked","Male","done","19","M_ball.wav","None","732.736904232","125","350595.022001","342894.988116","343644.376887","344411.212711","345178.201574","345944.415348","346711.64258","347478.661123","351361.827835","352110.905891","352877.594241","353644.472421","339828.399195","340595.132065","341361.330381","342128.599351","352886.892513"
"Blocked","Male","done","19","M_depth.wav","None","730.553858564","125","350595.022001","342894.988116","343644.376887","344411.212711","345178.201574","345944.415348","346711.64258","347478.661123","351361.827835","352110.905891","352877.594241","353644.472421","354411.381208","340595.132065","341361.330381","342128.599351","353653.956813"
"Blocked","Male","done","19","M_cave.wav","None","728.793447546","125","350595.022001","342894.988116","343644.376887","344411.212711","345178.201574","345944.415348","346711.64258","347478.661123","351361.827835","352110.905891","352877.594241","353644.472421","354411.381208","355177.533149","341361.330381","342128.599351","354420.699267"
"Blocked","Male","done","19","M_done.wav","None","727.784627583","125","350595.022001","342894.988116","343644.376887","344411.212711","345178.201574","345944.415348","346711.64258","347478.661123","351361.827835","352110.905891","352877.594241","353644.472421","354411.381208","355177.533149","355944.669795","342128.599351","355186.682711"
"Blocked","Male","done","19","M_park.wav","space","602.141555108","125","350595.022001","342894.988116","343644.376887","344411.212711","345178.201574","345944.415348","346711.64258","347478.661123","351361.827835","352110.905891","352877.594241","353644.472421","354411.381208","355177.533149","355944.669795","356711.283016","355954.10812"
"Blocked","Male","done","19","M_greet.wav","None","722.77360881","125","350595.022001","357477.776898","343644.376887","344411.212711","345178.201574","345944.415348","346711.64258","347478.661123","351361.827835","352110.905891","352877.594241","353644.472421","354411.381208","355177.533149","355944.669795","356711.283016","356720.786267"
"Blocked","Male","done","19","M_jolt.wav","None","721.547751804","125","350595.022001","357477.776898","358244.774108","344411.212711","345178.201574","345944.415348","346711.64258","347478.661123","351361.827835","352110.905891","352877.594241","353644.472421","354411.381208","355177.533149","355944.669795","356711.283016","357487.055693"
"Blocked","Male","done","19","M_greet.wav","None","719.038532407","125","350595.022001","357477.776898","358244.774108","358994.284693","345178.201574","345944.415348","346711.64258","347478.661123","351361.827835","352110.905891","352877.594241","353644.472421","354411.381208","355177.533149","355944.669795","356711.283016","358254.579109"
"Blocked","Male","done","19","M_done.wav","None","734.955195163","125","350595.022001","357477.776898","358244.774108","358994.284693","359761.186679","345944.415348","346711.64258","347478.661123","351361.827835","352110.905891","352877.594241","353644.472421","354411.381208","355177.533149","355944.669795","356711.283016","359003.692102"
"Blocked","Male","done","19","M_knife.wav","space","665.448023705","125","350595.022001","357477.776898","358244.774108","358994.284693","359761.186679","360527.768056","346711.64258","347478.661123","351361.827835","352110.905891","352877.594241","353644.472421","354411.381208","355177.533149","355944.669795","356711.283016","359770.659941"
"Blocked","Male","done","19","M_done.wav","None","730.447813403","125","350595.022001","357477.776898","358244.774108","358994.284693","359761.186679","360527.768056","361294.390244","347478.661123","351361.827835","352110.905891","352877.594241","353644.472421","354411.381208","355177.533149","355944.669795","356711.283016","360537.239772"
"Blocked","Male","done","19","M_cad.wav","space","620.201998972","125","350595.022001","357477.776898","358244.774108","358994.284693","359761.186679","360527.768056","361294.390244","362061.14321","351361.827835","352110.905891","352877.594241","353644.472421","354411.381208","355177.533149","355944.669795","356711.283016","361303.840009"
"Blocked","Male","cave","8","M_cad.wav","None","725.972585322","125","365194.514592","357477.776898","358244.774108","358994.284693","359761.186679","360527.768056","361294.390244","362061.14321","351361.827835","352110.905891","352877.594241","353644.472421","354411.381208","355177.533149","355944.669795","356711.283016","362070.552164"
"Blocked","Male","cave","8","M_depth.wav","None","721.527964983","125","365194.514592","357477.776898","358244.774108","358994.284693","359761.186679","360527.768056","361294.390244","362061.14321","365960.937056","352110.905891","352877.594241","353644.472421","354411.381208","355177.533149","355944.669795","356711.283016","365203.948898"
"Blocked","Male","cave","8","M_reek.wav","None","719.792287564","125","365194.514592","357477.776898","358244.774108","358994.284693","359761.186679","360527.768056","361294.390244","362061.14321","365960.937056","366711.019913","352877.594241","353644.472421","354411.381208","355177.533149","355944.669795","356711.283016","365970.476789"
"Blocked","Male","cave","8","M_reek.wav","None","734.622219636","125","365194.514592","357477.776898","358244.774108","358994.284693","359761.186679","360527.768056","361294.390244","362061.14321","365960.937056","366711.019913","367477.292121","353644.472421","354411.381208","355177.533149","355944.669795","356711.283016","366720.482354"
"Blocked","Male","cave","8","M_cave.wav","None","736.465488037","125","365194.514592","357477.776898","358244.774108","358994.284693","359761.186679","360527.768056","361294.390244","362061.14321","365960.937056","366711.019913","367477.292121","368244.046324","354411.381208","355177.533149","355944.669795","356711.283016","367486.110871"
"Blocked","Male","cave","8","M_greet.wav","space","582.462609047","125","365194.514592","357477.776898","358244.774108","358994.284693","359761.186679","360527.768056","361294.390244","362061.14321","365960.937056","366711.019913","367477.292121","368244.046324","369010.93687","355177.533149","355944.669795","356711.283016","368253.409521"
"Blocked","Male","cave","8","M_cad.wav","None","731.601324747","125","365194.514592","357477.776898","358244.774108","358994.284693","359761.186679","360527.768056","361294.390244","362061.14321","365960.937056","366711.019913","367477.292121","368244.046324","369010.93687","369777.557512","355944.669795","356711.283016","369019.916388"
"Blocked","Male","cave","8","M_cave.wav","None","729.607799964","125","365194.514592","357477.776898","358244.774108","358994.284693","359761.186679","360527.768056","361294.390244","362061.14321","365960.937056","366711.019913","367477.292121","368244.046324","369010.93687","369777.557512","370543.995743","356711.283016","369786.977596"
"Blocked","Male","cave","8","M_cad.wav","space","578.356529295","125","365194.514592","357477.776898","358244.774108","358994.284693","359761.186679","360527.768056","361294.390244","362061.14321","365960.937056","366711.019913","367477.292121","368244.046324","369010.93687","369777.557512","370543.995743","371310.935757","370553.42263"
"Blocked","Male","cave","8","M_cave.wav","None","725.581795152","125","365194.514592","372077.801879","358244.774108","358994.284693","359761.186679","360527.768056","361294.390244","362061.14321","365960.937056","366711.019913","367477.292121","368244.046324","369010.93687","369777.557512","370543.995743","371310.935757","371320.315031"
"Blocked","Male","cave","8","M_knife.wav","space","372.131525655","125","365194.514592","372077.801879","372844.066049","358994.284693","359761.186679","360527.768056","361294.390244","362061.14321","365960.937056","366711.019913","367477.292121","368244.046324","369010.93687","369777.557512","370543.995743","371310.935757","372087.646144"
"Blocked","Male","cave","8","M_cling.wav","None","721.446035081","125","365194.514592","372077.801879","372844.066049","373610.680816","359761.186679","360527.768056","361294.390244","362061.14321","365960.937056","366711.019913","367477.292121","368244.046324","369010.93687","369777.557512","370543.995743","371310.935757","372853.4648"
"Blocked","Male","cave","8","M_lash.wav","None","720.475861279","125","365194.514592","372077.801879","372844.066049","373610.680816","374360.66443","360527.768056","361294.390244","362061.14321","365960.937056","366711.019913","367477.292121","368244.046324","369010.93687","369777.557512","370543.995743","371310.935757","373619.930548"
"Blocked","Male","cave","8","M_tile.wav","None","735.624237917","125","365194.514592","372077.801879","372844.066049","373610.680816","374360.66443","375127.181191","361294.390244","362061.14321","365960.937056","366711.019913","367477.292121","368244.046324","369010.93687","369777.557512","370543.995743","371310.935757","374370.002894"
"Blocked","Male","cave","8","M_cave.wav","None","734.055202862","125","365194.514592","372077.801879","372844.066049","373610.680816","374360.66443","375127.181191","375893.842643","362061.14321","365960.937056","366711.019913","367477.292121","368244.046324","369010.93687","369777.557512","370543.995743","371310.935757","375136.559537"
"Blocked","Male","cave","8","M_gnash.wav","space","420.563850901","125","365194.514592","372077.801879","372844.066049","373610.680816","374360.66443","375127.181191","375893.842643","376660.278092","365960.937056","366711.019913","367477.292121","368244.046324","369010.93687","369777.557512","370543.995743","371310.935757","375903.124529"
"Blocked","Male","ball","3","M_bluff.wav","None","730.250254099","125","379793.951532","372077.801879","372844.066049","373610.680816","374360.66443","375127.181191","375893.842643","376660.278092","365960.937056","366711.019913","367477.292121","368244.046324","369010.93687","369777.557512","370543.995743","371310.935757","376669.153111"
"Blocked","Male","ball","3","M_ball.wav","None","721.292996197","125","379793.951532","372077.801879","372844.066049","373610.680816","374360.66443","375127.181191","375893.842643","376660.278092","380560.802505","366711.019913","367477.292121","368244.046324","369010.93687","369777.557512","370543.995743","371310.935757","379803.752204"
"Blocked","Male","ball","3","M_done.wav","None","719.496412377","125","379793.951532","372077.801879","372844.066049","373610.680816","374360.66443","375127.181191","375893.842643","376660.278092","380560.802505","381310.325147","367477.292121","368244.046324","369010.93687","369777.557512","370543.995743","371310.935757","380570.513209"
"Blocked","Male","ball","3","M_depth.wav","space","355.921151873","125","379793.951532","372077.801879","372844.066049","373610.680816","374360.66443","375127.181191","375893.842643","376660.278092","380560.802505","381310.325147","382077.153242","368244.046324","369010.93687","369777.557512","370543.995743","371310.935757","381319.54489"
"Blocked","Male","ball","3","M_ball.wav","None","732.751435193","125","379793.951532","372077.801879","372844.066049","373610.680816","374360.66443","375127.181191","375893.842643","376660.278092","380560.802505","381310.325147","382077.153242","382843.312912","369010.93687","369777.557512","370543.995743","371310.935757","382086.503145"
"Blocked","Male","ball","3","M_cling.wav","space","486.902035307","125","379793.951532","372077.801879","372844.066049","373610.680816","374360.66443","375127.181191","375893.842643","376660.278092","380560.802505","381310.325147","382077.153242","382843.312912","383609.998788","369777.557512","370543.995743","371310.935757","382852.542239"
"Blocked","Male","ball","3","M_depth.wav","None","730.225520558","125","379793.951532","372077.801879","372844.066049","373610.680816","374360.66443","375127.181191","375893.842643","376660.278092","380560.802505","381310.325147","382077.153242","382843.312912","383609.998788","384377.045465","370543.995743","371310.935757","383618.978306"
"Blocked","Male","ball","3","M_ball.wav","None","728.09936211","125","379793.951532","372077.801879","372844.066049","373610.680816","374360.66443","375127.181191","375893.842643","376660.278092","380560.802505","381310.325147","382077.153242","382843.312912","383609.998788","384377.045465","385143.658996","371310.935757","384386.450091"
"Blocked","Male","ball","3","M_dime.wav","space","354.077574331","125","379793.951532","372077.801879","372844.066049","373610.680816","374360.66443","375127.181191","375893.842643","376660.278092","380560.802505","381310.325147","382077.153242","382843.312912","383609.998788","384377.045465","385143.658996","385910.862731","385153.319924"
"Blocked","Male","ball","3","M_jaw.wav","None","723.375252564","125","379793.951532","386677.304364","372844.066049","373610.680816","374360.66443","375127.181191","375893.842643","376660.278092","380560.802505","381310.325147","382077.153242","382843.312912","383609.998788","384377.045465","385143.658996","385910.862731","385920.531697"
"Blocked","Male","ball","3","M_cling.wav","None","722.436923243","125","379793.951532","386677.304364","387444.07588","373610.680816","374360.66443","375127.181191","375893.842643","376660.278092","380560.802505","381310.325147","382077.153242","382843.312912","383609.998788","384377.045465","385143.658996","385910.862731","386686.957253"
"Blocked","Male","ball","3","M_greet.wav","None","721.117697132","125","379793.951532","386677.304364","387444.07588","388210.381787","374360.66443","375127.181191","375893.842643","376660.278092","380560.802505","381310.325147","382077.153242","382843.312912","383609.998788","384377.045465","385143.658996","385910.862731","387453.708983"
"Blocked","Male","ball","3","M_jolt.wav","None","719.378000475","125","379793.951532","386677.304364","387444.07588","388210.381787","388960.357672","375127.181191","375893.842643","376660.278092","380560.802505","381310.325147","382077.153242","382843.312912","383609.998788","384377.045465","385143.658996","385910.862731","388220.522855"
"Blocked","Male","ball","3","M_jolt.wav","None","735.479546594","125","379793.951532","386677.304364","387444.07588","388210.381787","388960.357672","389726.742108","375893.842643","376660.278092","380560.802505","381310.325147","382077.153242","382843.312912","383609.998788","384377.045465","385143.658996","385910.862731","388969.689953"
"Blocked","Male","ball","3","M_ball.wav","None","734.413839411","125","379793.951532","386677.304364","387444.07588","388210.381787","388960.357672","389726.742108","390492.962684","376660.278092","380560.802505","381310.325147","382077.153242","382843.312912","383609.998788","384377.045465","385143.658996","385910.862731","389736.076862"
"Blocked","Male","ball","3","M_park.wav","space","549.387040606","125","379793.951532","386677.304364","387444.07588","388210.381787","388960.357672","389726.742108","390492.962684","391260.286068","380560.802505","381310.325147","382077.153242","382843.312912","383609.998788","384377.045465","385143.658996","385910.862731","390501.800294"
"Blocked","Male","tile","17","M_lash.wav","None","730.705042428","125","394393.059826","386677.304364","387444.07588","388210.381787","388960.357672","389726.742108","390492.962684","391260.286068","380560.802505","381310.325147","382077.153242","382843.312912","383609.998788","384377.045465","385143.658996","385910.862731","391269.526526"
"Blocked","Male","tile","17","M_knife.wav","None","721.455001039","125","394393.059826","386677.304364","387444.07588","388210.381787","388960.357672","389726.742108","390492.962684","391260.286068","395160.519862","381310.325147","382077.153242","382843.312912","383609.998788","384377.045465","385143.658996","385910.862731","394402.419622"
"Blocked","Male","tile","17","M_greet.wav","None","719.102530449","125","394393.059826","386677.304364","387444.07588","388210.381787","388960.357672","389726.742108","390492.962684","391260.286068","395160.519862","395910.096918","382077.153242","382843.312912","383609.998788","384377.045465","385143.658996","385910.862731","395170.108135"
"Blocked","Male","tile","17","M_tile.wav","None","734.388796671","125","394393.059826","386677.304364","387444.07588","388210.381787","388960.357672","389726.742108","390492.962684","391260.286068","395160.519862","395910.096918","396676.561739","382843.312912","383609.998788","384377.045465","385143.658996","385910.862731","395920.184191"
"Blocked","Male","tile","17","M_greet.wav","space","517.075120762","125","394393.059826","386677.304364","387444.07588","388210.381787","388960.357672","389726.742108","390492.962684","391260.286068","395160.519862","395910.096918","396676.561739","397443.009555","383609.998788","384377.045465","385143.658996","385910.862731","396685.922463"
"Blocked","Male","tile","17","M_cave.wav","None","732.025505218","125","394393.059826","386677.304364","387444.07588","388210.381787","388960.357672","389726.742108","390492.962684","391260.286068","395160.519862","395910.096918","396676.561739","397443.009555","398210.035517","384377.045465","385143.658996","385910.862731","397452.115832"
"Blocked","Male","tile","17","M_dime.wav","None","729.995807633","125","394393.059826","386677.304364","387444.07588","388210.381787","388960.357672","389726.742108","390492.962684","391260.286068","395160.519862","395910.096918","396676.561739","397443.009555","398210.035517","398975.814291","385143.658996","385910.862731","398219.501977"
"Blocked","Male","tile","17","M_bluff.wav","None","731.293082761","125","394393.059826","386677.304364","387444.07588","388210.381787","388960.357672","389726.742108","390492.962684","391260.286068","395160.519862","395910.096918","396676.561739","397443.009555","398210.035517","398975.814291","399743.204455","385910.862731","398984.556676"
"Blocked","Male","tile","17","M_tile.wav","None","728.945559007","125","394393.059826","386677.304364","387444.07588","388210.381787","388960.357672","389726.742108","390492.962684","391260.286068","395160.519862","395910.096918","396676.561739","397443.009555","398210.035517","398975.814291","399743.204455","400509.504179","399752.431309"
"Blocked","Male","tile","17","M_priest.wav","space","444.345166674","125","394393.059826","401276.09143","387444.07588","388210.381787","388960.357672","389726.742108","390492.962684","391260.286068","395160.519862","395910.096918","396676.561739","397443.009555","398210.035517","398975.814291","399743.204455","400509.504179","400518.574593"
"Blocked","Male","tile","17","M_tile.wav","None","725.972894521","125","394393.059826","401276.09143","402043.754282","388210.381787","388960.357672","389726.742108","390492.962684","391260.286068","395160.519862","395910.096918","396676.561739","397443.009555","398210.035517","398975.814291","399743.204455","400509.504179","401285.0963"
"Blocked","Male","tile","17","M_gnash.wav","space","637.330296915","125","394393.059826","401276.09143","402043.754282","402809.603237","388960.357672","389726.742108","390492.962684","391260.286068","395160.519862","395910.096918","396676.561739","397443.009555","398210.035517","398975.814291","399743.204455","400509.504179","402053.525274"
"Blocked","Male","tile","17","M_cling.wav","None","721.90422425","125","394393.059826","401276.09143","402043.754282","402809.603237","403576.727515","389726.742108","390492.962684","391260.286068","395160.519862","395910.096918","396676.561739","397443.009555","398210.035517","398975.814291","399743.204455","400509.504179","402818.804429"
"Blocked","Male","tile","17","M_jolt.wav","None","719.478171435","125","394393.059826","401276.09143","402043.754282","402809.603237","403576.727515","404326.537685","390492.962684","391260.286068","395160.519862","395910.096918","396676.561739","397443.009555","398210.035517","398975.814291","399743.204455","400509.504179","403586.416268"
"Blocked","Male","tile","17","M_tile.wav","None","735.415239353","125","394393.059826","401276.09143","402043.754282","402809.603237","403576.727515","404326.537685","405092.606459","391260.286068","395160.519862","395910.096918","396676.561739","397443.009555","398210.035517","398975.814291","399743.204455","400509.504179","404336.101225"
"Blocked","Male","tile","17","M_cad.wav","space","453.235953173","125","394393.059826","401276.09143","402043.754282","402809.603237","403576.727515","404326.537685","405092.606459","405859.969417","395160.519862","395910.096918","396676.561739","397443.009555","398210.035517","398975.814291","399743.204455","400509.504179","405101.554442"
"Blocked","Male","ball","4","M_jolt.wav","None","731.547220086","125","408993.482089","401276.09143","402043.754282","402809.603237","403576.727515","404326.537685","405092.606459","405859.969417","395160.519862","395910.096918","396676.561739","397443.009555","398210.035517","398975.814291","399743.204455","400509.504179","405869.324885"
"Blocked","Male","ball","4","M_reek.wav","None","727.015723125","125","408993.482089","401276.09143","402043.754282","402809.603237","403576.727515","404326.537685","405092.606459","405859.969417","409759.617026","395910.096918","396676.561739","397443.009555","398210.035517","398975.814291","399743.204455","400509.504179","408997.536538"
"Blocked","Male","ball","4","M_ball.wav","None","720.613132522","125","408993.482089","401276.09143","402043.754282","402809.603237","403576.727515","404326.537685","405092.606459","405859.969417","409759.617026","410526.794791","396676.561739","397443.009555","398210.035517","398975.814291","399743.204455","400509.504179","409769.26064"
"Blocked","Male","ball","4","M_gnash.wav","None","719.18075037","125","408993.482089","401276.09143","402043.754282","402809.603237","403576.727515","404326.537685","405092.606459","405859.969417","409759.617026","410526.794791","411292.990633","397443.009555","398210.035517","398975.814291","399743.204455","400509.504179","410536.176847"
"Blocked","Male","ball","4","M_ball.wav","space","19.983787206","125","408993.482089","401276.09143","402043.754282","402809.603237","403576.727515","404326.537685","405092.606459","405859.969417","409759.617026","410526.794791","411292.990633","412042.706816","398210.035517","398975.814291","399743.204455","400509.504179","411302.624972"
"Blocked","Male","ball","4","M_lash.wav","space","598.485316907","125","408993.482089","401276.09143","402043.754282","402809.603237","403576.727515","404326.537685","405092.606459","405859.969417","409759.617026","410526.794791","411292.990633","412042.706816","412809.635081","398975.814291","399743.204455","400509.504179","412052.118862"
"Blocked","Male","ball","4","M_knife.wav","None","730.775223929","125","408993.482089","401276.09143","402043.754282","402809.603237","403576.727515","404326.537685","405092.606459","405859.969417","409759.617026","410526.794791","411292.990633","412042.706816","412809.635081","413576.147823","399743.204455","400509.504179","412818.984057"
"Blocked","Male","ball","4","M_ball.wav","None","729.40405726","125","408993.482089","401276.09143","402043.754282","402809.603237","403576.727515","404326.537685","405092.606459","405859.969417","409759.617026","410526.794791","411292.990633","412042.706816","412809.635081","413576.147823","414342.644487","400509.504179","413585.411777"
"Blocked","Male","ball","4","M_cling.wav","space","442.530651053","125","408993.482089","401276.09143","402043.754282","402809.603237","403576.727515","404326.537685","405092.606459","405859.969417","409759.617026","410526.794791","411292.990633","412042.706816","412809.635081","413576.147823","414342.644487","415109.125694","414351.977077"
"Blocked","Male","ball","4","M_park.wav","None","726.219302567","125","408993.482089","415876.468246","402043.754282","402809.603237","403576.727515","404326.537685","405092.606459","405859.969417","409759.617026","410526.794791","411292.990633","412042.706816","412809.635081","413576.147823","414342.644487","415109.125694","415118.525373"
"Blocked","Male","ball","4","M_cave.wav","None","723.625061568","125","408993.482089","415876.468246","416643.142065","402809.603237","403576.727515","404326.537685","405092.606459","405859.969417","409759.617026","410526.794791","411292.990633","412042.706816","412809.635081","413576.147823","414342.644487","415109.125694","415886.320859"
"Blocked","Male","ball","4","M_depth.wav","None","723.247256421","125","408993.482089","415876.468246","416643.142065","417409.884828","403576.727515","404326.537685","405092.606459","405859.969417","409759.617026","410526.794791","411292.990633","412042.706816","412809.635081","413576.147823","414342.644487","415109.125694","416652.566168"
"Blocked","Male","ball","4","M_gnash.wav","None","721.877326549","125","408993.482089","415876.468246","416643.142065","417409.884828","418176.394787","404326.537685","405092.606459","405859.969417","409759.617026","410526.794791","411292.990633","412042.706816","412809.635081","413576.147823","414342.644487","415109.125694","417419.463208"
"Blocked","Male","ball","4","M_bluff.wav","None","720.723196864","125","408993.482089","415876.468246","416643.142065","417409.884828","418176.394787","418943.301411","405092.606459","405859.969417","409759.617026","410526.794791","411292.990633","412042.706816","412809.635081","413576.147823","414342.644487","415109.125694","418186.104873"
"Blocked","Male","ball","4","M_ball.wav","None","719.240420091","125","408993.482089","415876.468246","416643.142065","417409.884828","418176.394787","418943.301411","419692.531888","405859.969417","409759.617026","410526.794791","411292.990633","412042.706816","412809.635081","413576.147823","414342.644487","415109.125694","418953.038703"
"Blocked","Male","ball","4","M_cad.wav","space","412.456190679","125","408993.482089","415876.468246","416643.142065","417409.884828","418176.394787","418943.301411","419692.531888","420459.382861","409759.617026","410526.794791","411292.990633","412042.706816","412809.635081","413576.147823","414342.644487","415109.125694","419701.883337"
"Blocked","Male","done","20","M_park.wav","None","732.607980492","125","423592.953966","415876.468246","416643.142065","417409.884828","418176.394787","418943.301411","419692.531888","420459.382861","409759.617026","410526.794791","411292.990633","412042.706816","412809.635081","413576.147823","414342.644487","415109.125694","420468.822114"
"Blocked","Male","done","20","M_done.wav","None","720.582215581","125","423592.953966","415876.468246","416643.142065","417409.884828","418176.394787","418943.301411","419692.531888","420459.382861","424359.620365","410526.794791","411292.990633","412042.706816","412809.635081","413576.147823","414342.644487","415109.125694","423602.354882"
"Blocked","Male","done","20","M_cad.wav","space","689.272314019","125","423592.953966","415876.468246","416643.142065","417409.884828","418176.394787","418943.301411","419692.531888","420459.382861","424359.620365","425108.856716","411292.990633","412042.706816","412809.635081","413576.147823","414342.644487","415109.125694","424368.921419"
"Blocked","Male","done","20","M_done.wav","None","734.520193713","125","423592.953966","415876.468246","416643.142065","417409.884828","418176.394787","418943.301411","419692.531888","420459.382861","424359.620365","425108.856716","425875.856709","412042.706816","412809.635081","413576.147823","414342.644487","415109.125694","425117.937951"
"Blocked","Male","done","20","M_depth.wav","space","436.911805067","125","423592.953966","415876.468246","416643.142065","417409.884828","418176.394787","418943.301411","419692.531888","420459.382861","424359.620365","425108.856716","425875.856709","426642.340388","412809.635081","413576.147823","414342.644487","415109.125694","425885.198883"
"Blocked","Male","done","20","M_done.wav","None","730.177599355","125","423592.953966","415876.468246","416643.142065","417409.884828","418176.394787","418943.301411","419692.531888","420459.382861","424359.620365","425108.856716","425875.856709","426642.340388","427409.191052","413576.147823","414342.644487","415109.125694","426651.990804"
"Blocked","Male","done","20","M_jaw.wav","space","455.460427504","125","423592.953966","415876.468246","416643.142065","417409.884828","418176.394787","418943.301411","419692.531888","420459.382861","424359.620365","425108.856716","425875.856709","426642.340388","427409.191052","428175.828389","414342.644487","415109.125694","427418.605881"
"Blocked","Male","done","20","M_cad.wav","None","726.596180117","125","423592.953966","415876.468246","416643.142065","417409.884828","418176.394787","418943.301411","419692.531888","420459.382861","424359.620365","425108.856716","425875.856709","426642.340388","427409.191052","428175.828389","428941.984349","415109.125694","428185.246618"
"Blocked","Male","done","20","M_reek.wav","None","726.133353426","125","423592.953966","415876.468246","416643.142065","417409.884828","418176.394787","418943.301411","419692.531888","420459.382861","424359.620365","425108.856716","425875.856709","426642.340388","427409.191052","428175.828389","428941.984349","429709.42398","428951.121234"
"Blocked","Male","done","20","M_jolt.wav","None","723.306617001","125","423592.953966","430475.931157","416643.142065","417409.884828","418176.394787","418943.301411","419692.531888","420459.382861","424359.620365","425108.856716","425875.856709","426642.340388","427409.191052","428175.828389","428941.984349","429709.42398","429719.508779"
"Blocked","Male","done","20","M_ball.wav","None","722.227924736","125","423592.953966","430475.931157","431242.365678","417409.884828","418176.394787","418943.301411","419692.531888","420459.382861","424359.620365","425108.856716","425875.856709","426642.340388","427409.191052","428175.828389","428941.984349","429709.42398","430486.075934"
"Blocked","Male","done","20","M_lash.wav","None","721.979970753","125","423592.953966","430475.931157","431242.365678","432008.944273","418176.394787","418943.301411","419692.531888","420459.382861","424359.620365","425108.856716","425875.856709","426642.340388","427409.191052","428175.828389","428941.984349","429709.42398","431251.892736"
"Blocked","Male","done","20","M_done.wav","None","721.216013015","125","423592.953966","430475.931157","431242.365678","432008.944273","432776.01321","418943.301411","419692.531888","420459.382861","424359.620365","425108.856716","425875.856709","426642.340388","427409.191052","428175.828389","428941.984349","429709.42398","432018.16247"
"Blocked","Male","done","20","M_greet.wav","space","519.954106887","125","423592.953966","430475.931157","431242.365678","432008.944273","432776.01321","433525.57759","419692.531888","420459.382861","424359.620365","425108.856716","425875.856709","426642.340388","427409.191052","428175.828389","428941.984349","429709.42398","432785.931676"
"Blocked","Male","done","20","M_romp.wav","None","733.921332401","125","423592.953966","430475.931157","431242.365678","432008.944273","432776.01321","433525.57759","434292.096515","420459.382861","424359.620365","425108.856716","425875.856709","426642.340388","427409.191052","428175.828389","428941.984349","429709.42398","433534.727152"
"Blocked","Male","done","20","M_priest.wav","None","732.426498027","125","423592.953966","430475.931157","431242.365678","432008.944273","432776.01321","433525.57759","434292.096515","435058.96171","424359.620365","425108.856716","425875.856709","426642.340388","427409.191052","428175.828389","428941.984349","429709.42398","434301.357069"
"Blocked","Male","ball","1","M_depth.wav","None","730.765021348","125","438192.66514","430475.931157","431242.365678","432008.944273","432776.01321","433525.57759","434292.096515","435058.96171","424359.620365","425108.856716","425875.856709","426642.340388","427409.191052","428175.828389","428941.984349","429709.42398","435068.572552"
"Blocked","Male","ball","1","M_cling.wav","None","720.303963055","125","438192.66514","430475.931157","431242.365678","432008.944273","432776.01321","433525.57759","434292.096515","435058.96171","438958.538519","425108.856716","425875.856709","426642.340388","427409.191052","428175.828389","428941.984349","429709.42398","438202.152005"
"Blocked","Male","ball","1","M_ball.wav","None","720.280157053","125","438192.66514","430475.931157","431242.365678","432008.944273","432776.01321","433525.57759","434292.096515","435058.96171","438958.538519","439708.816462","425875.856709","426642.340388","427409.191052","428175.828389","428941.984349","429709.42398","438967.720234"
"Blocked","Male","ball","1","M_bluff.wav","space","443.604396656","125","438192.66514","430475.931157","431242.365678","432008.944273","432776.01321","433525.57759","434292.096515","435058.96171","438958.538519","439708.816462","440475.332914","426642.340388","427409.191052","428175.828389","428941.984349","429709.42398","439718.125555"
"Blocked","Male","ball","1","M_jolt.wav","None","733.687909495","125","438192.66514","430475.931157","431242.365678","432008.944273","432776.01321","433525.57759","434292.096515","435058.96171","438958.538519","439708.816462","440475.332914","441241.827105","427409.191052","428175.828389","428941.984349","429709.42398","440484.232048"
"Blocked","Male","ball","1","M_park.wav","None","732.104961819","125","438192.66514","430475.931157","431242.365678","432008.944273","432776.01321","433525.57759","434292.096515","435058.96171","438958.538519","439708.816462","440475.332914","441241.827105","442008.760935","428175.828389","428941.984349","429709.42398","441251.233277"
"Blocked","Male","ball","1","M_ball.wav","None","729.954688111","125","438192.66514","430475.931157","431242.365678","432008.944273","432776.01321","433525.57759","434292.096515","435058.96171","438958.538519","439708.816462","440475.332914","441241.827105","442008.760935","442775.244615","428941.984349","429709.42398","442018.642301"
"Blocked","Male","ball","1","M_reek.wav","space","337.043263891","125","438192.66514","430475.931157","431242.365678","432008.944273","432776.01321","433525.57759","434292.096515","435058.96171","438958.538519","439708.816462","440475.332914","441241.827105","442008.760935","442775.244615","443542.0724","429709.42398","442784.60874"
"Blocked","Male","ball","1","M_ball.wav","None","726.982023683","125","438192.66514","430475.931157","431242.365678","432008.944273","432776.01321","433525.57759","434292.096515","435058.96171","438958.538519","439708.816462","440475.332914","441241.827105","442008.760935","442775.244615","443542.0724","444308.687786","443551.344393"
"Blocked","Male","ball","1","M_jaw.wav","space","619.390738255","125","438192.66514","445075.636456","431242.365678","432008.944273","432776.01321","433525.57759","434292.096515","435058.96171","438958.538519","439708.816462","440475.332914","441241.827105","442008.760935","442775.244615","443542.0724","444308.687786","444318.147135"
"Blocked","Male","ball","1","M_jolt.wav","None","722.542659205","125","438192.66514","445075.636456","445842.012545","432008.944273","432776.01321","433525.57759","434292.096515","435058.96171","438958.538519","439708.816462","440475.332914","441241.827105","442008.760935","442775.244615","443542.0724","444308.687786","445085.171243"
"Blocked","Male","ball","1","M_depth.wav","None","721.759223787","125","438192.66514","445075.636456","445842.012545","446609.137751","432776.01321","433525.57759","434292.096515","435058.96171","438958.538519","439708.816462","440475.332914","441241.827105","442008.760935","442775.244615","443542.0724","444308.687786","445851.617204"
"Blocked","Male","ball","1","M_done.wav","None","720.172875153","125","438192.66514","445075.636456","445842.012545","446609.137751","447375.416142","433525.57759","434292.096515","435058.96171","438958.538519","439708.816462","440475.332914","441241.827105","442008.760935","442775.244615","443542.0724","444308.687786","446619.012315"
"Blocked","Male","ball","1","M_tile.wav","None","719.683459902","125","438192.66514","445075.636456","445842.012545","446609.137751","447375.416142","448125.668734","434292.096515","435058.96171","438958.538519","439708.816462","440475.332914","441241.827105","442008.760935","442775.244615","443542.0724","444308.687786","447384.992667"
"Blocked","Male","ball","1","M_ball.wav","None","735.206859128","125","438192.66514","445075.636456","445842.012545","446609.137751","447375.416142","448125.668734","448891.611367","435058.96171","438958.538519","439708.816462","440475.332914","441241.827105","442008.760935","442775.244615","443542.0724","444308.687786","448135.212795"
"Blocked","Male","ball","1","M_done.wav","space","460.274814512","125","438192.66514","445075.636456","445842.012545","446609.137751","447375.416142","448125.668734","448891.611367","449658.098756","438958.538519","439708.816462","440475.332914","441241.827105","442008.760935","442775.244615","443542.0724","444308.687786","448901.185108"
"Blocked","Male","done","22","M_jolt.wav","None","733.001862478","125","452791.896483","445075.636456","445842.012545","446609.137751","447375.416142","448125.668734","448891.611367","449658.098756","438958.538519","439708.816462","440475.332914","441241.827105","442008.760935","442775.244615","443542.0724","444308.687786","449666.945641"
"Blocked","Male","done","22","M_cave.wav","None","721.154797415","125","452791.896483","445075.636456","445842.012545","446609.137751","447375.416142","448125.668734","448891.611367","449658.098756","453558.246601","439708.816462","440475.332914","441241.827105","442008.760935","442775.244615","443542.0724","444308.687786","452801.63563"
"Blocked","Male","done","22","M_reek.wav","None","720.772354805","125","452791.896483","445075.636456","445842.012545","446609.137751","447375.416142","448125.668734","448891.611367","449658.098756","453558.246601","454325.075005","440475.332914","441241.827105","442008.760935","442775.244615","443542.0724","444308.687786","453567.580737"
"Blocked","Male","done","22","M_done.wav","None","719.549280358","125","452791.896483","445075.636456","445842.012545","446609.137751","447375.416142","448125.668734","448891.611367","449658.098756","453558.246601","454325.075005","455074.655152","441241.827105","442008.760935","442775.244615","443542.0724","444308.687786","454334.434801"
"Blocked","Male","done","22","M_romp.wav","space","538.730896427","125","452791.896483","445075.636456","445842.012545","446609.137751","447375.416142","448125.668734","448891.611367","449658.098756","453558.246601","454325.075005","455074.655152","455841.339174","442008.760935","442775.244615","443542.0724","444308.687786","455078.558726"
"Blocked","Male","done","22","M_jolt.wav","None","733.418622869","125","452791.896483","445075.636456","445842.012545","446609.137751","447375.416142","448125.668734","448891.611367","449658.098756","453558.246601","454325.075005","455074.655152","455841.339174","456608.452322","442775.244615","443542.0724","444308.687786","455850.471112"
"Blocked","Male","done","22","M_done.wav","None","731.25319992","125","452791.896483","445075.636456","445842.012545","446609.137751","447375.416142","448125.668734","448891.611367","449658.098756","453558.246601","454325.075005","455074.655152","455841.339174","456608.452322","457374.831503","443542.0724","444308.687786","456618.449317"
"Blocked","Male","done","22","M_cave.wav","space","665.070527757","125","452791.896483","445075.636456","445842.012545","446609.137751","447375.416142","448125.668734","448891.611367","449658.098756","453558.246601","454325.075005","455074.655152","455841.339174","456608.452322","457374.831503","458141.295395","444308.687786","457384.144924"
"Blocked","Male","done","22","M_cave.wav","None","728.894546046","125","452791.896483","445075.636456","445842.012545","446609.137751","447375.416142","448125.668734","448891.611367","449658.098756","453558.246601","454325.075005","455074.655152","455841.339174","456608.452322","457374.831503","458141.295395","458908.138639","458150.728465"
"Blocked","Male","done","22","M_done.wav","None","727.943540725","125","452791.896483","459674.352723","445842.012545","446609.137751","447375.416142","448125.668734","448891.611367","449658.098756","453558.246601","454325.075005","455074.655152","455841.339174","456608.452322","457374.831503","458141.295395","458908.138639","458917.338904"
"Blocked","Male","done","22","M_gnash.wav","space","549.500196648","125","452791.896483","459674.352723","460441.216062","446609.137751","447375.416142","448125.668734","448891.611367","449658.098756","453558.246601","454325.075005","455074.655152","455841.339174","456608.452322","457374.831503","458141.295395","458908.138639","459683.626261"
"Blocked","Male","done","22","M_cling.wav","None","724.671291013","125","452791.896483","459674.352723","460441.216062","461208.5008","447375.416142","448125.668734","448891.611367","449658.098756","453558.246601","454325.075005","455074.655152","455841.339174","456608.452322","457374.831503","458141.295395","458908.138639","460450.589772"
"Blocked","Male","done","22","M_done.wav","None","722.632936668","125","452791.896483","459674.352723","460441.216062","461208.5008","461974.957582","448125.668734","448891.611367","449658.098756","453558.246601","454325.075005","455074.655152","455841.339174","456608.452322","457374.831503","458141.295395","458908.138639","461218.266845"
"Blocked","Male","done","22","M_knife.wav","space","503.909757128","125","452791.896483","459674.352723","460441.216062","461208.5008","461974.957582","462741.14013","448891.611367","449658.098756","453558.246601","454325.075005","455074.655152","455841.339174","456608.452322","457374.831503","458141.295395","458908.138639","461985.046091"
"Blocked","Male","done","22","M_cling.wav","None","720.729071123","125","452791.896483","459674.352723","460441.216062","461208.5008","461974.957582","462741.14013","463508.556574","449658.098756","453558.246601","454325.075005","455074.655152","455841.339174","456608.452322","457374.831503","458141.295395","458908.138639","462750.019478"
"Blocked","Male","done","22","M_park.wav","None","719.447563635","125","452791.896483","459674.352723","460441.216062","461208.5008","461974.957582","462741.14013","463508.556574","464258.171968","453558.246601","454325.075005","455074.655152","455841.339174","456608.452322","457374.831503","458141.295395","458908.138639","463517.781573"
"Blocked","Male","tile","13","M_depth.wav","None","735.825816402","125","467391.388146","459674.352723","460441.216062","461208.5008","461974.957582","462741.14013","463508.556574","464258.171968","453558.246601","454325.075005","455074.655152","455841.339174","456608.452322","457374.831503","458141.295395","458908.138639","464267.193533"
"Blocked","Male","tile","13","M_tile.wav","None","721.328550717","125","467391.388146","459674.352723","460441.216062","461208.5008","461974.957582","462741.14013","463508.556574","464258.171968","468158.217477","454325.075005","455074.655152","455841.339174","456608.452322","457374.831503","458141.295395","458908.138639","467401.209533"
"Blocked","Male","tile","13","M_jaw.wav","space","432.913316297","125","467391.388146","459674.352723","460441.216062","461208.5008","461974.957582","462741.14013","463508.556574","464258.171968","468158.217477","468907.387976","455074.655152","455841.339174","456608.452322","457374.831503","458141.295395","458908.138639","468167.97332"
"Blocked","Male","tile","13","M_lash.wav","None","736.244741071","125","467391.388146","459674.352723","460441.216062","461208.5008","461974.957582","462741.14013","463508.556574","464258.171968","468158.217477","468907.387976","469674.395388","455841.339174","456608.452322","457374.831503","458141.295395","458908.138639","468916.373986"
"Blocked","Male","tile","13","M_cad.wav","None","735.330526892","125","467391.388146","459674.352723","460441.216062","461208.5008","461974.957582","462741.14013","463508.556574","464258.171968","468158.217477","468907.387976","469674.395388","470440.977074","456608.452322","457374.831503","458141.295395","458908.138639","469683.36594"
"Blocked","Male","tile","13","M_dime.wav","None","734.266674728","125","467391.388146","459674.352723","460441.216062","461208.5008","461974.957582","462741.14013","463508.556574","464258.171968","468158.217477","468907.387976","469674.395388","470440.977074","471207.766523","457374.831503","458141.295395","458908.138639","470450.341199"
"Blocked","Male","tile","13","M_dime.wav","None","733.193856722","125","467391.388146","459674.352723","460441.216062","461208.5008","461974.957582","462741.14013","463508.556574","464258.171968","468158.217477","468907.387976","469674.395388","470440.977074","471207.766523","471973.954945","458141.295395","458908.138639","471217.290797"
"Blocked","Male","tile","13","M_tile.wav","None","733.482311829","125","467391.388146","459674.352723","460441.216062","461208.5008","461974.957582","462741.14013","463508.556574","464258.171968","468158.217477","468907.387976","469674.395388","470440.977074","471207.766523","471973.954945","472741.135184","458908.138639","471982.892726"
"Blocked","Male","tile","13","M_greet.wav","space","554.622516443","125","467391.388146","459674.352723","460441.216062","461208.5008","461974.957582","462741.14013","463508.556574","464258.171968","468158.217477","468907.387976","469674.395388","470440.977074","471207.766523","471973.954945","472741.135184","473507.353596","472750.138199"
"Blocked","Male","tile","13","M_tile.wav","None","730.170797557","125","467391.388146","474274.21539","460441.216062","461208.5008","461974.957582","462741.14013","463508.556574","464258.171968","468158.217477","468907.387976","469674.395388","470440.977074","471207.766523","471973.954945","472741.135184","473507.353596","473516.254276"
"Blocked","Male","tile","13","M_gnash.wav","space","676.885129942","125","467391.388146","474274.21539","475040.813771","461208.5008","461974.957582","462741.14013","463508.556574","464258.171968","468158.217477","468907.387976","469674.395388","470440.977074","471207.766523","471973.954945","472741.135184","473507.353596","474283.849729"
"Blocked","Male","tile","13","M_priest.wav","None","726.251147047","125","467391.388146","474274.21539","475040.813771","475807.248293","461974.957582","462741.14013","463508.556574","464258.171968","468158.217477","468907.387976","469674.395388","470440.977074","471207.766523","471973.954945","472741.135184","473507.353596","475050.179133"
"Blocked","Male","tile","13","M_bluff.wav","None","726.32411099","125","467391.388146","474274.21539","475040.813771","475807.248293","476574.291569","462741.14013","463508.556574","464258.171968","468158.217477","468907.387976","469674.395388","470440.977074","471207.766523","471973.954945","472741.135184","473507.353596","475816.055294"
"Blocked","Male","tile","13","M_priest.wav","None","725.021580001","125","467391.388146","474274.21539","475040.813771","475807.248293","476574.291569","477341.024748","463508.556574","464258.171968","468158.217477","468907.387976","469674.395388","470440.977074","471207.766523","471973.954945","472741.135184","473507.353596","476583.25161"
"Blocked","Male","tile","13","M_tile.wav","None","723.098545917","125","467391.388146","474274.21539","475040.813771","475807.248293","476574.291569","477341.024748","478108.004645","464258.171968","468158.217477","468907.387976","469674.395388","470440.977074","471207.766523","471973.954945","472741.135184","473507.353596","477351.123151"
"Blocked","Male","tile","13","M_dime.wav","space","442.8685733","125","467391.388146","474274.21539","475040.813771","475807.248293","476574.291569","477341.024748","478108.004645","478874.468538","468158.217477","468907.387976","469674.395388","470440.977074","471207.766523","471973.954945","472741.135184","473507.353596","478117.71504"
"Blocked","Male","ball","2","M_cling.wav","None","719.705410942","125","481991.070258","474274.21539","475040.813771","475807.248293","476574.291569","477341.024748","478108.004645","478874.468538","468158.217477","468907.387976","469674.395388","470440.977074","471207.766523","471973.954945","472741.135184","473507.353596","478884.504797"
"Blocked","Male","ball","2","M_ball.wav","None","721.641739365","125","481991.070258","474274.21539","475040.813771","475807.248293","476574.291569","477341.024748","478108.004645","478874.468538","482757.198702","468907.387976","469674.395388","470440.977074","471207.766523","471973.954945","472741.135184","473507.353596","482000.649565"
"Blocked","Male","ball","2","M_cad.wav","space","506.171022658","125","481991.070258","474274.21539","475040.813771","475807.248293","476574.291569","477341.024748","478108.004645","478874.468538","482757.198702","483524.454687","469674.395388","470440.977074","471207.766523","471973.954945","472741.135184","473507.353596","482766.262933"
"Blocked","Male","ball","2","M_tile.wav","None","719.505687477","125","481991.070258","474274.21539","475040.813771","475807.248293","476574.291569","477341.024748","478108.004645","478874.468538","482757.198702","483524.454687","484290.889827","470440.977074","471207.766523","471973.954945","472741.135184","473507.353596","483534.116851"
"Blocked","Male","ball","2","M_knife.wav","None","719.20579311","125","481991.070258","474274.21539","475040.813771","475807.248293","476574.291569","477341.024748","478108.004645","478874.468538","482757.198702","483524.454687","484290.889827","485040.525934","471207.766523","471973.954945","472741.135184","473507.353596","484300.617226"
"Blocked","Male","ball","2","M_greet.wav","None","735.095867247","125","481991.070258","474274.21539","475040.813771","475807.248293","476574.291569","477341.024748","478108.004645","478874.468538","482757.198702","483524.454687","484290.889827","485040.525934","485807.330532","471973.954945","472741.135184","473507.353596","485050.495413"
