"Condition","Talker","Target","Trial","current_stimulus","response_response","response_time_response","subject_nr","time_Audio1","time_Audio10","time_Audio11","time_Audio12","time_Audio13","time_Audio14","time_Audio15","time_Audio16","time_Audio2","time_Audio3","time_Audio4","time_Audio5","time_Audio6","time_Audio7","time_Audio8","time_Audio9","time_response","title"
"Mixed","Male","tile","28","F_cling.wav","NA","NA","244","1677427.31508","NA","NA","NA","NA","NA","NA","NA","NA","NA","NA","NA","NA","NA","NA","NA","NA","Mapping"
"Mixed","Male","tile","28","M_tile.wav","None","722.505613696","244","1677427.31508","NA","NA","NA","NA","NA","NA","NA","1678194.29186","NA","NA","NA","NA","NA","NA","NA","1677439.94326","Mapping"
"Mixed","Male","tile","28","F_jolt.wav","space","571.78924419","244","1677427.31508","NA","NA","NA","NA","NA","NA","NA","1678194.29186","1678960.59959","NA","NA","NA","NA","NA","NA","1678203.65208","Mapping"
"Mixed","Male","tile","28","M_tile.wav","None","727.498451713","244","1677427.31508","NA","NA","NA","NA","NA","NA","NA","1678194.29186","1678960.59959","1679727.81133","NA","NA","NA","NA","NA","1678969.77337","Mapping"
"Mixed","Male","tile","28","F_knife.wav","space","429.986028466","244","1677427.31508","NA","NA","NA","NA","NA","NA","NA","1678194.29186","1678960.59959","1679727.81133","1680494.35527","NA","NA","NA","NA","1679737.45661","Mapping"
"Mixed","Male","tile","28","F_jaw.wav","None","724.437946454","244","1677427.31508","NA","NA","NA","NA","NA","NA","NA","1678194.29186","1678960.59959","1679727.81133","1680494.35527","1681260.76966","NA","NA","NA","1680503.50401","Mapping"
"Mixed","Male","tile","28","M_tile.wav","None","725.227883551","244","1677427.31508","NA","NA","NA","NA","NA","NA","NA","1678194.29186","1678960.59959","1679727.81133","1680494.35527","1681260.76966","1682027.86331","NA","NA","1681269.82009","Mapping"
"Mixed","Male","tile","28","F_ball.wav","space","370.328895282","244","1677427.31508","NA","NA","NA","NA","NA","NA","NA","1678194.29186","1678960.59959","1679727.81133","1680494.35527","1681260.76966","1682027.86331","1682794.22267","NA","1682037.07018","Mapping"
"Mixed","Male","tile","28","M_depth.wav","None","723.171263468","244","1677427.31508","NA","NA","NA","NA","NA","NA","NA","1678194.29186","1678960.59959","1679727.81133","1680494.35527","1681260.76966","1682027.86331","1682794.22267","1683560.56935","1682803.48302","Mapping"
"Mixed","Male","tile","28","M_cling.wav","None","724.705380853","244","1677427.31508","1684328.06152","NA","NA","NA","NA","NA","NA","1678194.29186","1678960.59959","1679727.81133","1680494.35527","1681260.76966","1682027.86331","1682794.22267","1683560.56935","1683570.11383","Mapping"
"Mixed","Male","tile","28","M_tile.wav","None","723.744470626","244","1677427.31508","1684328.06152","1685095.11806","NA","NA","NA","NA","NA","1678194.29186","1678960.59959","1679727.81133","1680494.35527","1681260.76966","1682027.86331","1682794.22267","1683560.56935","1684337.54943","Mapping"
"Mixed","Male","tile","28","F_park.wav","space","422.621832229","244","1677427.31508","1684328.06152","1685095.11806","1685861.23688","NA","NA","NA","NA","1678194.29186","1678960.59959","1679727.81133","1680494.35527","1681260.76966","1682027.86331","1682794.22267","1683560.56935","1685104.6981","Mapping"
"Mixed","Male","tile","28","M_priest.wav","None","720.601724926","244","1677427.31508","1684328.06152","1685095.11806","1685861.23688","1686627.60799","NA","NA","NA","1678194.29186","1678960.59959","1679727.81133","1680494.35527","1681260.76966","1682027.86331","1682794.22267","1683560.56935","1685871.0621","Mapping"
"Mixed","Male","tile","28","M_depth.wav","None","721.942918375","244","1677427.31508","1684328.06152","1685095.11806","1685861.23688","1686627.60799","1687394.23355","NA","NA","1678194.29186","1678960.59959","1679727.81133","1680494.35527","1681260.76966","1682027.86331","1682794.22267","1683560.56935","1686636.9914","Mapping"
"Mixed","Male","tile","28","F_cad.wav","None","722.274970729","244","1677427.31508","1684328.06152","1685095.11806","1685861.23688","1686627.60799","1687394.23355","1688161.3677","NA","1678194.29186","1678960.59959","1679727.81133","1680494.35527","1681260.76966","1682027.86331","1682794.22267","1683560.56935","1687403.42496","Mapping"
"Mixed","Male","tile","28","F_done.wav","None","728.017244488","244","1677427.31508","1684328.06152","1685095.11806","1685861.23688","1686627.60799","1687394.23355","1688161.3677","1688927.4859","1678194.29186","1678960.59959","1679727.81133","1680494.35527","1681260.76966","1682027.86331","1682794.22267","1683560.56935","1688165.53628","Mapping"
"Mixed","Male","cave","13","F_jolt.wav","None","725.993705913","244","1692077.6606","1684328.06152","1685095.11806","1685861.23688","1686627.60799","1687394.23355","1688161.3677","1688927.4859","1678194.29186","1678960.59959","1679727.81133","1680494.35527","1681260.76966","1682027.86331","1682794.22267","1683560.56935","1688936.73451","Mapping"
"Mixed","Male","cave","13","F_gnash.wav","None","720.899149776","244","1692077.6606","1684328.06152","1685095.11806","1685861.23688","1686627.60799","1687394.23355","1688161.3677","1688927.4859","1692844.4392","1678960.59959","1679727.81133","1680494.35527","1681260.76966","1682027.86331","1682794.22267","1683560.56935","1692086.90704","Mapping"
"Mixed","Male","cave","13","F_cad.wav","None","726.466740947","244","1692077.6606","1684328.06152","1685095.11806","1685861.23688","1686627.60799","1687394.23355","1688161.3677","1688927.4859","1692844.4392","1693610.85946","1679727.81133","1680494.35527","1681260.76966","1682027.86331","1682794.22267","1683560.56935","1692848.22255","Mapping"
"Mixed","Male","cave","13","M_cave.wav","None","719.024632592","244","1692077.6606","1684328.06152","1685095.11806","1685861.23688","1686627.60799","1687394.23355","1688161.3677","1688927.4859","1692844.4392","1693610.85946","1694377.32332","1680494.35527","1681260.76966","1682027.86331","1682794.22267","1683560.56935","1693621.36888","Mapping"
"Mixed","Male","cave","13","M_depth.wav","space","524.769874755","244","1692077.6606","1684328.06152","1685095.11806","1685861.23688","1686627.60799","1687394.23355","1688161.3677","1688927.4859","1692844.4392","1693610.85946","1694377.32332","1695144.43521","1681260.76966","1682027.86331","1682794.22267","1683560.56935","1694386.34932","Mapping"
"Mixed","Male","cave","13","F_priest.wav","None","719.631539658","244","1692077.6606","1684328.06152","1685095.11806","1685861.23688","1686627.60799","1687394.23355","1688161.3677","1688927.4859","1692844.4392","1693610.85946","1694377.32332","1695144.43521","1695910.98471","1682027.86331","1682794.22267","1683560.56935","1695154.14757","Mapping"
"Mixed","Male","cave","13","M_bluff.wav","None","720.871014986","244","1692077.6606","1684328.06152","1685095.11806","1685861.23688","1686627.60799","1687394.23355","1688161.3677","1688927.4859","1692844.4392","1693610.85946","1694377.32332","1695144.43521","1695910.98471","1696677.74074","1682794.22267","1683560.56935","1695920.29329","Mapping"
"Mixed","Male","cave","13","F_cad.wav","None","721.242022701","244","1692077.6606","1684328.06152","1685095.11806","1685861.23688","1686627.60799","1687394.23355","1688161.3677","1688927.4859","1692844.4392","1693610.85946","1694377.32332","1695144.43521","1695910.98471","1696677.74074","1697427.23841","1683560.56935","1696687.66303","Mapping"
"Mixed","Male","cave","13","M_cave.wav","None","736.041835044","244","1692077.6606","1684328.06152","1685095.11806","1685861.23688","1686627.60799","1687394.23355","1688161.3677","1688927.4859","1692844.4392","1693610.85946","1694377.32332","1695144.43521","1695910.98471","1696677.74074","1697427.23841","1698194.12089","1697436.37015","Mapping"
"Mixed","Male","cave","13","F_reek.wav","space","299.757948611","244","1692077.6606","1698960.49725","1685095.11806","1685861.23688","1686627.60799","1687394.23355","1688161.3677","1688927.4859","1692844.4392","1693610.85946","1694377.32332","1695144.43521","1695910.98471","1696677.74074","1697427.23841","1698194.12089","1698203.26499","Mapping"
"Mixed","Male","cave","13","M_jolt.wav","None","735.21077726","244","1692077.6606","1698960.49725","1699727.14568","1685861.23688","1686627.60799","1687394.23355","1688161.3677","1688927.4859","1692844.4392","1693610.85946","1694377.32332","1695144.43521","1695910.98471","1696677.74074","1697427.23841","1698194.12089","1698969.44008","Mapping"
"Mixed","Male","cave","13","M_cave.wav","None","736.182199325","244","1692077.6606","1698960.49725","1699727.14568","1700493.94778","1686627.60799","1687394.23355","1688161.3677","1688927.4859","1692844.4392","1693610.85946","1694377.32332","1695144.43521","1695910.98471","1696677.74074","1697427.23841","1698194.12089","1699736.2057","Mapping"
"Mixed","Male","cave","13","F_bluff.wav","space","391.992352437","244","1692077.6606","1698960.49725","1699727.14568","1700493.94778","1701260.56623","1687394.23355","1688161.3677","1688927.4859","1692844.4392","1693610.85946","1694377.32332","1695144.43521","1695910.98471","1696677.74074","1697427.23841","1698194.12089","1700503.06653","Mapping"
"Mixed","Male","cave","13","M_dime.wav","None","733.692118432","244","1692077.6606","1698960.49725","1699727.14568","1700493.94778","1701260.56623","1702027.11944","1688161.3677","1688927.4859","1692844.4392","1693610.85946","1694377.32332","1695144.43521","1695910.98471","1696677.74074","1697427.23841","1698194.12089","1701269.70044","Mapping"
"Mixed","Male","cave","13","M_cave.wav","None","736.188692041","244","1692077.6606","1698960.49725","1699727.14568","1700493.94778","1701260.56623","1702027.11944","1702794.04273","1688927.4859","1692844.4392","1693610.85946","1694377.32332","1695144.43521","1695910.98471","1696677.74074","1697427.23841","1698194.12089","1702036.14297","Mapping"
"Mixed","Male","cave","13","F_bluff.wav","space","587.717538234","244","1692077.6606","1698960.49725","1699727.14568","1700493.94778","1701260.56623","1702027.11944","1702794.04273","1703560.48804","1692844.4392","1693610.85946","1694377.32332","1695144.43521","1695910.98471","1696677.74074","1697427.23841","1698194.12089","1702803.2666","Mapping"
"Mixed","Male","cave","18","F_jolt.wav","None","729.838274885","244","1706694.23976","1698960.49725","1699727.14568","1700493.94778","1701260.56623","1702027.11944","1702794.04273","1703560.48804","1692844.4392","1693610.85946","1694377.32332","1695144.43521","1695910.98471","1696677.74074","1697427.23841","1698194.12089","1703569.73788","Mapping"
"Mixed","Male","cave","18","M_cave.wav","None","722.717397846","244","1706694.23976","1698960.49725","1699727.14568","1700493.94778","1701260.56623","1702027.11944","1702794.04273","1703560.48804","1707460.99084","1693610.85946","1694377.32332","1695144.43521","1695910.98471","1696677.74074","1697427.23841","1698194.12089","1706703.24258","Mapping"
"Mixed","Male","cave","18","F_romp.wav","space","448.064003605","244","1706694.23976","1698960.49725","1699727.14568","1700493.94778","1701260.56623","1702027.11944","1702794.04273","1703560.48804","1707460.99084","1708227.3703","1694377.32332","1695144.43521","1695910.98471","1696677.74074","1697427.23841","1698194.12089","1707470.82224","Mapping"
"Mixed","Male","cave","18","M_gnash.wav","None","720.92048265","244","1706694.23976","1698960.49725","1699727.14568","1700493.94778","1701260.56623","1702027.11944","1702794.04273","1703560.48804","1707460.99084","1708227.3703","1708994.19651","1695144.43521","1695910.98471","1696677.74074","1697427.23841","1698194.12089","1708238.17188","Mapping"
"Mixed","Male","cave","18","M_cave.wav","None","723.34625572","244","1706694.23976","1698960.49725","1699727.14568","1700493.94778","1701260.56623","1702027.11944","1702794.04273","1703560.48804","1707460.99084","1708227.3703","1708994.19651","1709760.78311","1695910.98471","1696677.74074","1697427.23841","1698194.12089","1709003.65937","Mapping"
"Mixed","Male","cave","18","M_priest.wav","space","524.813777301","244","1706694.23976","1698960.49725","1699727.14568","1700493.94778","1701260.56623","1702027.11944","1702794.04273","1703560.48804","1707460.99084","1708227.3703","1708994.19651","1709760.78311","1710510.37261","1696677.74074","1697427.23841","1698194.12089","1709770.06604","Mapping"
"Mixed","Male","cave","18","F_lash.wav","None","734.580373392","244","1706694.23976","1698960.49725","1699727.14568","1700493.94778","1701260.56623","1702027.11944","1702794.04273","1703560.48804","1707460.99084","1708227.3703","1708994.19651","1709760.78311","1710510.37261","1711276.96013","1697427.23841","1698194.12089","1710519.92173","Mapping"
"Mixed","Male","cave","18","F_jaw.wav","None","735.326717142","244","1706694.23976","1698960.49725","1699727.14568","1700493.94778","1701260.56623","1702027.11944","1702794.04273","1703560.48804","1707460.99084","1708227.3703","1708994.19651","1709760.78311","1710510.37261","1711276.96013","1712043.59249","1698194.12089","1711286.18648","Mapping"
"Mixed","Male","cave","18","M_ball.wav","None","734.160825144","244","1706694.23976","1698960.49725","1699727.14568","1700493.94778","1701260.56623","1702027.11944","1702794.04273","1703560.48804","1707460.99084","1708227.3703","1708994.19651","1709760.78311","1710510.37261","1711276.96013","1712043.59249","1712810.12097","1712052.74649","Mapping"
"Mixed","Male","cave","18","F_knife.wav","None","736.523526721","244","1706694.23976","1713576.82289","1699727.14568","1700493.94778","1701260.56623","1702027.11944","1702794.04273","1703560.48804","1707460.99084","1708227.3703","1708994.19651","1709760.78311","1710510.37261","1711276.96013","1712043.59249","1712810.12097","1712819.31454","Mapping"
"Mixed","Male","cave","18","F_priest.wav","None","734.929429833","244","1706694.23976","1713576.82289","1714343.71094","1700493.94778","1701260.56623","1702027.11944","1702794.04273","1703560.48804","1707460.99084","1708227.3703","1708994.19651","1709760.78311","1710510.37261","1711276.96013","1712043.59249","1712810.12097","1713585.77624","Mapping"
"Mixed","Male","cave","18","M_cave.wav","None","732.961851638","244","1706694.23976","1713576.82289","1714343.71094","1715110.42523","1701260.56623","1702027.11944","1702794.04273","1703560.48804","1707460.99084","1708227.3703","1708994.19651","1709760.78311","1710510.37261","1711276.96013","1712043.59249","1712810.12097","1714353.07456","Mapping"
"Mixed","Male","cave","18","M_cling.wav","space","350.992894266","244","1706694.23976","1713576.82289","1714343.71094","1715110.42523","1715877.12746","1702027.11944","1702794.04273","1703560.48804","1707460.99084","1708227.3703","1708994.19651","1709760.78311","1710510.37261","1711276.96013","1712043.59249","1712810.12097","1715119.75144","Mapping"
"Mixed","Male","cave","18","F_jaw.wav","None","727.896976285","244","1706694.23976","1713576.82289","1714343.71094","1715110.42523","1715877.12746","1716643.86308","1702794.04273","1703560.48804","1707460.99084","1708227.3703","1708994.19651","1709760.78311","1710510.37261","1711276.96013","1712043.59249","1712810.12097","1715886.21066","Mapping"
"Mixed","Male","cave","18","M_cave.wav","None","725.918886252","244","1706694.23976","1713576.82289","1714343.71094","1715110.42523","1715877.12746","1716643.86308","1717410.31365","1703560.48804","1707460.99084","1708227.3703","1708994.19651","1709760.78311","1710510.37261","1711276.96013","1712043.59249","1712810.12097","1716653.06037","Mapping"
"Mixed","Male","cave","18","F_romp.wav","space","627.017471008","244","1706694.23976","1713576.82289","1714343.71094","1715110.42523","1715877.12746","1716643.86308","1717410.31365","1718177.25425","1707460.99084","1708227.3703","1708994.19651","1709760.78311","1710510.37261","1711276.96013","1712043.59249","1712810.12097","1717419.72921","Mapping"
"Mixed","Female","done","47","M_jaw.wav","None","721.920967102","244","1721310.0797","1713576.82289","1714343.71094","1715110.42523","1715877.12746","1716643.86308","1717410.31365","1718177.25425","1707460.99084","1708227.3703","1708994.19651","1709760.78311","1710510.37261","1711276.96013","1712043.59249","1712810.12097","1718186.8785","Mapping"
"Mixed","Female","done","47","F_done.wav","None","726.373989135","244","1721310.0797","1713576.82289","1714343.71094","1715110.42523","1715877.12746","1716643.86308","1717410.31365","1718177.25425","1722077.22281","1708227.3703","1708994.19651","1709760.78311","1710510.37261","1711276.96013","1712043.59249","1712810.12097","1721319.48691","Mapping"
"Mixed","Female","done","47","M_dime.wav","space","432.012659032","244","1721310.0797","1713576.82289","1714343.71094","1715110.42523","1715877.12746","1716643.86308","1717410.31365","1718177.25425","1722077.22281","1722844.12167","1708994.19651","1709760.78311","1710510.37261","1711276.96013","1712043.59249","1712810.12097","1722086.65012","Mapping"
"Mixed","Female","done","47","F_done.wav","None","727.734660264","244","1721310.0797","1713576.82289","1714343.71094","1715110.42523","1715877.12746","1716643.86308","1717410.31365","1718177.25425","1722077.22281","1722844.12167","1723610.50917","1709760.78311","1710510.37261","1711276.96013","1712043.59249","1712810.12097","1722848.01478","Mapping"
"Mixed","Female","done","47","M_priest.wav","space","659.013496246","244","1721310.0797","1713576.82289","1714343.71094","1715110.42523","1715877.12746","1716643.86308","1717410.31365","1718177.25425","1722077.22281","1722844.12167","1723610.50917","1724360.05043","1710510.37261","1711276.96013","1712043.59249","1712810.12097","1723619.57258","Mapping"
"Mixed","Female","done","47","F_jaw.wav","None","734.207510017","244","1721310.0797","1713576.82289","1714343.71094","1715110.42523","1715877.12746","1716643.86308","1717410.31365","1718177.25425","1722077.22281","1722844.12167","1723610.50917","1724360.05043","1725126.92364","1711276.96013","1712043.59249","1712810.12097","1724369.05634","Mapping"
"Mixed","Female","done","47","M_knife.wav","None","731.113614049","244","1721310.0797","1713576.82289","1714343.71094","1715110.42523","1715877.12746","1716643.86308","1717410.31365","1718177.25425","1722077.22281","1722844.12167","1723610.50917","1724360.05043","1725126.92364","1725893.62803","1712043.59249","1712810.12097","1725136.08135","Mapping"
"Mixed","Female","done","47","F_done.wav","None","731.282731984","244","1721310.0797","1713576.82289","1714343.71094","1715110.42523","1715877.12746","1716643.86308","1717410.31365","1718177.25425","1722077.22281","1722844.12167","1723610.50917","1724360.05043","1725126.92364","1725893.62803","1726660.01274","1712810.12097","1725902.67815","Mapping"
"Mixed","Female","done","47","M_knife.wav","space","369.375095703","244","1721310.0797","1713576.82289","1714343.71094","1715110.42523","1715877.12746","1716643.86308","1717410.31365","1718177.25425","1722077.22281","1722844.12167","1723610.50917","1724360.05043","1725126.92364","1725893.62803","1726660.01274","1727426.90172","1726669.19859","Mapping"
"Mixed","Female","done","47","F_bluff.wav","None","726.420674007","244","1721310.0797","1728193.66826","1714343.71094","1715110.42523","1715877.12746","1716643.86308","1717410.31365","1718177.25425","1722077.22281","1722844.12167","1723610.50917","1724360.05043","1725126.92364","1725893.62803","1726660.01274","1727426.90172","1727436.19454","Mapping"
"Mixed","Female","done","47","F_done.wav","None","723.446427844","244","1721310.0797","1728193.66826","1728960.32628","1715110.42523","1715877.12746","1716643.86308","1717410.31365","1718177.25425","1722077.22281","1722844.12167","1723610.50917","1724360.05043","1725126.92364","1725893.62803","1726660.01274","1727426.90172","1728202.85441","Mapping"
"Mixed","Female","done","47","M_tile.wav","space","444.730807561","244","1721310.0797","1728193.66826","1728960.32628","1729709.97173","1715877.12746","1716643.86308","1717410.31365","1718177.25425","1722077.22281","1722844.12167","1723610.50917","1724360.05043","1725126.92364","1725893.62803","1726660.01274","1727426.90172","1728969.76626","Mapping"
"Mixed","Female","done","47","M_jaw.wav","None","735.079069622","244","1721310.0797","1728193.66826","1728960.32628","1729709.97173","1730476.74353","1716643.86308","1717410.31365","1718177.25425","1722077.22281","1722844.12167","1723610.50917","1724360.05043","1725126.92364","1725893.62803","1726660.01274","1727426.90172","1729719.18571","Mapping"
"Mixed","Female","done","47","F_knife.wav","None","733.160340693","244","1721310.0797","1728193.66826","1728960.32628","1729709.97173","1730476.74353","1731243.59385","1717410.31365","1718177.25425","1722077.22281","1722844.12167","1723610.50917","1724360.05043","1725126.92364","1725893.62803","1726660.01274","1727426.90172","1730485.94792","Mapping"
"Mixed","Female","done","47","F_park.wav","None","731.107739732","244","1721310.0797","1728193.66826","1728960.32628","1729709.97173","1730476.74353","1731243.59385","1732009.99897","1718177.25425","1722077.22281","1722844.12167","1723610.50917","1724360.05043","1725126.92364","1725893.62803","1726660.01274","1727426.90172","1731252.5707","Mapping"
"Mixed","Female","done","47","M_bluff.wav","None","728.423188906","244","1721310.0797","1728193.66826","1728960.32628","1729709.97173","1730476.74353","1731243.59385","1732009.99897","1732776.61618","1722077.22281","1722844.12167","1723610.50917","1724360.05043","1725126.92364","1725893.62803","1726660.01274","1727426.90172","1732019.1001","Mapping"
"Mixed","Male","ball","3","F_lash.wav","None","725.769555196","244","1735910.60319","1728193.66826","1728960.32628","1729709.97173","1730476.74353","1731243.59385","1732009.99897","1732776.61618","1722077.22281","1722844.12167","1723610.50917","1724360.05043","1725126.92364","1725893.62803","1726660.01274","1727426.90172","1732785.9597","Mapping"
"Mixed","Male","ball","3","M_bluff.wav","None","720.402926672","244","1735910.60319","1728193.66826","1728960.32628","1729709.97173","1730476.74353","1731243.59385","1732009.99897","1732776.61618","1736659.65379","1722844.12167","1723610.50917","1724360.05043","1725126.92364","1725893.62803","1726660.01274","1727426.90172","1735920.31586","Mapping"
"Mixed","Male","ball","3","M_ball.wav","None","735.992985312","244","1735910.60319","1728193.66826","1728960.32628","1729709.97173","1730476.74353","1731243.59385","1732009.99897","1732776.61618","1736659.65379","1737426.6516","1723610.50917","1724360.05043","1725126.92364","1725893.62803","1726660.01274","1727426.90172","1736668.95929","Mapping"
"Mixed","Male","ball","3","F_reek.wav","space","450.188023504","244","1735910.60319","1728193.66826","1728960.32628","1729709.97173","1730476.74353","1731243.59385","1732009.99897","1732776.61618","1736659.65379","1737426.6516","1738193.51893","1724360.05043","1725126.92364","1725893.62803","1726660.01274","1727426.90172","1737436.17939","Mapping"
"Mixed","Male","ball","3","F_lash.wav","None","733.330694959","244","1735910.60319","1728193.66826","1728960.32628","1729709.97173","1730476.74353","1731243.59385","1732009.99897","1732776.61618","1736659.65379","1737426.6516","1738193.51893","1738959.95032","1725126.92364","1725893.62803","1726660.01274","1727426.90172","1738202.67942","Mapping"
"Mixed","Male","ball","3","M_cling.wav","None","731.697023846","244","1735910.60319","1728193.66826","1728960.32628","1729709.97173","1730476.74353","1731243.59385","1732009.99897","1732776.61618","1736659.65379","1737426.6516","1738193.51893","1738959.95032","1739726.73819","1725893.62803","1726660.01274","1727426.90172","1738969.33126","Mapping"
"Mixed","Male","ball","3","F_cave.wav","None","729.62309001","244","1735910.60319","1728193.66826","1728960.32628","1729709.97173","1730476.74353","1731243.59385","1732009.99897","1732776.61618","1736659.65379","1737426.6516","1738193.51893","1738959.95032","1739726.73819","1740493.09075","1726660.01274","1727426.90172","1739736.25114","Mapping"
"Mixed","Male","ball","3","M_ball.wav","None","731.72361264","244","1735910.60319","1728193.66826","1728960.32628","1729709.97173","1730476.74353","1731243.59385","1732009.99897","1732776.61618","1736659.65379","1737426.6516","1738193.51893","1738959.95032","1739726.73819","1740493.09075","1741259.85729","1727426.90172","1740501.93434","Mapping"
"Mixed","Male","ball","3","F_park.wav","space","377.407106571","244","1735910.60319","1728193.66826","1728960.32628","1729709.97173","1730476.74353","1731243.59385","1732009.99897","1732776.61618","1736659.65379","1737426.6516","1738193.51893","1738959.95032","1739726.73819","1740493.09075","1741259.85729","1742026.66062","1741268.86691","Mapping"
"Mixed","Male","ball","3","F_romp.wav","None","725.760589354","244","1735910.60319","1742793.18663","1728960.32628","1729709.97173","1730476.74353","1731243.59385","1732009.99897","1732776.61618","1736659.65379","1737426.6516","1738193.51893","1738959.95032","1739726.73819","1740493.09075","1741259.85729","1742026.66062","1742036.00013","Mapping"
"Mixed","Male","ball","3","M_cling.wav","None","726.33101372","244","1735910.60319","1742793.18663","1743560.09662","1729709.97173","1730476.74353","1731243.59385","1732009.99897","1732776.61618","1736659.65379","1737426.6516","1738193.51893","1738959.95032","1739726.73819","1740493.09075","1741259.85729","1742026.66062","1742802.3162","Mapping"
"Mixed","Male","ball","3","M_cling.wav","None","722.870747559","244","1735910.60319","1742793.18663","1743560.09662","1744326.9083","1730476.74353","1731243.59385","1732009.99897","1732776.61618","1736659.65379","1737426.6516","1738193.51893","1738959.95032","1739726.73819","1740493.09075","1741259.85729","1742026.66062","1743569.57773","Mapping"
"Mixed","Male","ball","3","M_ball.wav","None","719.782725442","244","1735910.60319","1742793.18663","1743560.09662","1744326.9083","1745076.62765","1731243.59385","1732009.99897","1732776.61618","1736659.65379","1737426.6516","1738193.51893","1738959.95032","1739726.73819","1740493.09075","1741259.85729","1742026.66062","1744336.4701","Mapping"
"Mixed","Male","ball","3","F_priest.wav","space","408.104604576","244","1735910.60319","1742793.18663","1743560.09662","1744326.9083","1745076.62765","1745843.37286","1732009.99897","1732776.61618","1736659.65379","1737426.6516","1738193.51893","1738959.95032","1739726.73819","1740493.09075","1741259.85729","1742026.66062","1745086.14524","Mapping"
"Mixed","Male","ball","3","M_ball.wav","None","731.581083965","244","1735910.60319","1742793.18663","1743560.09662","1744326.9083","1745076.62765","1745843.37286","1746610.21514","1732776.61618","1736659.65379","1737426.6516","1738193.51893","1738959.95032","1739726.73819","1740493.09075","1741259.85729","1742026.66062","1745852.86973","Mapping"
"Mixed","Male","ball","3","F_greet.wav","space","554.747617338","244","1735910.60319","1742793.18663","1743560.09662","1744326.9083","1745076.62765","1745843.37286","1746610.21514","1747376.40631","1736659.65379","1737426.6516","1738193.51893","1738959.95032","1739726.73819","1740493.09075","1741259.85729","1742026.66062","1746619.48292","Mapping"
"Mixed","Female","ball","7","F_jaw.wav","None","731.797814369","244","1750510.51637","1742793.18663","1743560.09662","1744326.9083","1745076.62765","1745843.37286","1746610.21514","1747376.40631","1736659.65379","1737426.6516","1738193.51893","1738959.95032","1739726.73819","1740493.09075","1741259.85729","1742026.66062","1747385.67965","Mapping"
"Mixed","Female","ball","7","M_dime.wav","None","720.548856538","244","1750510.51637","1742793.18663","1743560.09662","1744326.9083","1745076.62765","1745843.37286","1746610.21514","1747376.40631","1751259.52679","1737426.6516","1738193.51893","1738959.95032","1739726.73819","1740493.09075","1741259.85729","1742026.66062","1750520.01386","Mapping"
"Mixed","Female","ball","7","F_priest.wav","None","736.044308171","244","1750510.51637","1742793.18663","1743560.09662","1744326.9083","1745076.62765","1745843.37286","1746610.21514","1747376.40631","1751259.52679","1752026.04382","1738193.51893","1738959.95032","1739726.73819","1740493.09075","1741259.85729","1742026.66062","1751268.76364","Mapping"
"Mixed","Female","ball","7","F_ball.wav","None","734.052614309","244","1750510.51637","1742793.18663","1743560.09662","1744326.9083","1745076.62765","1745843.37286","1746610.21514","1747376.40631","1751259.52679","1752026.04382","1752793.09295","1738959.95032","1739726.73819","1740493.09075","1741259.85729","1742026.66062","1752035.11744","Mapping"
"Mixed","Female","ball","7","M_reek.wav","space","491.274359636","244","1750510.51637","1742793.18663","1743560.09662","1744326.9083","1745076.62765","1745843.37286","1746610.21514","1747376.40631","1751259.52679","1752026.04382","1752793.09295","1753559.57103","1739726.73819","1740493.09075","1741259.85729","1742026.66062","1752802.83036","Mapping"
"Mixed","Female","ball","7","F_ball.wav","None","732.387716416","244","1750510.51637","1742793.18663","1743560.09662","1744326.9083","1745076.62765","1745843.37286","1746610.21514","1747376.40631","1751259.52679","1752026.04382","1752793.09295","1753559.57103","1754325.97924","1740493.09075","1741259.85729","1742026.66062","1753569.07408","Mapping"
"Mixed","Female","ball","7","M_jolt.wav","space","542.794053908","244","1750510.51637","1742793.18663","1743560.09662","1744326.9083","1745076.62765","1745843.37286","1746610.21514","1747376.40631","1751259.52679","1752026.04382","1752793.09295","1753559.57103","1754325.97924","1755093.22994","1741259.85729","1742026.66062","1754335.25567","Mapping"
"Mixed","Female","ball","7","F_romp.wav","None","727.19267942","244","1750510.51637","1742793.18663","1743560.09662","1744326.9083","1745076.62765","1745843.37286","1746610.21514","1747376.40631","1751259.52679","1752026.04382","1752793.09295","1753559.57103","1754325.97924","1755093.22994","1755860.76447","1742026.66062","1755102.39384","Mapping"
"Mixed","Female","ball","7","M_reek.wav","None","723.60070562","244","1750510.51637","1742793.18663","1743560.09662","1744326.9083","1745076.62765","1745843.37286","1746610.21514","1747376.40631","1751259.52679","1752026.04382","1752793.09295","1753559.57103","1754325.97924","1755093.22994","1755860.76447","1756626.47858","1755870.24712","Mapping"
"Mixed","Female","ball","7","M_greet.wav","None","722.9771032","244","1750510.51637","1757392.95295","1743560.09662","1744326.9083","1745076.62765","1745843.37286","1746610.21514","1747376.40631","1751259.52679","1752026.04382","1752793.09295","1753559.57103","1754325.97924","1755093.22994","1755860.76447","1756626.47858","1756635.70493","Mapping"
"Mixed","Female","ball","7","M_romp.wav","None","724.649111275","244","1750510.51637","1757392.95295","1758159.52348","1744326.9083","1745076.62765","1745843.37286","1746610.21514","1747376.40631","1751259.52679","1752026.04382","1752793.09295","1753559.57103","1754325.97924","1755093.22994","1755860.76447","1756626.47858","1757402.30266","Mapping"
"Mixed","Female","ball","7","F_ball.wav","None","726.978422143","244","1750510.51637","1757392.95295","1758159.52348","1758926.22818","1745076.62765","1745843.37286","1746610.21514","1747376.40631","1751259.52679","1752026.04382","1752793.09295","1753559.57103","1754325.97924","1755093.22994","1755860.76447","1756626.47858","1758168.89854","Mapping"
"Mixed","Female","ball","7","F_park.wav","space","334.829319734","244","1750510.51637","1757392.95295","1758159.52348","1758926.22818","1759693.31595","1745843.37286","1746610.21514","1747376.40631","1751259.52679","1752026.04382","1752793.09295","1753559.57103","1754325.97924","1755093.22994","1755860.76447","1756626.47858","1758935.15185","Mapping"
"Mixed","Female","ball","7","F_ball.wav","None","724.083633628","244","1750510.51637","1757392.95295","1758159.52348","1758926.22818","1759693.31595","1760459.79991","1746610.21514","1747376.40631","1751259.52679","1752026.04382","1752793.09295","1753559.57103","1754325.97924","1755093.22994","1755860.76447","1756626.47858","1759702.43904","Mapping"
"Mixed","Female","ball","7","M_dime.wav","space","473.011807539","244","1750510.51637","1757392.95295","1758159.52348","1758926.22818","1759693.31595","1760459.79991","1761209.13155","1747376.40631","1751259.52679","1752026.04382","1752793.09295","1753559.57103","1754325.97924","1755093.22994","1755860.76447","1756626.47858","1760468.93536","Mapping"
"Mixed","Female","ball","7","M_gnash.wav","None","736.875675153","244","1750510.51637","1757392.95295","1758159.52348","1758926.22818","1759693.31595","1760459.79991","1761209.13155","1761976.06381","1751259.52679","1752026.04382","1752793.09295","1753559.57103","1754325.97924","1755093.22994","1755860.76447","1756626.47858","1761217.97854","Mapping"
"Mixed","Female","done","46","M_dime.wav","None","735.197482631","244","1765109.78215","1757392.95295","1758159.52348","1758926.22818","1759693.31595","1760459.79991","1761209.13155","1761976.06381","1751259.52679","1752026.04382","1752793.09295","1753559.57103","1754325.97924","1755093.22994","1755860.76447","1756626.47858","1761985.04715","Mapping"
"Mixed","Female","done","46","M_cling.wav","None","726.604941301","244","1765109.78215","1757392.95295","1758159.52348","1758926.22818","1759693.31595","1760459.79991","1761209.13155","1761976.06381","1765876.88692","1752026.04382","1752793.09295","1753559.57103","1754325.97924","1755093.22994","1755860.76447","1756626.47858","1765114.37244","Mapping"
"Mixed","Female","done","46","F_knife.wav","None","720.192379784","244","1765109.78215","1757392.95295","1758159.52348","1758926.22818","1759693.31595","1760459.79991","1761209.13155","1761976.06381","1765876.88692","1766626.53423","1752793.09295","1753559.57103","1754325.97924","1755093.22994","1755860.76447","1756626.47858","1765886.53622","Mapping"
"Mixed","Female","done","46","M_cave.wav","None","736.233212985","244","1765109.78215","1757392.95295","1758159.52348","1758926.22818","1759693.31595","1760459.79991","1761209.13155","1761976.06381","1765876.88692","1766626.53423","1767392.78909","1753559.57103","1754325.97924","1755093.22994","1755860.76447","1756626.47858","1766636.0546","Mapping"
"Mixed","Female","done","46","F_done.wav","None","734.172882978","244","1765109.78215","1757392.95295","1758159.52348","1758926.22818","1759693.31595","1760459.79991","1761209.13155","1761976.06381","1765876.88692","1766626.53423","1767392.78909","1768159.35281","1754325.97924","1755093.22994","1755860.76447","1756626.47858","1767401.91125","Mapping"
"Mixed","Female","done","46","M_ball.wav","space","613.3207893","244","1765109.78215","1757392.95295","1758159.52348","1758926.22818","1759693.31595","1760459.79991","1761209.13155","1761976.06381","1765876.88692","1766626.53423","1767392.78909","1768159.35281","1768926.02567","1755093.22994","1755860.76447","1756626.47858","1768168.52289","Mapping"
"Mixed","Female","done","46","F_done.wav","None","730.282247066","244","1765109.78215","1757392.95295","1758159.52348","1758926.22818","1759693.31595","1760459.79991","1761209.13155","1761976.06381","1765876.88692","1766626.53423","1767392.78909","1768159.35281","1768926.02567","1769692.78356","1755860.76447","1756626.47858","1768934.92244","Mapping"
"Mixed","Female","done","46","F_jaw.wav","space","407.64362691","244","1765109.78215","1757392.95295","1758159.52348","1758926.22818","1759693.31595","1760459.79991","1761209.13155","1761976.06381","1765876.88692","1766626.53423","1767392.78909","1768159.35281","1768926.02567","1769692.78356","1770459.25329","1756626.47858","1769702.11193","Mapping"
"Mixed","Female","done","46","F_romp.wav","None","725.167286117","244","1765109.78215","1757392.95295","1758159.52348","1758926.22818","1759693.31595","1760459.79991","1761209.13155","1761976.06381","1765876.88692","1766626.53423","1767392.78909","1768159.35281","1768926.02567","1769692.78356","1770459.25329","1771226.30829","1770468.26724","Mapping"
"Mixed","Female","done","46","M_priest.wav","None","722.081737593","244","1765109.78215","1771993.1818","1758159.52348","1758926.22818","1759693.31595","1760459.79991","1761209.13155","1761976.06381","1765876.88692","1766626.53423","1767392.78909","1768159.35281","1768926.02567","1769692.78356","1770459.25329","1771226.30829","1771235.73034","Mapping"
"Mixed","Female","done","46","M_gnash.wav","None","720.875034109","244","1765109.78215","1771993.1818","1772742.91475","1758926.22818","1759693.31595","1760459.79991","1761209.13155","1761976.06381","1765876.88692","1766626.53423","1767392.78909","1768159.35281","1768926.02567","1769692.78356","1770459.25329","1771226.30829","1772002.12278","Mapping"
"Mixed","Female","done","46","M_cad.wav","None","736.494464334","244","1765109.78215","1771993.1818","1772742.91475","1773525.87239","1759693.31595","1760459.79991","1761209.13155","1761976.06381","1765876.88692","1766626.53423","1767392.78909","1768159.35281","1768926.02567","1769692.78356","1770459.25329","1771226.30829","1772751.96796","Mapping"
"Mixed","Female","done","46","F_done.wav","None","722.787888721","244","1765109.78215","1771993.1818","1772742.91475","1773525.87239","1774293.52965","1760459.79991","1761209.13155","1761976.06381","1765876.88692","1766626.53423","1767392.78909","1768159.35281","1768926.02567","1769692.78356","1770459.25329","1771226.30829","1773535.18005","Mapping"
"Mixed","Female","done","46","F_jaw.wav","space","382.413548417","244","1765109.78215","1771993.1818","1772742.91475","1773525.87239","1774293.52965","1775042.42506","1761209.13155","1761976.06381","1765876.88692","1766626.53423","1767392.78909","1768159.35281","1768926.02567","1769692.78356","1770459.25329","1771226.30829","1774303.28623","Mapping"
"Mixed","Female","done","46","F_done.wav","None","735.229946207","244","1765109.78215","1771993.1818","1772742.91475","1773525.87239","1774293.52965","1775042.42506","1775809.26518","1761976.06381","1765876.88692","1766626.53423","1767392.78909","1768159.35281","1768926.02567","1769692.78356","1770459.25329","1771226.30829","1775051.59606","Mapping"
"Mixed","Female","done","46","M_knife.wav","space","503.041800577","244","1765109.78215","1771993.1818","1772742.91475","1773525.87239","1774293.52965","1775042.42506","1775809.26518","1776575.91671","1765876.88692","1766626.53423","1767392.78909","1768159.35281","1768926.02567","1769692.78356","1770459.25329","1771226.30829","1775846.65257","Mapping"
"Mixed","Female","cave","23","F_gnash.wav","None","732.898161747","244","1779709.65638","1771993.1818","1772742.91475","1773525.87239","1774293.52965","1775042.42506","1775809.26518","1776575.91671","1765876.88692","1766626.53423","1767392.78909","1768159.35281","1768926.02567","1769692.78356","1770459.25329","1771226.30829","1776584.70619","Mapping"
"Mixed","Female","cave","23","M_cling.wav","None","722.298467532","244","1779709.65638","1771993.1818","1772742.91475","1773525.87239","1774293.52965","1775042.42506","1775809.26518","1776575.91671","1780458.81334","1766626.53423","1767392.78909","1768159.35281","1768926.02567","1769692.78356","1770459.25329","1771226.30829","1779717.16372","Mapping"
"Mixed","Female","cave","23","M_dime.wav","None","736.599892844","244","1779709.65638","1771993.1818","1772742.91475","1773525.87239","1774293.52965","1775042.42506","1775809.26518","1776575.91671","1780458.81334","1781225.67047","1767392.78909","1768159.35281","1768926.02567","1769692.78356","1770459.25329","1771226.30829","1780467.60406","Mapping"
"Mixed","Female","cave","23","F_cave.wav","None","735.280959401","244","1779709.65638","1771993.1818","1772742.91475","1773525.87239","1774293.52965","1775042.42506","1775809.26518","1776575.91671","1780458.81334","1781225.67047","1781992.54151","1768159.35281","1768926.02567","1769692.78356","1770459.25329","1771226.30829","1781234.47448","Mapping"
"Mixed","Female","cave","23","M_greet.wav","space","340.144315735","244","1779709.65638","1771993.1818","1772742.91475","1773525.87239","1774293.52965","1775042.42506","1775809.26518","1776575.91671","1780458.81334","1781225.67047","1781992.54151","1782758.80409","1768926.02567","1769692.78356","1770459.25329","1771226.30829","1782001.42065","Mapping"
"Mixed","Female","cave","23","M_knife.wav","None","731.319832616","244","1779709.65638","1771993.1818","1772742.91475","1773525.87239","1774293.52965","1775042.42506","1775809.26518","1776575.91671","1780458.81334","1781225.67047","1781992.54151","1782758.80409","1783525.89681","1769692.78356","1770459.25329","1771226.30829","1782767.46187","Mapping"
"Mixed","Female","cave","23","M_park.wav","None","729.173861444","244","1779709.65638","1771993.1818","1772742.91475","1773525.87239","1774293.52965","1775042.42506","1775809.26518","1776575.91671","1780458.81334","1781225.67047","1781992.54151","1782758.80409","1783525.89681","1784292.28987","1770459.25329","1771226.30829","1783534.72247","Mapping"
"Mixed","Female","cave","23","F_cad.wav","None","730.04789371","244","1779709.65638","1771993.1818","1772742.91475","1773525.87239","1774293.52965","1775042.42506","1775809.26518","1776575.91671","1780458.81334","1781225.67047","1781992.54151","1782758.80409","1783525.89681","1784292.28987","1785058.93367","1771226.30829","1784301.04813","Mapping"
"Mixed","Female","cave","23","M_done.wav","None","728.135039564","244","1779709.65638","1771993.1818","1772742.91475","1773525.87239","1774293.52965","1775042.42506","1775809.26518","1776575.91671","1780458.81334","1781225.67047","1781992.54151","1782758.80409","1783525.89681","1784292.28987","1785058.93367","1785825.69681","1785067.76984","Mapping"
"Mixed","Female","cave","23","F_cave.wav","None","729.443151504","244","1779709.65638","1786592.4315","1772742.91475","1773525.87239","1774293.52965","1775042.42506","1775809.26518","1776575.91671","1780458.81334","1781225.67047","1781992.54151","1782758.80409","1783525.89681","1784292.28987","1785058.93367","1785825.69681","1785834.50361","Mapping"
"Mixed","Female","cave","23","M_romp.wav","space","444.016926922","244","1779709.65638","1786592.4315","1787358.85208","1773525.87239","1774293.52965","1775042.42506","1775809.26518","1776575.91671","1780458.81334","1781225.67047","1781992.54151","1782758.80409","1783525.89681","1784292.28987","1785058.93367","1785825.69681","1786601.42195","Mapping"
"Mixed","Female","cave","23","F_cave.wav","None","726.100989152","244","1779709.65638","1786592.4315","1787358.85208","1788126.00014","1774293.52965","1775042.42506","1775809.26518","1776575.91671","1780458.81334","1781225.67047","1781992.54151","1782758.80409","1783525.89681","1784292.28987","1785058.93367","1785825.69681","1787367.61745","Mapping"
"Mixed","Female","cave","23","M_jolt.wav","space","622.436760925","244","1779709.65638","1786592.4315","1787358.85208","1788126.00014","1788892.63992","1775042.42506","1775809.26518","1776575.91671","1780458.81334","1781225.67047","1781992.54151","1782758.80409","1783525.89681","1784292.28987","1785058.93367","1785825.69681","1788134.91793","Mapping"
"Mixed","Female","cave","23","F_cave.wav","None","722.988851368","244","1779709.65638","1786592.4315","1787358.85208","1788126.00014","1788892.63992","1789659.27258","1775809.26518","1776575.91671","1780458.81334","1781225.67047","1781992.54151","1782758.80409","1783525.89681","1784292.28987","1785058.93367","1785825.69681","1788901.67519","Mapping"
"Mixed","Female","cave","23","F_park.wav","space","352.82598203","244","1779709.65638","1786592.4315","1787358.85208","1788126.00014","1788892.63992","1789659.27258","1790408.88929","1776575.91671","1780458.81334","1781225.67047","1781992.54151","1782758.80409","1783525.89681","1784292.28987","1785058.93367","1785825.69681","1789668.59694","Mapping"
"Mixed","Female","cave","23","F_depth.wav","None","735.233656131","244","1779709.65638","1786592.4315","1787358.85208","1788126.00014","1788892.63992","1789659.27258","1790408.88929","1791193.00322","1780458.81334","1781225.67047","1781992.54151","1782758.80409","1783525.89681","1784292.28987","1785058.93367","1785825.69681","1790417.62528","Mapping"
"Mixed","Male","tile","29","F_bluff.wav","None","719.99512706","244","1794309.22576","1786592.4315","1787358.85208","1788126.00014","1788892.63992","1789659.27258","1790408.88929","1791193.00322","1780458.81334","1781225.67047","1781992.54151","1782758.80409","1783525.89681","1784292.28987","1785058.93367","1785825.69681","1791202.47413","Mapping"
"Mixed","Male","tile","29","F_cave.wav","None","721.015398856","244","1794309.22576","1786592.4315","1787358.85208","1788126.00014","1788892.63992","1789659.27258","1790408.88929","1791193.00322","1795058.70272","1781225.67047","1781992.54151","1782758.80409","1783525.89681","1784292.28987","1785058.93367","1785825.69681","1794318.34606","Mapping"
"Mixed","Male","tile","29","M_tile.wav","None","737.096115481","244","1794309.22576","1786592.4315","1787358.85208","1788126.00014","1788892.63992","1789659.27258","1790408.88929","1791193.00322","1795058.70272","1795825.52429","1781992.54151","1782758.80409","1783525.89681","1784292.28987","1785058.93367","1785825.69681","1795067.52435","Mapping"
"Mixed","Male","tile","29","M_depth.wav","space","330.686089117","244","1794309.22576","1786592.4315","1787358.85208","1788126.00014","1788892.63992","1789659.27258","1790408.88929","1791193.00322","1795058.70272","1795825.52429","1796592.28897","1782758.80409","1783525.89681","1784292.28987","1785058.93367","1785825.69681","1795834.65201","Mapping"
"Mixed","Male","tile","29","F_jolt.wav","None","732.875901274","244","1794309.22576","1786592.4315","1787358.85208","1788126.00014","1788892.63992","1789659.27258","1790408.88929","1791193.00322","1795058.70272","1795825.52429","1796592.28897","1797358.691","1783525.89681","1784292.28987","1785058.93367","1785825.69681","1796601.28128","Mapping"
"Mixed","Male","tile","29","M_tile.wav","None","732.113170903","244","1794309.22576","1786592.4315","1787358.85208","1788126.00014","1788892.63992","1789659.27258","1790408.88929","1791193.00322","1795058.70272","1795825.52429","1796592.28897","1797358.691","1798125.47671","1784292.28987","1785058.93367","1785825.69681","1797367.62487","Mapping"
"Mixed","Male","tile","29","F_bluff.wav","space","415.145096835","244","1794309.22576","1786592.4315","1787358.85208","1788126.00014","1788892.63992","1789659.27258","1790408.88929","1791193.00322","1795058.70272","1795825.52429","1796592.28897","1797358.691","1798125.47671","1798892.09299","1785058.93367","1785825.69681","1798134.16385","Mapping"
"Mixed","Male","tile","29","F_bluff.wav","None","726.356365718","244","1794309.22576","1786592.4315","1787358.85208","1788126.00014","1788892.63992","1789659.27258","1790408.88929","1791193.00322","1795058.70272","1795825.52429","1796592.28897","1797358.691","1798125.47671","1798892.09299","1799659.57774","1785825.69681","1798900.88587","Mapping"
"Mixed","Male","tile","29","F_gnash.wav","None","724.040040281","244","1794309.22576","1786592.4315","1787358.85208","1788126.00014","1788892.63992","1789659.27258","1790408.88929","1791193.00322","1795058.70272","1795825.52429","1796592.28897","1797358.691","1798125.47671","1798892.09299","1799659.57774","1800425.46375","1799668.60312","Mapping"
"Mixed","Male","tile","29","M_tile.wav","None","723.018222954","244","1794309.22576","1801192.54225","1787358.85208","1788126.00014","1788892.63992","1789659.27258","1790408.88929","1791193.00322","1795058.70272","1795825.52429","1796592.28897","1797358.691","1798125.47671","1798892.09299","1799659.57774","1800425.46375","1800434.26653","Mapping"
"Mixed","Male","tile","29","F_priest.wav","space","275.636873674","244","1794309.22576","1801192.54225","1801959.07876","1788126.00014","1788892.63992","1789659.27258","1790408.88929","1791193.00322","1795058.70272","1795825.52429","1796592.28897","1797358.691","1798125.47671","1798892.09299","1799659.57774","1800425.46375","1801201.5834","Mapping"
"Mixed","Male","tile","29","M_cling.wav","None","720.338309649","244","1794309.22576","1801192.54225","1801959.07876","1802708.78049","1788892.63992","1789659.27258","1790408.88929","1791193.00322","1795058.70272","1795825.52429","1796592.28897","1797358.691","1798125.47671","1798892.09299","1799659.57774","1800425.46375","1801967.90689","Mapping"
"Mixed","Male","tile","29","M_jaw.wav","None","735.15358055","244","1794309.22576","1801192.54225","1801959.07876","1802708.78049","1803475.21714","1789659.27258","1790408.88929","1791193.00322","1795058.70272","1795825.52429","1796592.28897","1797358.691","1798125.47671","1798892.09299","1799659.57774","1800425.46375","1802717.90481","Mapping"
"Mixed","Male","tile","29","M_tile.wav","None","735.552723054","244","1794309.22576","1801192.54225","1801959.07876","1802708.78049","1803475.21714","1804242.28636","1790408.88929","1791193.00322","1795058.70272","1795825.52429","1796592.28897","1797358.691","1798125.47671","1798892.09299","1799659.57774","1800425.46375","1803483.96272","Mapping"
"Mixed","Male","tile","29","F_park.wav","space","266.030244064","244","1794309.22576","1801192.54225","1801959.07876","1802708.78049","1803475.21714","1804242.28636","1805008.68313","1791193.00322","1795058.70272","1795825.52429","1796592.28897","1797358.691","1798125.47671","1798892.09299","1799659.57774","1800425.46375","1804251.11944","Mapping"
"Mixed","Male","tile","29","M_bluff.wav","None","730.967993382","244","1794309.22576","1801192.54225","1801959.07876","1802708.78049","1803475.21714","1804242.28636","1805008.68313","1805775.31642","1795058.70272","1795825.52429","1796592.28897","1797358.691","1798125.47671","1798892.09299","1799659.57774","1800425.46375","1805017.44417","Mapping"
"Mixed","Female","tile","31","M_priest.wav","None","729.815396015","244","1808909.10462","1801192.54225","1801959.07876","1802708.78049","1803475.21714","1804242.28636","1805008.68313","1805775.31642","1795058.70272","1795825.52429","1796592.28897","1797358.691","1798125.47671","1798892.09299","1799659.57774","1800425.46375","1805784.17732","Mapping"
"Mixed","Female","tile","31","F_bluff.wav","None","721.801935695","244","1808909.10462","1801192.54225","1801959.07876","1802708.78049","1803475.21714","1804242.28636","1805008.68313","1805775.31642","1809675.47388","1795825.52429","1796592.28897","1797358.691","1798125.47671","1798892.09299","1799659.57774","1800425.46375","1808918.31953","Mapping"
"Mixed","Female","tile","31","F_tile.wav","None","720.754765905","244","1808909.10462","1801192.54225","1801959.07876","1802708.78049","1803475.21714","1804242.28636","1805008.68313","1805775.31642","1809675.47388","1810442.62317","1796592.28897","1797358.691","1798125.47671","1798892.09299","1799659.57774","1800425.46375","1809684.65261","Mapping"
"Mixed","Female","tile","31","F_lash.wav","space","505.096565466","244","1808909.10462","1801192.54225","1801959.07876","1802708.78049","1803475.21714","1804242.28636","1805008.68313","1805775.31642","1809675.47388","1810442.62317","1811192.41858","1797358.691","1798125.47671","1798892.09299","1799659.57774","1800425.46375","1810451.95124","Mapping"
"Mixed","Female","tile","31","M_gnash.wav","None","742.089262698","244","1808909.10462","1801192.54225","1801959.07876","1802708.78049","1803475.21714","1804242.28636","1805008.68313","1805775.31642","1809675.47388","1810442.62317","1811192.41858","1811958.49937","1798125.47671","1798892.09299","1799659.57774","1800425.46375","1811195.6179","Mapping"
"Mixed","Female","tile","31","M_lash.wav","None","735.101020895","244","1808909.10462","1801192.54225","1801959.07876","1802708.78049","1803475.21714","1804242.28636","1805008.68313","1805775.31642","1809675.47388","1810442.62317","1811192.41858","1811958.49937","1812725.18707","1798892.09299","1799659.57774","1800425.46375","1811967.34853","Mapping"
"Mixed","Female","tile","31","F_tile.wav","None","735.754612833","244","1808909.10462","1801192.54225","1801959.07876","1802708.78049","1803475.21714","1804242.28636","1805008.68313","1805775.31642","1809675.47388","1810442.62317","1811192.41858","1811958.49937","1812725.18707","1813491.69638","1799659.57774","1800425.46375","1812734.02015","Mapping"
"Mixed","Female","tile","31","M_gnash.wav","space","400.322406087","244","1808909.10462","1801192.54225","1801959.07876","1802708.78049","1803475.21714","1804242.28636","1805008.68313","1805775.31642","1809675.47388","1810442.62317","1811192.41858","1811958.49937","1812725.18707","1813491.69638","1814258.41067","1800425.46375","1813500.65684","Mapping"
"Mixed","Female","tile","31","F_tile.wav","None","733.876385726","244","1808909.10462","1801192.54225","1801959.07876","1802708.78049","1803475.21714","1804242.28636","1805008.68313","1805775.31642","1809675.47388","1810442.62317","1811192.41858","1811958.49937","1812725.18707","1813491.69638","1814258.41067","1815025.05787","1814267.17944","Mapping"
"Mixed","Female","tile","31","M_ball.wav","space","395.022249781","244","1808909.10462","1815792.32774","1801959.07876","1802708.78049","1803475.21714","1804242.28636","1805008.68313","1805775.31642","1809675.47388","1810442.62317","1811192.41858","1811958.49937","1812725.18707","1813491.69638","1814258.41067","1815025.05787","1815033.90517","Mapping"
"Mixed","Female","tile","31","F_tile.wav","None","731.901696883","244","1808909.10462","1815792.32774","1816558.44533","1802708.78049","1803475.21714","1804242.28636","1805008.68313","1805775.31642","1809675.47388","1810442.62317","1811192.41858","1811958.49937","1812725.18707","1813491.69638","1814258.41067","1815025.05787","1815801.20565","Mapping"
"Mixed","Female","tile","31","F_ball.wav","space","397.663207259","244","1808909.10462","1815792.32774","1816558.44533","1817325.26041","1803475.21714","1804242.28636","1805008.68313","1805775.31642","1809675.47388","1810442.62317","1811192.41858","1811958.49937","1812725.18707","1813491.69638","1814258.41067","1815025.05787","1816567.23698","Mapping"
"Mixed","Female","tile","31","M_cad.wav","None","727.514837869","244","1808909.10462","1815792.32774","1816558.44533","1817325.26041","1818092.0455","1804242.28636","1805008.68313","1805775.31642","1809675.47388","1810442.62317","1811192.41858","1811958.49937","1812725.18707","1813491.69638","1814258.41067","1815025.05787","1817334.18191","Mapping"
"Mixed","Female","tile","31","F_gnash.wav","None","725.800781976","244","1808909.10462","1815792.32774","1816558.44533","1817325.26041","1818092.0455","1818858.56037","1805008.68313","1805775.31642","1809675.47388","1810442.62317","1811192.41858","1811958.49937","1812725.18707","1813491.69638","1814258.41067","1815025.05787","1818100.84859","Mapping"
"Mixed","Female","tile","31","M_greet.wav","None","731.151951477","244","1808909.10462","1815792.32774","1816558.44533","1817325.26041","1818092.0455","1818858.56037","1819625.15439","1805775.31642","1809675.47388","1810442.62317","1811192.41858","1811958.49937","1812725.18707","1813491.69638","1814258.41067","1815025.05787","1818862.00858","Mapping"
"Mixed","Female","tile","31","M_ball.wav","None","725.391745567","244","1808909.10462","1815792.32774","1816558.44533","1817325.26041","1818092.0455","1818858.56037","1819625.15439","1820391.80005","1809675.47388","1810442.62317","1811192.41858","1811958.49937","1812725.18707","1813491.69638","1814258.41067","1815025.05787","1819634.03106","Mapping"
"Mixed","Female","ball","9","M_gnash.wav","None","724.016543012","244","1823525.4955","1815792.32774","1816558.44533","1817325.26041","1818092.0455","1818858.56037","1819625.15439","1820391.80005","1809675.47388","1810442.62317","1811192.41858","1811958.49937","1812725.18707","1813491.69638","1814258.41067","1815025.05787","1820400.93395","Mapping"
"Mixed","Female","ball","9","M_jolt.wav","None","723.433442414","244","1823525.4955","1815792.32774","1816558.44533","1817325.26041","1818092.0455","1818858.56037","1819625.15439","1820391.80005","1824292.47383","1810442.62317","1811192.41858","1811958.49937","1812725.18707","1813491.69638","1814258.41067","1815025.05787","1823534.82913","Mapping"
"Mixed","Female","ball","9","F_depth.wav","None","723.252885509","244","1823525.4955","1815792.32774","1816558.44533","1817325.26041","1818092.0455","1818858.56037","1819625.15439","1820391.80005","1824292.47383","1825058.97077","1811192.41858","1811958.49937","1812725.18707","1813491.69638","1814258.41067","1815025.05787","1824301.30227","Mapping"
"Mixed","Female","ball","9","F_ball.wav","None","720.389941242","244","1823525.4955","1815792.32774","1816558.44533","1817325.26041","1818092.0455","1818858.56037","1819625.15439","1820391.80005","1824292.47383","1825058.97077","1825808.35466","1811958.49937","1812725.18707","1813491.69638","1814258.41067","1815025.05787","1825068.51185","Mapping"
"Mixed","Female","ball","9","F_reek.wav","space","403.451857157","244","1823525.4955","1815792.32774","1816558.44533","1817325.26041","1818092.0455","1818858.56037","1819625.15439","1820391.80005","1824292.47383","1825058.97077","1825808.35466","1826575.10234","1812725.18707","1813491.69638","1814258.41067","1815025.05787","1825817.29255","Mapping"
"Mixed","Female","ball","9","M_cling.wav","None","734.719810076","244","1823525.4955","1815792.32774","1816558.44533","1817325.26041","1818092.0455","1818858.56037","1819625.15439","1820391.80005","1824292.47383","1825058.97077","1825808.35466","1826575.10234","1827341.86919","1813491.69638","1814258.41067","1815025.05787","1826583.82969","Mapping"
"Mixed","Female","ball","9","F_lash.wav","None","733.094486874","244","1823525.4955","1815792.32774","1816558.44533","1817325.26041","1818092.0455","1818858.56037","1819625.15439","1820391.80005","1824292.47383","1825058.97077","1825808.35466","1826575.10234","1827341.86919","1828108.49722","1814258.41067","1815025.05787","1827350.95023","Mapping"
"Mixed","Female","ball","9","F_ball.wav","None","731.311175972","244","1823525.4955","1815792.32774","1816558.44533","1817325.26041","1818092.0455","1818858.56037","1819625.15439","1820391.80005","1824292.47383","1825058.97077","1825808.35466","1826575.10234","1827341.86919","1828108.49722","1828874.8504","1815025.05787","1828118.46837","Mapping"
"Mixed","Female","ball","9","M_jaw.wav","space","390.515741426","244","1823525.4955","1815792.32774","1816558.44533","1817325.26041","1818092.0455","1818858.56037","1819625.15439","1820391.80005","1824292.47383","1825058.97077","1825808.35466","1826575.10234","1827341.86919","1828108.49722","1828874.8504","1829641.69856","1828878.24234","Mapping"
"Mixed","Female","ball","9","F_ball.wav","None","729.264758062","244","1823525.4955","1830408.17912","1816558.44533","1817325.26041","1818092.0455","1818858.56037","1819625.15439","1820391.80005","1824292.47383","1825058.97077","1825808.35466","1826575.10234","1827341.86919","1828108.49722","1828874.8504","1829641.69856","1829650.56348","Mapping"
"Mixed","Female","ball","9","M_cave.wav","space","467.729892582","244","1823525.4955","1830408.17912","1831174.91721","1817325.26041","1818092.0455","1818858.56037","1819625.15439","1820391.80005","1824292.47383","1825058.97077","1825808.35466","1826575.10234","1827341.86919","1828108.49722","1828874.8504","1829641.69856","1830417.05671","Mapping"
"Mixed","Female","ball","9","M_knife.wav","None","728.049707599","244","1823525.4955","1830408.17912","1831174.91721","1831941.81577","1818092.0455","1818858.56037","1819625.15439","1820391.80005","1824292.47383","1825058.97077","1825808.35466","1826575.10234","1827341.86919","1828108.49722","1828874.8504","1829641.69856","1831183.99052","Mapping"
"Mixed","Female","ball","9","F_jaw.wav","None","726.438605692","244","1823525.4955","1830408.17912","1831174.91721","1831941.81577","1832708.18378","1818858.56037","1819625.15439","1820391.80005","1824292.47383","1825058.97077","1825808.35466","1826575.10234","1827341.86919","1828108.49722","1828874.8504","1829641.69856","1831950.7011","Mapping"
"Mixed","Female","ball","9","M_jaw.wav","space","415.619986597","244","1823525.4955","1830408.17912","1831174.91721","1831941.81577","1832708.18378","1833475.34236","1819625.15439","1820391.80005","1824292.47383","1825058.97077","1825808.35466","1826575.10234","1827341.86919","1828108.49722","1828874.8504","1829641.69856","1832717.02923","Mapping"
"Mixed","Female","ball","9","F_ball.wav","None","722.287646495","244","1823525.4955","1830408.17912","1831174.91721","1831941.81577","1832708.18378","1833475.34236","1834242.05201","1820391.80005","1824292.47383","1825058.97077","1825808.35466","1826575.10234","1827341.86919","1828108.49722","1828874.8504","1829641.69856","1833484.52078","Mapping"
"Mixed","Female","ball","9","M_bluff.wav","space","497.121133842","244","1823525.4955","1830408.17912","1831174.91721","1831941.81577","1832708.18378","1833475.34236","1834242.05201","1834991.83474","1824292.47383","1825058.97077","1825808.35466","1826575.10234","1827341.86919","1828108.49722","1828874.8504","1829641.69856","1834251.52476","Mapping"
"Mixed","Female","tile","33","M_jolt.wav","None","734.371062834","244","1838125.55524","1830408.17912","1831174.91721","1831941.81577","1832708.18378","1833475.34236","1834242.05201","1834991.83474","1824292.47383","1825058.97077","1825808.35466","1826575.10234","1827341.86919","1828108.49722","1828874.8504","1829641.69856","1835000.70213","Mapping"
"Mixed","Female","tile","33","F_tile.wav","None","722.055766732","244","1838125.55524","1830408.17912","1831174.91721","1831941.81577","1832708.18378","1833475.34236","1834242.05201","1834991.83474","1838892.30725","1825058.97077","1825808.35466","1826575.10234","1827341.86919","1828108.49722","1828874.8504","1829641.69856","1838135.0045","Mapping"
"Mixed","Female","tile","33","M_jolt.wav","space","350.979908835","244","1838125.55524","1830408.17912","1831174.91721","1831941.81577","1832708.18378","1833475.34236","1834242.05201","1834991.83474","1838892.30725","1839641.37949","1825808.35466","1826575.10234","1827341.86919","1828108.49722","1828874.8504","1829641.69856","1838901.54596","Mapping"
"Mixed","Female","tile","33","M_depth.wav","None","736.248980742","244","1838125.55524","1830408.17912","1831174.91721","1831941.81577","1832708.18378","1833475.34236","1834242.05201","1834991.83474","1838892.30725","1839641.37949","1840407.92219","1826575.10234","1827341.86919","1828108.49722","1828874.8504","1829641.69856","1839650.32666","Mapping"
"Mixed","Female","tile","33","F_jaw.wav","None","735.583640169","244","1838125.55524","1830408.17912","1831174.91721","1831941.81577","1832708.18378","1833475.34236","1834242.05201","1834991.83474","1838892.30725","1839641.37949","1840407.92219","1841175.01893","1827341.86919","1828108.49722","1828874.8504","1829641.69856","1840416.89934","Mapping"
"Mixed","Female","tile","33","M_romp.wav","None","732.774801552","244","1838125.55524","1830408.17912","1831174.91721","1831941.81577","1832708.18378","1833475.34236","1834242.05201","1834991.83474","1838892.30725","1839641.37949","1840407.92219","1841175.01893","1841941.81824","1828108.49722","1828874.8504","1829641.69856","1841184.30309","Mapping"
"Mixed","Female","tile","33","M_dime.wav","None","736.722015776","244","1838125.55524","1830408.17912","1831174.91721","1831941.81577","1832708.18378","1833475.34236","1834242.05201","1834991.83474","1838892.30725","1839641.37949","1840407.92219","1841175.01893","1841941.81824","1842708.34795","1828874.8504","1829641.69856","1841945.40094","Mapping"
"Mixed","Female","tile","33","F_tile.wav","None","730.421993881","244","1838125.55524","1830408.17912","1831174.91721","1831941.81577","1832708.18378","1833475.34236","1834242.05201","1834991.83474","1838892.30725","1839641.37949","1840407.92219","1841175.01893","1841941.81824","1842708.34795","1843474.85541","1829641.69856","1842717.23143","Mapping"
"Mixed","Female","tile","33","M_done.wav","space","392.512072343","244","1838125.55524","1830408.17912","1831174.91721","1831941.81577","1832708.18378","1833475.34236","1834242.05201","1834991.83474","1838892.30725","1839641.37949","1840407.92219","1841175.01893","1841941.81824","1842708.34795","1843474.85541","1844242.29687","1843483.94015","Mapping"
"Mixed","Female","tile","33","F_knife.wav","None","724.250896834","244","1838125.55524","1845008.00233","1831174.91721","1831941.81577","1832708.18378","1833475.34236","1834242.05201","1834991.83474","1838892.30725","1839641.37949","1840407.92219","1841175.01893","1841941.81824","1842708.34795","1843474.85541","1844242.29687","1844251.59093","Mapping"
"Mixed","Female","tile","33","F_tile.wav","None","724.959521554","244","1838125.55524","1845008.00233","1845775.12906","1831941.81577","1832708.18378","1833475.34236","1834242.05201","1834991.83474","1838892.30725","1839641.37949","1840407.92219","1841175.01893","1841941.81824","1842708.34795","1843474.85541","1844242.29687","1845017.1149","Mapping"
"Mixed","Female","tile","33","F_knife.wav","space","492.024104111","244","1838125.55524","1845008.00233","1845775.12906","1846541.68598","1832708.18378","1833475.34236","1834242.05201","1834991.83474","1838892.30725","1839641.37949","1840407.92219","1841175.01893","1841941.81824","1842708.34795","1843474.85541","1844242.29687","1845784.35324","Mapping"
"Mixed","Female","tile","33","F_tile.wav","None","722.409461159","244","1838125.55524","1845008.00233","1845775.12906","1846541.68598","1847308.29824","1833475.34236","1834242.05201","1834991.83474","1838892.30725","1839641.37949","1840407.92219","1841175.01893","1841941.81824","1842708.34795","1843474.85541","1844242.29687","1846550.61861","Mapping"
"Mixed","Female","tile","33","M_depth.wav","space","478.59764006","244","1838125.55524","1845008.00233","1845775.12906","1846541.68598","1847308.29824","1848058.09643","1834242.05201","1834991.83474","1838892.30725","1839641.37949","1840407.92219","1841175.01893","1841941.81824","1842708.34795","1843474.85541","1844242.29687","1847317.83129","Mapping"
"Mixed","Female","tile","33","M_cling.wav","None","736.378524452","244","1838125.55524","1845008.00233","1845775.12906","1846541.68598","1847308.29824","1848058.09643","1848824.18959","1834991.83474","1838892.30725","1839641.37949","1840407.92219","1841175.01893","1841941.81824","1842708.34795","1843474.85541","1844242.29687","1848067.10975","Mapping"
"Mixed","Female","tile","33","F_cave.wav","None","736.700064503","244","1838125.55524","1845008.00233","1845775.12906","1846541.68598","1847308.29824","1848058.09643","1848824.18959","1849591.19172","1838892.30725","1839641.37949","1840407.92219","1841175.01893","1841941.81824","1842708.34795","1843474.85541","1844242.29687","1848833.0675","Mapping"
"Mixed","Female","cave","22","F_tile.wav","None","736.489517614","244","1852725.05691","1845008.00233","1845775.12906","1846541.68598","1847308.29824","1848058.09643","1848824.18959","1849591.19172","1838892.30725","1839641.37949","1840407.92219","1841175.01893","1841941.81824","1842708.34795","1843474.85541","1844242.29687","1849600.10704","Mapping"
"Mixed","Female","cave","22","F_cave.wav","None","720.678709447","244","1852725.05691","1845008.00233","1845775.12906","1846541.68598","1847308.29824","1848058.09643","1848824.18959","1849591.19172","1853474.69309","1839641.37949","1840407.92219","1841175.01893","1841941.81824","1842708.34795","1843474.85541","1844242.29687","1852734.36055","Mapping"
"Mixed","Female","cave","22","M_priest.wav","space","568.644643761","244","1852725.05691","1845008.00233","1845775.12906","1846541.68598","1847308.29824","1848058.09643","1848824.18959","1849591.19172","1853474.69309","1854241.05307","1840407.92219","1841175.01893","1841941.81824","1842708.34795","1843474.85541","1844242.29687","1853483.63809","Mapping"
"Mixed","Female","cave","22","M_greet.wav","None","734.878416173","244","1852725.05691","1845008.00233","1845775.12906","1846541.68598","1847308.29824","1848058.09643","1848824.18959","1849591.19172","1853474.69309","1854241.05307","1855007.89721","1841175.01893","1841941.81824","1842708.34795","1843474.85541","1844242.29687","1854249.88924","Mapping"
"Mixed","Female","cave","22","M_knife.wav","None","734.038083348","244","1852725.05691","1845008.00233","1845775.12906","1846541.68598","1847308.29824","1848058.09643","1848824.18959","1849591.19172","1853474.69309","1854241.05307","1855007.89721","1855774.49556","1841941.81824","1842708.34795","1843474.85541","1844242.29687","1855017.27258","Mapping"
"Mixed","Female","cave","22","F_cave.wav","None","732.404412236","244","1852725.05691","1845008.00233","1845775.12906","1846541.68598","1847308.29824","1848058.09643","1848824.18959","1849591.19172","1853474.69309","1854241.05307","1855007.89721","1855774.49556","1856541.02496","1842708.34795","1843474.85541","1844242.29687","1855783.4047","Mapping"
"Mixed","Female","cave","22","F_bluff.wav","space","542.351008859","244","1852725.05691","1845008.00233","1845775.12906","1846541.68598","1847308.29824","1848058.09643","1848824.18959","1849591.19172","1853474.69309","1854241.05307","1855007.89721","1855774.49556","1856541.02496","1857307.84345","1843474.85541","1844242.29687","1856549.92266","Mapping"
"Mixed","Female","cave","22","F_reek.wav","None","724.021180999","244","1852725.05691","1845008.00233","1845775.12906","1846541.68598","1847308.29824","1848058.09643","1848824.18959","1849591.19172","1853474.69309","1854241.05307","1855007.89721","1855774.49556","1856541.02496","1857307.84345","1858074.33111","1844242.29687","1857323.29469","Mapping"
"Mixed","Female","cave","22","F_dime.wav","None","730.615536217","244","1852725.05691","1845008.00233","1845775.12906","1846541.68598","1847308.29824","1848058.09643","1848824.18959","1849591.19172","1853474.69309","1854241.05307","1855007.89721","1855774.49556","1856541.02496","1857307.84345","1858074.33111","1858841.04355","1858083.33825","Mapping"
"Mixed","Female","cave","22","M_lash.wav","None","737.728374545","244","1852725.05691","1859608.08989","1845775.12906","1846541.68598","1847308.29824","1848058.09643","1848824.18959","1849591.19172","1853474.69309","1854241.05307","1855007.89721","1855774.49556","1856541.02496","1857307.84345","1858074.33111","1858841.04355","1858844.32047","Mapping"
"Mixed","Female","cave","22","M_tile.wav","None","729.62154448","244","1852725.05691","1859608.08989","1860374.70493","1846541.68598","1847308.29824","1848058.09643","1848824.18959","1849591.19172","1853474.69309","1854241.05307","1855007.89721","1855774.49556","1856541.02496","1857307.84345","1858074.33111","1858841.04355","1859617.05127","Mapping"
"Mixed","Female","cave","22","M_knife.wav","None","729.163658805","244","1852725.05691","1859608.08989","1860374.70493","1861141.44798","1847308.29824","1848058.09643","1848824.18959","1849591.19172","1853474.69309","1854241.05307","1855007.89721","1855774.49556","1856541.02496","1857307.84345","1858074.33111","1858841.04355","1860383.62427","Mapping"
"Mixed","Female","cave","22","F_cave.wav","None","726.853516418","244","1852725.05691","1859608.08989","1860374.70493","1861141.44798","1861908.05282","1848058.09643","1848824.18959","1849591.19172","1853474.69309","1854241.05307","1855007.89721","1855774.49556","1856541.02496","1857307.84345","1858074.33111","1858841.04355","1861150.4007","Mapping"
"Mixed","Female","cave","22","M_lash.wav","space","407.241083682","244","1852725.05691","1859608.08989","1860374.70493","1861141.44798","1861908.05282","1862674.56398","1848824.18959","1849591.19172","1853474.69309","1854241.05307","1855007.89721","1855774.49556","1856541.02496","1857307.84345","1858074.33111","1858841.04355","1861916.89703","Mapping"
"Mixed","Female","cave","22","F_cave.wav","None","722.898572683","244","1852725.05691","1859608.08989","1860374.70493","1861141.44798","1861908.05282","1862674.56398","1863441.62733","1849591.19172","1853474.69309","1854241.05307","1855007.89721","1855774.49556","1856541.02496","1857307.84345","1858074.33111","1858841.04355","1862683.6648","Mapping"
"Mixed","Female","cave","22","M_jolt.wav","space","625.124403741","244","1852725.05691","1859608.08989","1860374.70493","1861141.44798","1861908.05282","1862674.56398","1863441.62733","1864208.05625","1853474.69309","1854241.05307","1855007.89721","1855774.49556","1856541.02496","1857307.84345","1858074.33111","1858841.04355","1863450.96869","Mapping"
"Mixed","Male","ball","2","M_jolt.wav","None","719.81302416","244","1867324.81149","1859608.08989","1860374.70493","1861141.44798","1861908.05282","1862674.56398","1863441.62733","1864208.05625","1853474.69309","1854241.05307","1855007.89721","1855774.49556","1856541.02496","1857307.84345","1858074.33111","1858841.04355","1864217.30207","Mapping"
"Mixed","Male","ball","2","F_gnash.wav","None","720.533088781","244","1867324.81149","1859608.08989","1860374.70493","1861141.44798","1861908.05282","1862674.56398","1863441.62733","1864208.05625","1868091.59132","1854241.05307","1855007.89721","1855774.49556","1856541.02496","1857307.84345","1858074.33111","1858841.04355","1867334.44192","Mapping"
"Mixed","Male","ball","2","F_lash.wav","None","720.554112457","244","1867324.81149","1859608.08989","1860374.70493","1861141.44798","1861908.05282","1862674.56398","1863441.62733","1864208.05625","1868091.59132","1868857.86875","1855007.89721","1855774.49556","1856541.02496","1857307.84345","1858074.33111","1858841.04355","1868100.65133","Mapping"
"Mixed","Male","ball","2","M_ball.wav","None","727.152178064","244","1867324.81149","1859608.08989","1860374.70493","1861141.44798","1861908.05282","1862674.56398","1863441.62733","1864208.05625","1868091.59132","1868857.86875","1869607.7869","1855774.49556","1856541.02496","1857307.84345","1858074.33111","1858841.04355","1868861.37447","Mapping"
"Mixed","Male","ball","2","F_depth.wav","space","419.191246387","244","1867324.81149","1859608.08989","1860374.70493","1861141.44798","1861908.05282","1862674.56398","1863441.62733","1864208.05625","1868091.59132","1868857.86875","1869607.7869","1870373.8207","1856541.02496","1857307.84345","1858074.33111","1858841.04355","1869616.78384","Mapping"
"Mixed","Male","ball","2","F_gnash.wav","None","736.397383735","244","1867324.81149","1859608.08989","1860374.70493","1861141.44798","1861908.05282","1862674.56398","1863441.62733","1864208.05625","1868091.59132","1868857.86875","1869607.7869","1870373.8207","1871140.63732","1857307.84345","1858074.33111","1858841.04355","1870382.66058","Mapping"
"Mixed","Male","ball","2","M_gnash.wav","None","736.267222092","244","1867324.81149","1859608.08989","1860374.70493","1861141.44798","1861908.05282","1862674.56398","1863441.62733","1864208.05625","1868091.59132","1868857.86875","1869607.7869","1870373.8207","1871140.63732","1871907.60359","1858074.33111","1858841.04355","1871149.85285","Mapping"
"Mixed","Male","ball","2","F_gnash.wav","None","734.926647041","244","1867324.81149","1859608.08989","1860374.70493","1861141.44798","1861908.05282","1862674.56398","1863441.62733","1864208.05625","1868091.59132","1868857.86875","1869607.7869","1870373.8207","1871140.63732","1871907.60359","1872674.11661","1858841.04355","1871916.55663","Mapping"
"Mixed","Male","ball","2","M_ball.wav","None","739.548477344","244","1867324.81149","1859608.08989","1860374.70493","1861141.44798","1861908.05282","1862674.56398","1863441.62733","1864208.05625","1868091.59132","1868857.86875","1869607.7869","1870373.8207","1871140.63732","1871907.60359","1872674.11661","1873440.90819","1872677.69405","Mapping"
"Mixed","Male","ball","2","M_tile.wav","None","732.306404039","244","1867324.81149","1874207.37823","1860374.70493","1861141.44798","1861908.05282","1862674.56398","1863441.62733","1864208.05625","1868091.59132","1868857.86875","1869607.7869","1870373.8207","1871140.63732","1871907.60359","1872674.11661","1873440.90819","1873449.62564","Mapping"
"Mixed","Male","ball","2","F_bluff.wav","space","179.742786568","244","1867324.81149","1874207.37823","1874974.18558","1861141.44798","1861908.05282","1862674.56398","1863441.62733","1864208.05625","1868091.59132","1868857.86875","1869607.7869","1870373.8207","1871140.63732","1871907.60359","1872674.11661","1873440.90819","1874216.18287","Mapping"
"Mixed","Male","ball","2","M_ball.wav","None","729.278053157","244","1867324.81149","1874207.37823","1874974.18558","1875740.64697","1861908.05282","1862674.56398","1863441.62733","1864208.05625","1868091.59132","1868857.86875","1869607.7869","1870373.8207","1871140.63732","1871907.60359","1872674.11661","1873440.90819","1874983.0267","Mapping"
"Mixed","Male","ball","2","M_done.wav","space","462.032139767","244","1867324.81149","1874207.37823","1874974.18558","1875740.64697","1876507.52141","1862674.56398","1863441.62733","1864208.05625","1868091.59132","1868857.86875","1869607.7869","1870373.8207","1871140.63732","1871907.60359","1872674.11661","1873440.90819","1875749.87177","Mapping"
"Mixed","Male","ball","2","M_ball.wav","None","725.978247356","244","1867324.81149","1874207.37823","1874974.18558","1875740.64697","1876507.52141","1877274.32722","1863441.62733","1864208.05625","1868091.59132","1868857.86875","1869607.7869","1870373.8207","1871140.63732","1871907.60359","1872674.11661","1873440.90819","1876516.73663","Mapping"
"Mixed","Male","ball","2","F_romp.wav","None","724.078068975","244","1867324.81149","1874207.37823","1874974.18558","1875740.64697","1876507.52141","1877274.32722","1878040.72739","1864208.05625","1868091.59132","1868857.86875","1869607.7869","1870373.8207","1871140.63732","1871907.60359","1872674.11661","1873440.90819","1877283.75391","Mapping"
"Mixed","Male","ball","2","F_cave.wav","None","724.475974683","244","1867324.81149","1874207.37823","1874974.18558","1875740.64697","1876507.52141","1877274.32722","1878040.72739","1878807.89616","1868091.59132","1868857.86875","1869607.7869","1870373.8207","1871140.63732","1871907.60359","1872674.11661","1873440.90819","1878049.43927","Mapping"
"Mixed","Female","done","48","M_cave.wav","None","722.979267128","244","1881941.2373","1874207.37823","1874974.18558","1875740.64697","1876507.52141","1877274.32722","1878040.72739","1878807.89616","1868091.59132","1868857.86875","1869607.7869","1870373.8207","1871140.63732","1871907.60359","1872674.11661","1873440.90819","1878817.29626","Mapping"
"Mixed","Female","done","48","F_jolt.wav","None","721.663116943","244","1881941.2373","1874207.37823","1874974.18558","1875740.64697","1876507.52141","1877274.32722","1878040.72739","1878807.89616","1882707.51937","1868857.86875","1869607.7869","1870373.8207","1871140.63732","1871907.60359","1872674.11661","1873440.90819","1881950.64699","Mapping"
"Mixed","Female","done","48","M_gnash.wav","None","722.55353583","244","1881941.2373","1874207.37823","1874974.18558","1875740.64697","1876507.52141","1877274.32722","1878040.72739","1878807.89616","1882707.51937","1883474.48564","1869607.7869","1870373.8207","1871140.63732","1871907.60359","1872674.11661","1873440.90819","1882716.44736","Mapping"
"Mixed","Female","done","48","F_done.wav","None","720.805779565","244","1881941.2373","1874207.37823","1874974.18558","1875740.64697","1876507.52141","1877274.32722","1878040.72739","1878807.89616","1882707.51937","1883474.48564","1884241.10625","1870373.8207","1871140.63732","1871907.60359","1872674.11661","1873440.90819","1883483.74877","Mapping"
"Mixed","Female","done","48","M_ball.wav","space","417.479354423","244","1881941.2373","1874207.37823","1874974.18558","1875740.64697","1876507.52141","1877274.32722","1878040.72739","1878807.89616","1882707.51937","1883474.48564","1884241.10625","1884990.47932","1871140.63732","1871907.60359","1872674.11661","1873440.90819","1884250.24633","Mapping"
"Mixed","Female","done","48","F_done.wav","None","740.795990918","244","1881941.2373","1874207.37823","1874974.18558","1875740.64697","1876507.52141","1877274.32722","1878040.72739","1878807.89616","1882707.51937","1883474.48564","1884241.10625","1884990.47932","1885757.05417","1871907.60359","1872674.11661","1873440.90819","1884993.98813","Mapping"
"Mixed","Female","done","48","M_greet.wav","space","397.905908059","244","1881941.2373","1874207.37823","1874974.18558","1875740.64697","1876507.52141","1877274.32722","1878040.72739","1878807.89616","1882707.51937","1883474.48564","1884241.10625","1884990.47932","1885757.05417","1886523.93727","1872674.11661","1873440.90819","1885765.80377","Mapping"
"Mixed","Female","done","48","M_jaw.wav","None","731.976207346","244","1881941.2373","1874207.37823","1874974.18558","1875740.64697","1876507.52141","1877274.32722","1878040.72739","1878807.89616","1882707.51937","1883474.48564","1884241.10625","1884990.47932","1885757.05417","1886523.93727","1887290.80244","1873440.90819","1886532.83373","Mapping"
"Mixed","Female","done","48","F_done.wav","None","730.158887338","244","1881941.2373","1874207.37823","1874974.18558","1875740.64697","1876507.52141","1877274.32722","1878040.72739","1878807.89616","1882707.51937","1883474.48564","1884241.10625","1884990.47932","1885757.05417","1886523.93727","1887290.80244","1888057.03442","1887300.01765","Mapping"
"Mixed","Female","done","48","F_reek.wav","space","489.924199879","244","1881941.2373","1888823.8495","1874974.18558","1875740.64697","1876507.52141","1877274.32722","1878040.72739","1878807.89616","1882707.51937","1883474.48564","1884241.10625","1884990.47932","1885757.05417","1886523.93727","1887290.80244","1888057.03442","1888065.73022","Mapping"
"Mixed","Female","done","48","M_priest.wav","None","727.221432608","244","1881941.2373","1888823.8495","1889591.56211","1875740.64697","1876507.52141","1877274.32722","1878040.72739","1878807.89616","1882707.51937","1883474.48564","1884241.10625","1884990.47932","1885757.05417","1886523.93727","1887290.80244","1888057.03442","1888832.66402","Mapping"
"Mixed","Female","done","48","F_done.wav","None","723.896893207","244","1881941.2373","1888823.8495","1889591.56211","1890357.0768","1876507.52141","1877274.32722","1878040.72739","1878807.89616","1882707.51937","1883474.48564","1884241.10625","1884990.47932","1885757.05417","1886523.93727","1887290.80244","1888057.03442","1889600.78938","Mapping"
"Mixed","Female","done","48","F_cling.wav","None","726.149838418","244","1881941.2373","1888823.8495","1889591.56211","1890357.0768","1891123.86839","1877274.32722","1878040.72739","1878807.89616","1882707.51937","1883474.48564","1884241.10625","1884990.47932","1885757.05417","1886523.93727","1887290.80244","1888057.03442","1890366.05117","Mapping"
"Mixed","Female","done","48","M_cave.wav","None","725.765845273","244","1881941.2373","1888823.8495","1889591.56211","1890357.0768","1891123.86839","1891891.32655","1878040.72739","1878807.89616","1882707.51937","1883474.48564","1884241.10625","1884990.47932","1885757.05417","1886523.93727","1887290.80244","1888057.03442","1891133.02672","Mapping"
"Mixed","Female","done","48","F_romp.wav","None","723.762711976","244","1881941.2373","1888823.8495","1889591.56211","1890357.0768","1891123.86839","1891891.32655","1892657.44321","1878807.89616","1882707.51937","1883474.48564","1884241.10625","1884990.47932","1885757.05417","1886523.93727","1887290.80244","1888057.03442","1891900.5869","Mapping"
"Mixed","Female","done","48","M_ball.wav","None","724.053953309","244","1881941.2373","1888823.8495","1889591.56211","1890357.0768","1891123.86839","1891891.32655","1892657.44321","1893424.51954","1882707.51937","1883474.48564","1884241.10625","1884990.47932","1885757.05417","1886523.93727","1887290.80244","1888057.03442","1892666.33132","Mapping"
"Mixed","Male","ball","1","F_knife.wav","None","721.141232178","244","1896557.61242","1888823.8495","1889591.56211","1890357.0768","1891123.86839","1891891.32655","1892657.44321","1893424.51954","1882707.51937","1883474.48564","1884241.10625","1884990.47932","1885757.05417","1886523.93727","1887290.80244","1888057.03442","1893433.87605","Mapping"
"Mixed","Male","ball","1","F_knife.wav","None","720.530924853","244","1896557.61242","1888823.8495","1889591.56211","1890357.0768","1891123.86839","1891891.32655","1892657.44321","1893424.51954","1897324.13409","1883474.48564","1884241.10625","1884990.47932","1885757.05417","1886523.93727","1887290.80244","1888057.03442","1896566.71355","Mapping"
"Mixed","Male","ball","1","M_reek.wav","None","719.77994265","244","1896557.61242","1888823.8495","1889591.56211","1890357.0768","1891123.86839","1891891.32655","1892657.44321","1893424.51954","1897324.13409","1898073.79068","1884241.10625","1884990.47932","1885757.05417","1886523.93727","1887290.80244","1888057.03442","1897333.41671","Mapping"
"Mixed","Male","ball","1","M_ball.wav","None","736.812294461","244","1896557.61242","1888823.8495","1889591.56211","1890357.0768","1891123.86839","1891891.32655","1892657.44321","1893424.51954","1897324.13409","1898073.79068","1898840.09377","1884990.47932","1885757.05417","1886523.93727","1887290.80244","1888057.03442","1898082.65622","Mapping"
"Mixed","Male","ball","1","F_cling.wav","space","376.111052465","244","1896557.61242","1888823.8495","1889591.56211","1890357.0768","1891123.86839","1891891.32655","1892657.44321","1893424.51954","1897324.13409","1898073.79068","1898840.09377","1899606.92152","1885757.05417","1886523.93727","1887290.80244","1888057.03442","1898843.35152","Mapping"
"Mixed","Male","ball","1","M_ball.wav","None","735.013215337","244","1896557.61242","1888823.8495","1889591.56211","1890357.0768","1891123.86839","1891891.32655","1892657.44321","1893424.51954","1897324.13409","1898073.79068","1898840.09377","1899606.92152","1900373.69301","1886523.93727","1887290.80244","1888057.03442","1899615.61455","Mapping"
"Mixed","Male","ball","1","F_priest.wav","None","733.264222741","244","1896557.61242","1888823.8495","1889591.56211","1890357.0768","1891123.86839","1891891.32655","1892657.44321","1893424.51954","1897324.13409","1898073.79068","1898840.09377","1899606.92152","1900373.69301","1901140.41255","1887290.80244","1888057.03442","1900382.65532","Mapping"
"Mixed","Male","ball","1","M_romp.wav","space","622.063279618","244","1896557.61242","1888823.8495","1889591.56211","1890357.0768","1891123.86839","1891891.32655","1892657.44321","1893424.51954","1897324.13409","1898073.79068","1898840.09377","1899606.92152","1900373.69301","1901140.41255","1901906.9401","1888057.03442","1901149.34024","Mapping"
"Mixed","Male","ball","1","M_ball.wav","None","729.625254404","244","1896557.61242","1888823.8495","1889591.56211","1890357.0768","1891123.86839","1891891.32655","1892657.44321","1893424.51954","1897324.13409","1898073.79068","1898840.09377","1899606.92152","1900373.69301","1901140.41255","1901906.9401","1902673.74282","1901915.65539","Mapping"
"Mixed","Male","ball","1","F_jolt.wav","None","728.150807321","244","1896557.61242","1903440.36745","1889591.56211","1890357.0768","1891123.86839","1891891.32655","1892657.44321","1893424.51954","1897324.13409","1898073.79068","1898840.09377","1899606.92152","1900373.69301","1901140.41255","1901906.9401","1902673.74282","1902682.7512","Mapping"
"Mixed","Male","ball","1","M_lash.wav","space","23.7142024562","244","1896557.61242","1903440.36745","1904207.47531","1890357.0768","1891123.86839","1891891.32655","1892657.44321","1893424.51954","1897324.13409","1898073.79068","1898840.09377","1899606.92152","1900373.69301","1901140.41255","1901906.9401","1902673.74282","1903443.74578","Mapping"
"Mixed","Male","ball","1","M_ball.wav","None","723.649554886","244","1896557.61242","1903440.36745","1904207.47531","1904973.97164","1891123.86839","1891891.32655","1892657.44321","1893424.51954","1897324.13409","1898073.79068","1898840.09377","1899606.92152","1900373.69301","1901140.41255","1901906.9401","1902673.74282","1904216.95333","Mapping"
"Mixed","Male","ball","1","F_knife.wav","space","428.449747153","244","1896557.61242","1903440.36745","1904207.47531","1904973.97164","1905740.87947","1891891.32655","1892657.44321","1893424.51954","1897324.13409","1898073.79068","1898840.09377","1899606.92152","1900373.69301","1901140.41255","1901906.9401","1902673.74282","1904982.93859","Mapping"
"Mixed","Male","ball","1","F_jaw.wav","None","719.536005054","244","1896557.61242","1903440.36745","1904207.47531","1904973.97164","1905740.87947","1906490.3623","1892657.44321","1893424.51954","1897324.13409","1898073.79068","1898840.09377","1899606.92152","1900373.69301","1901140.41255","1901906.9401","1902673.74282","1905750.34326","Mapping"
"Mixed","Male","ball","1","M_knife.wav","None","735.814902","244","1896557.61242","1903440.36745","1904207.47531","1904973.97164","1905740.87947","1906490.3623","1907256.777","1893424.51954","1897324.13409","1898073.79068","1898840.09377","1899606.92152","1900373.69301","1901140.41255","1901906.9401","1902673.74282","1906499.43406","Mapping"
"Mixed","Male","ball","1","F_greet.wav","None","734.625512268","244","1896557.61242","1903440.36745","1904207.47531","1904973.97164","1905740.87947","1906490.3623","1907256.777","1908023.28631","1897324.13409","1898073.79068","1898840.09377","1899606.92152","1900373.69301","1901140.41255","1901906.9401","1902673.74282","1907265.84752","Mapping"
"Mixed","Female","done","44","M_bluff.wav","None","734.137018677","244","1911156.9289","1903440.36745","1904207.47531","1904973.97164","1905740.87947","1906490.3623","1907256.777","1908023.28631","1897324.13409","1898073.79068","1898840.09377","1899606.92152","1900373.69301","1901140.41255","1901906.9401","1902673.74282","1908031.91193","Mapping"
"Mixed","Female","done","44","F_done.wav","None","722.26631362","244","1911156.9289","1903440.36745","1904207.47531","1904973.97164","1905740.87947","1906490.3623","1907256.777","1908023.28631","1911923.62247","1898073.79068","1898840.09377","1899606.92152","1900373.69301","1901140.41255","1901906.9401","1902673.74282","1911165.87853","Mapping"
"Mixed","Female","done","44","M_jolt.wav","space","390.843464993","244","1911156.9289","1903440.36745","1904207.47531","1904973.97164","1905740.87947","1906490.3623","1907256.777","1908023.28631","1911923.62247","1912673.11643","1898840.09377","1899606.92152","1900373.69301","1901140.41255","1901906.9401","1902673.74282","1911932.4268","Mapping"
"Mixed","Female","done","44","M_reek.wav","None","736.190547235","244","1911156.9289","1903440.36745","1904207.47531","1904973.97164","1905740.87947","1906490.3623","1907256.777","1908023.28631","1911923.62247","1912673.11643","1913440.24378","1899606.92152","1900373.69301","1901140.41255","1901906.9401","1902673.74282","1912681.90004","Mapping"
"Mixed","Female","done","44","F_cave.wav","None","735.439256299","244","1911156.9289","1903440.36745","1904207.47531","1904973.97164","1905740.87947","1906490.3623","1907256.777","1908023.28631","1911923.62247","1912673.11643","1913440.24378","1914206.366","1900373.69301","1901140.41255","1901906.9401","1902673.74282","1913449.00946","Mapping"
"Mixed","Female","done","44","F_greet.wav","None","736.284535844","244","1911156.9289","1903440.36745","1904207.47531","1904973.97164","1905740.87947","1906490.3623","1907256.777","1908023.28631","1911923.62247","1912673.11643","1913440.24378","1914206.366","1914973.63464","1901140.41255","1901906.9401","1902673.74282","1914215.17836","Mapping"
"Mixed","Female","done","44","M_park.wav","None","734.227606561","244","1911156.9289","1903440.36745","1904207.47531","1904973.97164","1905740.87947","1906490.3623","1907256.777","1908023.28631","1911923.62247","1912673.11643","1913440.24378","1914206.366","1914973.63464","1915740.25556","1901906.9401","1902673.74282","1914982.48936","Mapping"
"Mixed","Female","done","44","F_done.wav","None","733.312762808","244","1911156.9289","1903440.36745","1904207.47531","1904973.97164","1905740.87947","1906490.3623","1907256.777","1908023.28631","1911923.62247","1912673.11643","1913440.24378","1914206.366","1914973.63464","1915740.25556","1916506.58956","1902673.74282","1915749.14212","Mapping"
"Mixed","Female","done","44","F_reek.wav","space","535.909075756","244","1911156.9289","1903440.36745","1904207.47531","1904973.97164","1905740.87947","1906490.3623","1907256.777","1908023.28631","1911923.62247","1912673.11643","1913440.24378","1914206.366","1914973.63464","1915740.25556","1916506.58956","1917273.29427","1916515.22477","Mapping"
"Mixed","Female","done","44","F_done.wav","None","730.931820348","244","1911156.9289","1918039.81563","1904207.47531","1904973.97164","1905740.87947","1906490.3623","1907256.777","1908023.28631","1911923.62247","1912673.11643","1913440.24378","1914206.366","1914973.63464","1915740.25556","1916506.58956","1917273.29427","1917282.17465","Mapping"
"Mixed","Female","done","44","M_knife.wav","space","650.565956719","244","1911156.9289","1918039.81563","1918806.73707","1904973.97164","1905740.87947","1906490.3623","1907256.777","1908023.28631","1911923.62247","1912673.11643","1913440.24378","1914206.366","1914973.63464","1915740.25556","1916506.58956","1917273.29427","1918048.52999","Mapping"
"Mixed","Female","done","44","M_cling.wav","None","727.89017437","244","1911156.9289","1918039.81563","1918806.73707","1919573.39787","1905740.87947","1906490.3623","1907256.777","1908023.28631","1911923.62247","1912673.11643","1913440.24378","1914206.366","1914973.63464","1915740.25556","1916506.58956","1917273.29427","1918815.97795","Mapping"
"Mixed","Female","done","44","F_done.wav","None","727.985090576","244","1911156.9289","1918039.81563","1918806.73707","1919573.39787","1920339.99251","1906490.3623","1907256.777","1908023.28631","1911923.62247","1912673.11643","1913440.24378","1914206.366","1914973.63464","1915740.25556","1916506.58956","1917273.29427","1919582.16293","Mapping"
"Mixed","Female","done","44","M_jaw.wav","space","414.124515839","244","1911156.9289","1918039.81563","1918806.73707","1919573.39787","1920339.99251","1921106.4372","1907256.777","1908023.28631","1911923.62247","1912673.11643","1913440.24378","1914206.366","1914973.63464","1915740.25556","1916506.58956","1917273.29427","1920348.97894","Mapping"
"Mixed","Female","done","44","M_tile.wav","None","724.099092185","244","1911156.9289","1918039.81563","1918806.73707","1919573.39787","1920339.99251","1921106.4372","1921873.43129","1908023.28631","1911923.62247","1912673.11643","1913440.24378","1914206.366","1914973.63464","1915740.25556","1916506.58956","1917273.29427","1921116.92003","Mapping"
"Mixed","Female","done","44","F_romp.wav","None","724.085798021","244","1911156.9289","1918039.81563","1918806.73707","1919573.39787","1920339.99251","1921106.4372","1921873.43129","1922639.91401","1911923.62247","1912673.11643","1913440.24378","1914206.366","1914973.63464","1915740.25556","1916506.58956","1917273.29427","1921882.48481","Mapping"
"Mixed","Male","ball","4","F_reek.wav","None","724.142685533","244","1925773.69016","1918039.81563","1918806.73707","1919573.39787","1920339.99251","1921106.4372","1921873.43129","1922639.91401","1911923.62247","1912673.11643","1913440.24378","1914206.366","1914973.63464","1915740.25556","1916506.58956","1917273.29427","1922648.82902","Mapping"
"Mixed","Male","ball","4","F_gnash.wav","None","720.522886142","244","1925773.69016","1918039.81563","1918806.73707","1919573.39787","1920339.99251","1921106.4372","1921873.43129","1922639.91401","1926523.09261","1912673.11643","1913440.24378","1914206.366","1914973.63464","1915740.25556","1916506.58956","1917273.29427","1925782.87385","Mapping"
"Mixed","Male","ball","4","F_reek.wav","None","736.801782157","244","1925773.69016","1918039.81563","1918806.73707","1919573.39787","1920339.99251","1921106.4372","1921873.43129","1922639.91401","1926523.09261","1927289.73455","1913440.24378","1914206.366","1914973.63464","1915740.25556","1916506.58956","1917273.29427","1926531.96835","Mapping"
"Mixed","Male","ball","4","M_ball.wav","None","735.54561194","244","1925773.69016","1918039.81563","1918806.73707","1919573.39787","1920339.99251","1921106.4372","1921873.43129","1922639.91401","1926523.09261","1927289.73455","1928056.43307","1914206.366","1914973.63464","1915740.25556","1916506.58956","1917273.29427","1927299.18196","Mapping"
"Mixed","Male","ball","4","F_romp.wav","space","393.613656517","244","1925773.69016","1918039.81563","1918806.73707","1919573.39787","1920339.99251","1921106.4372","1921873.43129","1922639.91401","1926523.09261","1927289.73455","1928056.43307","1928823.13685","1914973.63464","1915740.25556","1916506.58956","1917273.29427","1928065.26708","Mapping"
"Mixed","Male","ball","4","M_ball.wav","None","732.584969606","244","1925773.69016","1918039.81563","1918806.73707","1919573.39787","1920339.99251","1921106.4372","1921873.43129","1922639.91401","1926523.09261","1927289.73455","1928056.43307","1928823.13685","1929589.79023","1915740.25556","1916506.58956","1917273.29427","1928832.03548","Mapping"
"Mixed","Male","ball","4","F_bluff.wav","space","301.584234461","244","1925773.69016","1918039.81563","1918806.73707","1919573.39787","1920339.99251","1921106.4372","1921873.43129","1922639.91401","1926523.09261","1927289.73455","1928056.43307","1928823.13685","1929589.79023","1930356.4631","1916506.58956","1917273.29427","1929605.33886","Mapping"
"Mixed","Male","ball","4","M_depth.wav","None","731.171429157","244","1925773.69016","1918039.81563","1918806.73707","1919573.39787","1920339.99251","1921106.4372","1921873.43129","1922639.91401","1926523.09261","1927289.73455","1928056.43307","1928823.13685","1929589.79023","1930356.4631","1931123.08587","1917273.29427","1930365.44087","Mapping"
"Mixed","Male","ball","4","M_jaw.wav","None","730.837213341","244","1925773.69016","1918039.81563","1918806.73707","1919573.39787","1920339.99251","1921106.4372","1921873.43129","1922639.91401","1926523.09261","1927289.73455","1928056.43307","1928823.13685","1929589.79023","1930356.4631","1931123.08587","1931889.84654","1931131.82929","Mapping"
"Mixed","Male","ball","4","M_bluff.wav","None","729.853732977","244","1925773.69016","1932656.25011","1918806.73707","1919573.39787","1920339.99251","1921106.4372","1921873.43129","1922639.91401","1926523.09261","1927289.73455","1928056.43307","1928823.13685","1929589.79023","1930356.4631","1931123.08587","1931889.84654","1931898.60665","Mapping"
"Mixed","Male","ball","4","M_romp.wav","None","729.857134167","244","1925773.69016","1932656.25011","1933423.12671","1919573.39787","1920339.99251","1921106.4372","1921873.43129","1922639.91401","1926523.09261","1927289.73455","1928056.43307","1928823.13685","1929589.79023","1930356.4631","1931123.08587","1931889.84654","1932665.02599","Mapping"
"Mixed","Male","ball","4","F_bluff.wav","None","730.263078585","244","1925773.69016","1932656.25011","1933423.12671","1934189.51915","1920339.99251","1921106.4372","1921873.43129","1922639.91401","1926523.09261","1927289.73455","1928056.43307","1928823.13685","1929589.79023","1930356.4631","1931123.08587","1931889.84654","1933431.99133","Mapping"
"Mixed","Male","ball","4","M_ball.wav","None","730.413027573","244","1925773.69016","1932656.25011","1933423.12671","1934189.51915","1934956.54416","1921106.4372","1921873.43129","1922639.91401","1926523.09261","1927289.73455","1928056.43307","1928823.13685","1929589.79023","1930356.4631","1931123.08587","1931889.84654","1934198.10056","Mapping"
"Mixed","Male","ball","4","F_reek.wav","space","541.323935147","244","1925773.69016","1932656.25011","1933423.12671","1934189.51915","1934956.54416","1935723.22197","1921873.43129","1922639.91401","1926523.09261","1927289.73455","1928056.43307","1928823.13685","1929589.79023","1930356.4631","1931123.08587","1931889.84654","1934965.45484","Mapping"
"Mixed","Male","ball","4","M_ball.wav","None","727.080140729","244","1925773.69016","1932656.25011","1933423.12671","1934189.51915","1934956.54416","1935723.22197","1936490.05807","1922639.91401","1926523.09261","1927289.73455","1928056.43307","1928823.13685","1929589.79023","1930356.4631","1931123.08587","1931889.84654","1935732.33268","Mapping"
