"Condition","Talker","Target","Trial","current_stimulus","response_response","response_time_response","subject_nr","time_Audio1","time_Audio10","time_Audio11","time_Audio12","time_Audio13","time_Audio14","time_Audio15","time_Audio16","time_Audio2","time_Audio3","time_Audio4","time_Audio5","time_Audio6","time_Audio7","time_Audio8","time_Audio9","time_response","title"
"Blocked","Female","tile","16","F_bluff.wav","NA","NA","302","30426.6293352","NA","NA","NA","NA","NA","NA","NA","NA","NA","NA","NA","NA","NA","NA","NA","NA","Mapping"
"Blocked","Female","tile","16","F_knife.wav","None","716.567942407","302","30426.6293352","NA","NA","NA","NA","NA","NA","NA","31193.6691841","NA","NA","NA","NA","NA","NA","NA","30442.1352986","Mapping"
"Blocked","Female","tile","16","F_jolt.wav","None","721.624779515","302","30426.6293352","NA","NA","NA","NA","NA","NA","NA","31193.6691841","31960.3429721","NA","NA","NA","NA","NA","NA","31203.3221894","Mapping"
"Blocked","Female","tile","16","F_greet.wav","None","720.744872","302","30426.6293352","NA","NA","NA","NA","NA","NA","NA","31193.6691841","31960.3429721","32726.8055947","NA","NA","NA","NA","NA","31970.6347296","Mapping"
"Blocked","Female","tile","16","F_park.wav","None","720.309865661","302","30426.6293352","NA","NA","NA","NA","NA","NA","NA","31193.6691841","31960.3429721","32726.8055947","33492.8301186","NA","NA","NA","NA","32737.2961505","Mapping"
"Blocked","Female","tile","16","F_cling.wav","None","725.20376835","302","30426.6293352","NA","NA","NA","NA","NA","NA","NA","31193.6691841","31960.3429721","32726.8055947","33492.8301186","34259.8931557","NA","NA","NA","33502.3313202","Mapping"
"Blocked","Female","tile","16","F_cling.wav","None","725.792743266","302","30426.6293352","NA","NA","NA","NA","NA","NA","NA","31193.6691841","31960.3429721","32726.8055947","33492.8301186","34259.8931557","35026.7917127","NA","NA","34269.8429679","Mapping"
"Blocked","Female","tile","16","F_tile.wav","None","721.911073662","302","30426.6293352","NA","NA","NA","NA","NA","NA","NA","31193.6691841","31960.3429721","32726.8055947","33492.8301186","34259.8931557","35026.7917127","35793.2793782","NA","35037.0309106","Mapping"
"Blocked","Female","tile","16","F_priest.wav","space","639.349771664","302","30426.6293352","NA","NA","NA","NA","NA","NA","NA","31193.6691841","31960.3429721","32726.8055947","33492.8301186","34259.8931557","35026.7917127","35793.2793782","36560.2598661","35803.8490824","Mapping"
"Blocked","Female","tile","16","F_tile.wav","None","720.871324651","302","30426.6293352","37309.5732699","NA","NA","NA","NA","NA","NA","31193.6691841","31960.3429721","32726.8055947","33492.8301186","34259.8931557","35026.7917127","35793.2793782","36560.2598661","36570.8051454","Mapping"
"Blocked","Female","tile","16","F_romp.wav","space","588.439457584","302","30426.6293352","37309.5732699","38093.5363322","NA","NA","NA","NA","NA","31193.6691841","31960.3429721","32726.8055947","33492.8301186","34259.8931557","35026.7917127","35793.2793782","36560.2598661","37318.7331441","Mapping"
"Blocked","Female","tile","16","F_tile.wav","None","718.46070094","302","30426.6293352","37309.5732699","38093.5363322","38843.2170334","NA","NA","NA","NA","31193.6691841","31960.3429721","32726.8055947","33492.8301186","34259.8931557","35026.7917127","35793.2793782","36560.2598661","38103.8249978","Mapping"
"Blocked","Female","tile","16","F_dime.wav","space","406.038091052","302","30426.6293352","37309.5732699","38093.5363322","38843.2170334","39610.1344503","NA","NA","NA","31193.6691841","31960.3429721","32726.8055947","33492.8301186","34259.8931557","35026.7917127","35793.2793782","36560.2598661","38853.0805861","Mapping"
"Blocked","Female","tile","16","F_knife.wav","None","731.875107624","302","30426.6293352","37309.5732699","38093.5363322","38843.2170334","39610.1344503","40376.6879695","NA","NA","31193.6691841","31960.3429721","32726.8055947","33492.8301186","34259.8931557","35026.7917127","35793.2793782","36560.2598661","39619.8829901","Mapping"
"Blocked","Female","tile","16","F_tile.wav","None","728.271075524","302","30426.6293352","37309.5732699","38093.5363322","38843.2170334","39610.1344503","40376.6879695","41143.127095","NA","31193.6691841","31960.3429721","32726.8055947","33492.8301186","34259.8931557","35026.7917127","35793.2793782","36560.2598661","40386.8143195","Mapping"
"Blocked","Female","tile","16","F_priest.wav","space","417.970630806","302","30426.6293352","37309.5732699","38093.5363322","38843.2170334","39610.1344503","40376.6879695","41143.127095","41910.1057281","31193.6691841","31960.3429721","32726.8055947","33492.8301186","34259.8931557","35026.7917127","35793.2793782","36560.2598661","41153.1124618","Mapping"
"Blocked","Female","cave","12","F_reek.wav","None","721.13906825","302","45043.4413077","37309.5732699","38093.5363322","38843.2170334","39610.1344503","40376.6879695","41143.127095","41910.1057281","31193.6691841","31960.3429721","32726.8055947","33492.8301186","34259.8931557","35026.7917127","35793.2793782","36560.2598661","41920.4701409","Mapping"
"Blocked","Female","cave","12","F_cave.wav","None","722.844776697","302","45043.4413077","37309.5732699","38093.5363322","38843.2170334","39610.1344503","40376.6879695","41143.127095","41910.1057281","45810.3868589","31960.3429721","32726.8055947","33492.8301186","34259.8931557","35026.7917127","35793.2793782","36560.2598661","45053.1564574","Mapping"
"Blocked","Female","cave","12","F_jaw.wav","space","582.894126885","302","45043.4413077","37309.5732699","38093.5363322","38843.2170334","39610.1344503","40376.6879695","41143.127095","41910.1057281","45810.3868589","46577.0022133","32726.8055947","33492.8301186","34259.8931557","35026.7917127","35793.2793782","36560.2598661","45820.1406552","Mapping"
"Blocked","Female","cave","12","F_jaw.wav","None","721.843364649","302","45043.4413077","37309.5732699","38093.5363322","38843.2170334","39610.1344503","40376.6879695","41143.127095","41910.1057281","45810.3868589","46577.0022133","47344.1051338","33492.8301186","34259.8931557","35026.7917127","35793.2793782","36560.2598661","46587.3950706","Mapping"
"Blocked","Female","cave","12","F_romp.wav","None","717.364991084","302","45043.4413077","37309.5732699","38093.5363322","38843.2170334","39610.1344503","40376.6879695","41143.127095","41910.1057281","45810.3868589","46577.0022133","47344.1051338","48093.212937","34259.8931557","35026.7917127","35793.2793782","36560.2598661","47355.0681062","Mapping"
"Blocked","Female","cave","12","F_cave.wav","None","732.593007851","302","45043.4413077","37309.5732699","38093.5363322","38843.2170334","39610.1344503","40376.6879695","41143.127095","41910.1057281","45810.3868589","46577.0022133","47344.1051338","48093.212937","48860.0682095","35026.7917127","35793.2793782","36560.2598661","48103.0829824","Mapping"
"Blocked","Female","cave","12","F_gnash.wav","space","501.072367188","302","45043.4413077","37309.5732699","38093.5363322","38843.2170334","39610.1344503","40376.6879695","41143.127095","41910.1057281","45810.3868589","46577.0022133","47344.1051338","48093.212937","48860.0682095","49626.4569401","35793.2793782","36560.2598661","48869.8717826","Mapping"
"Blocked","Female","cave","12","F_romp.wav","None","729.079563636","302","45043.4413077","37309.5732699","38093.5363322","38843.2170334","39610.1344503","40376.6879695","41143.127095","41910.1057281","45810.3868589","46577.0022133","47344.1051338","48093.212937","48860.0682095","49626.4569401","50393.0769316","36560.2598661","49636.0530579","Mapping"
"Blocked","Female","cave","12","F_cad.wav","None","725.57292087","302","45043.4413077","37309.5732699","38093.5363322","38843.2170334","39610.1344503","40376.6879695","41143.127095","41910.1057281","45810.3868589","46577.0022133","47344.1051338","48093.212937","48860.0682095","49626.4569401","50393.0769316","51160.0617478","50402.7998107","Mapping"
"Blocked","Female","cave","12","F_cave.wav","None","724.858731031","302","45043.4413077","51926.8777557","38093.5363322","38843.2170334","39610.1344503","40376.6879695","41143.127095","41910.1057281","45810.3868589","46577.0022133","47344.1051338","48093.212937","48860.0682095","49626.4569401","50393.0769316","51160.0617478","51169.6600299","Mapping"
"Blocked","Female","cave","12","F_gnash.wav","space","489.685827401","302","45043.4413077","51926.8777557","52675.9224879","38843.2170334","39610.1344503","40376.6879695","41143.127095","41910.1057281","45810.3868589","46577.0022133","47344.1051338","48093.212937","48860.0682095","49626.4569401","50393.0769316","51160.0617478","51937.235367","Mapping"
"Blocked","Female","cave","12","F_lash.wav","None","735.645474866","302","45043.4413077","51926.8777557","52675.9224879","53442.8559812","39610.1344503","40376.6879695","41143.127095","41910.1057281","45810.3868589","46577.0022133","47344.1051338","48093.212937","48860.0682095","49626.4569401","50393.0769316","51160.0617478","52685.1219363","Mapping"
"Blocked","Female","cave","12","F_cave.wav","None","735.276013147","302","45043.4413077","51926.8777557","52675.9224879","53442.8559812","54209.5248224","40376.6879695","41143.127095","41910.1057281","45810.3868589","46577.0022133","47344.1051338","48093.212937","48860.0682095","49626.4569401","50393.0769316","51160.0617478","53451.9663877","Mapping"
"Blocked","Female","cave","12","F_park.wav","space","431.357829832","302","45043.4413077","51926.8777557","52675.9224879","53442.8559812","54209.5248224","54976.3773126","41143.127095","41910.1057281","45810.3868589","46577.0022133","47344.1051338","48093.212937","48860.0682095","49626.4569401","50393.0769316","51160.0617478","54219.5256478","Mapping"
"Blocked","Female","cave","12","F_cling.wav","None","727.276156191","302","45043.4413077","51926.8777557","52675.9224879","53442.8559812","54209.5248224","54976.3773126","55743.2548455","41910.1057281","45810.3868589","46577.0022133","47344.1051338","48093.212937","48860.0682095","49626.4569401","50393.0769316","51160.0617478","54986.269","Mapping"
"Blocked","Female","cave","12","F_gnash.wav","None","723.808469716","302","45043.4413077","51926.8777557","52675.9224879","53442.8559812","54209.5248224","54976.3773126","55743.2548455","56510.1527842","45810.3868589","46577.0022133","47344.1051338","48093.212937","48860.0682095","49626.4569401","50393.0769316","51160.0617478","55752.980507","Mapping"
"Blocked","Female","ball","5","F_depth.wav","None","720.000692178","302","59626.5877201","51926.8777557","52675.9224879","53442.8559812","54209.5248224","54976.3773126","55743.2548455","56510.1527842","45810.3868589","46577.0022133","47344.1051338","48093.212937","48860.0682095","49626.4569401","50393.0769316","51160.0617478","56520.0552926","Mapping"
"Blocked","Female","ball","5","F_dime.wav","None","722.103070468","302","59626.5877201","51926.8777557","52675.9224879","53442.8559812","54209.5248224","54976.3773126","55743.2548455","56510.1527842","60393.2142048","46577.0022133","47344.1051338","48093.212937","48860.0682095","49626.4569401","50393.0769316","51160.0617478","59636.8454685","Mapping"
"Blocked","Female","ball","5","F_cling.wav","None","717.439192813","302","59626.5877201","51926.8777557","52675.9224879","53442.8559812","54209.5248224","54976.3773126","55743.2548455","56510.1527842","60393.2142048","61142.9100554","47344.1051338","48093.212937","48860.0682095","49626.4569401","50393.0769316","51160.0617478","60404.7741904","Mapping"
"Blocked","Female","ball","5","F_park.wav","None","732.367930003","302","59626.5877201","51926.8777557","52675.9224879","53442.8559812","54209.5248224","54976.3773126","55743.2548455","56510.1527842","60393.2142048","61142.9100554","61909.3770068","48093.212937","48860.0682095","49626.4569401","50393.0769316","51160.0617478","61153.0855638","Mapping"
"Blocked","Female","ball","5","F_cad.wav","None","729.213744868","302","59626.5877201","51926.8777557","52675.9224879","53442.8559812","54209.5248224","54976.3773126","55743.2548455","56510.1527842","60393.2142048","61142.9100554","61909.3770068","62676.2239314","48860.0682095","49626.4569401","50393.0769316","51160.0617478","61919.6301172","Mapping"
"Blocked","Female","ball","5","F_jolt.wav","None","726.139016915","302","59626.5877201","51926.8777557","52675.9224879","53442.8559812","54209.5248224","54976.3773126","55743.2548455","56510.1527842","60393.2142048","61142.9100554","61909.3770068","62676.2239314","63442.9901624","49626.4569401","50393.0769316","51160.0617478","62685.9910223","Mapping"
"Blocked","Female","ball","5","F_ball.wav","None","722.265077289","302","59626.5877201","51926.8777557","52675.9224879","53442.8559812","54209.5248224","54976.3773126","55743.2548455","56510.1527842","60393.2142048","61142.9100554","61909.3770068","62676.2239314","63442.9901624","64210.1827427","50393.0769316","51160.0617478","63453.4287769","Mapping"
"Blocked","Female","ball","5","F_lash.wav","space","422.546702903","302","59626.5877201","51926.8777557","52675.9224879","53442.8559812","54209.5248224","54976.3773126","55743.2548455","56510.1527842","60393.2142048","61142.9100554","61909.3770068","62676.2239314","63442.9901624","64210.1827427","64976.428017","51160.0617478","64220.1378108","Mapping"
"Blocked","Female","ball","5","F_knife.wav","None","718.341978267","302","59626.5877201","51926.8777557","52675.9224879","53442.8559812","54209.5248224","54976.3773126","55743.2548455","56510.1527842","60393.2142048","61142.9100554","61909.3770068","62676.2239314","63442.9901624","64210.1827427","64976.428017","65725.8202597","64986.9321762","Mapping"
"Blocked","Female","ball","5","F_ball.wav","None","733.782087918","302","59626.5877201","66492.6427598","52675.9224879","53442.8559812","54209.5248224","54976.3773126","55743.2548455","56510.1527842","60393.2142048","61142.9100554","61909.3770068","62676.2239314","63442.9901624","64210.1827427","64976.428017","65725.8202597","65734.906551","Mapping"
"Blocked","Female","ball","5","F_knife.wav","space","588.91187422","302","59626.5877201","66492.6427598","67259.7475355","53442.8559812","54209.5248224","54976.3773126","55743.2548455","56510.1527842","60393.2142048","61142.9100554","61909.3770068","62676.2239314","63442.9901624","64210.1827427","64976.428017","65725.8202597","66501.7438913","Mapping"
"Blocked","Female","ball","5","F_ball.wav","None","725.373195019","302","59626.5877201","66492.6427598","67259.7475355","68026.4859404","54209.5248224","54976.3773126","55743.2548455","56510.1527842","60393.2142048","61142.9100554","61909.3770068","62676.2239314","63442.9901624","64210.1827427","64976.428017","65725.8202597","67269.6880721","Mapping"
"Blocked","Female","ball","5","F_lash.wav","space","398.109653033","302","59626.5877201","66492.6427598","67259.7475355","68026.4859404","68792.4158578","54976.3773126","55743.2548455","56510.1527842","60393.2142048","61142.9100554","61909.3770068","62676.2239314","63442.9901624","64210.1827427","64976.428017","65725.8202597","68036.5322144","Mapping"
"Blocked","Female","ball","5","F_ball.wav","None","721.671774052","302","59626.5877201","66492.6427598","67259.7475355","68026.4859404","68792.4158578","69542.5748499","55743.2548455","56510.1527842","60393.2142048","61142.9100554","61909.3770068","62676.2239314","63442.9901624","64210.1827427","64976.428017","65725.8202597","68801.5135881","Mapping"
"Blocked","Female","ball","5","F_cad.wav","space","346.827404108","302","59626.5877201","66492.6427598","67259.7475355","68026.4859404","68792.4158578","69542.5748499","70309.7226005","56510.1527842","60393.2142048","61142.9100554","61909.3770068","62676.2239314","63442.9901624","64210.1827427","64976.428017","65725.8202597","69551.7854285","Mapping"
"Blocked","Female","ball","5","F_gnash.wav","None","730.249783956","302","59626.5877201","66492.6427598","67259.7475355","68026.4859404","68792.4158578","69542.5748499","70309.7226005","71076.034965","60393.2142048","61142.9100554","61909.3770068","62676.2239314","63442.9901624","64210.1827427","64976.428017","65725.8202597","70319.5193717","Mapping"
"Blocked","Female","done","21","F_cling.wav","None","727.627686225","302","74209.9066512","66492.6427598","67259.7475355","68026.4859404","68792.4158578","69542.5748499","70309.7226005","71076.034965","60393.2142048","61142.9100554","61909.3770068","62676.2239314","63442.9901624","64210.1827427","64976.428017","65725.8202597","71086.0160035","Mapping"
"Blocked","Female","done","21","F_done.wav","None","718.642185442","302","74209.9066512","66492.6427598","67259.7475355","68026.4859404","68792.4158578","69542.5748499","70309.7226005","71076.034965","74976.2177789","61142.9100554","61909.3770068","62676.2239314","63442.9901624","64210.1827427","64976.428017","65725.8202597","74219.9557079","Mapping"
"Blocked","Female","done","21","F_depth.wav","space","463.635821361","302","74209.9066512","66492.6427598","67259.7475355","68026.4859404","68792.4158578","69542.5748499","70309.7226005","71076.034965","74976.2177789","75726.0604873","61909.3770068","62676.2239314","63442.9901624","64210.1827427","64976.428017","65725.8202597","74986.860448","Mapping"
"Blocked","Female","done","21","F_done.wav","None","732.845292892","302","74209.9066512","66492.6427598","67259.7475355","68026.4859404","68792.4158578","69542.5748499","70309.7226005","71076.034965","74976.2177789","75726.0604873","76492.4708595","62676.2239314","63442.9901624","64210.1827427","64976.428017","65725.8202597","75735.8071725","Mapping"
"Blocked","Female","done","21","F_jolt.wav","space","404.639700428","302","74209.9066512","66492.6427598","67259.7475355","68026.4859404","68792.4158578","69542.5748499","70309.7226005","71076.034965","74976.2177789","75726.0604873","76492.4708595","77259.1539226","63442.9901624","64210.1827427","64976.428017","65725.8202597","76501.8119095","Mapping"
"Blocked","Female","done","21","F_cad.wav","None","725.738328416","302","74209.9066512","66492.6427598","67259.7475355","68026.4859404","68792.4158578","69542.5748499","70309.7226005","71076.034965","74976.2177789","75726.0604873","76492.4708595","77259.1539226","78026.2939436","64210.1827427","64976.428017","65725.8202597","77269.3436532","Mapping"
"Blocked","Female","done","21","F_cling.wav","None","721.92993341","302","74209.9066512","66492.6427598","67259.7475355","68026.4859404","68792.4158578","69542.5748499","70309.7226005","71076.034965","74976.2177789","75726.0604873","76492.4708595","77259.1539226","78026.2939436","78792.9760795","64976.428017","65725.8202597","78036.5486005","Mapping"
"Blocked","Female","done","21","F_greet.wav","None","718.770492356","302","74209.9066512","66492.6427598","67259.7475355","68026.4859404","68792.4158578","69542.5748499","70309.7226005","71076.034965","74976.2177789","75726.0604873","76492.4708595","77259.1539226","78026.2939436","78792.9760795","79542.5232179","65725.8202597","78803.1821959","Mapping"
"Blocked","Female","done","21","F_done.wav","None","732.962470036","302","74209.9066512","66492.6427598","67259.7475355","68026.4859404","68792.4158578","69542.5748499","70309.7226005","71076.034965","74976.2177789","75726.0604873","76492.4708595","77259.1539226","78026.2939436","78792.9760795","79542.5232179","80309.5108168","79552.4424217","Mapping"
"Blocked","Female","done","21","F_bluff.wav","space","459.131785668","302","74209.9066512","81075.9199527","67259.7475355","68026.4859404","68792.4158578","69542.5748499","70309.7226005","71076.034965","74976.2177789","75726.0604873","76492.4708595","77259.1539226","78026.2939436","78792.9760795","79542.5232179","80309.5108168","80319.2531737","Mapping"
"Blocked","Female","done","21","F_done.wav","None","727.346957196","302","74209.9066512","81075.9199527","81842.5955954","68026.4859404","68792.4158578","69542.5748499","70309.7226005","71076.034965","74976.2177789","75726.0604873","76492.4708595","77259.1539226","78026.2939436","78792.9760795","79542.5232179","80309.5108168","81085.7630996","Mapping"
"Blocked","Female","done","21","F_jaw.wav","space","277.79428428","302","74209.9066512","81075.9199527","81842.5955954","82609.8351702","68792.4158578","69542.5748499","70309.7226005","71076.034965","74976.2177789","75726.0604873","76492.4708595","77259.1539226","78026.2939436","78792.9760795","79542.5232179","80309.5108168","81852.5633393","Mapping"
"Blocked","Female","done","21","F_romp.wav","None","717.721158173","302","74209.9066512","81075.9199527","81842.5955954","82609.8351702","83359.278427","69542.5748499","70309.7226005","71076.034965","74976.2177789","75726.0604873","76492.4708595","77259.1539226","78026.2939436","78792.9760795","79542.5232179","80309.5108168","82622.1659253","Mapping"
"Blocked","Female","done","21","F_reek.wav","None","734.834203962","302","74209.9066512","81075.9199527","81842.5955954","82609.8351702","83359.278427","84125.8254535","70309.7226005","71076.034965","74976.2177789","75726.0604873","76492.4708595","77259.1539226","78026.2939436","78792.9760795","79542.5232179","80309.5108168","83368.4843681","Mapping"
"Blocked","Female","done","21","F_reek.wav","None","731.022099033","302","74209.9066512","81075.9199527","81842.5955954","82609.8351702","83359.278427","84125.8254535","84892.4488463","71076.034965","74976.2177789","75726.0604873","76492.4708595","77259.1539226","78026.2939436","78792.9760795","79542.5232179","80309.5108168","84135.7168318","Mapping"
"Blocked","Female","done","21","F_depth.wav","None","728.054654785","302","74209.9066512","81075.9199527","81842.5955954","82609.8351702","83359.278427","84125.8254535","84892.4488463","85659.1857057","74976.2177789","75726.0604873","76492.4708595","77259.1539226","78026.2939436","78792.9760795","79542.5232179","80309.5108168","84902.3167272","Mapping"
"Blocked","Female","done","23","F_knife.wav","None","724.970651325","302","88775.9987609","81075.9199527","81842.5955954","82609.8351702","83359.278427","84125.8254535","84892.4488463","85659.1857057","74976.2177789","75726.0604873","76492.4708595","77259.1539226","78026.2939436","78792.9760795","79542.5232179","80309.5108168","85668.8291272","Mapping"
"Blocked","Female","done","23","F_jolt.wav","None","718.945175409","302","88775.9987609","81075.9199527","81842.5955954","82609.8351702","83359.278427","84125.8254535","84892.4488463","85659.1857057","89525.7406784","75726.0604873","76492.4708595","77259.1539226","78026.2939436","78792.9760795","79542.5232179","80309.5108168","88786.2475431","Mapping"
"Blocked","Female","done","23","F_done.wav","None","732.647422235","302","88775.9987609","81075.9199527","81842.5955954","82609.8351702","83359.278427","84125.8254535","84892.4488463","85659.1857057","89525.7406784","90292.3489218","76492.4708595","77259.1539226","78026.2939436","78792.9760795","79542.5232179","80309.5108168","89535.97864","Mapping"
"Blocked","Female","done","23","F_romp.wav","space","651.945796795","302","88775.9987609","81075.9199527","81842.5955954","82609.8351702","83359.278427","84125.8254535","84892.4488463","85659.1857057","89525.7406784","90292.3489218","91059.2450052","77259.1539226","78026.2939436","78792.9760795","79542.5232179","80309.5108168","90302.2505026","Mapping"
"Blocked","Female","done","23","F_done.wav","None","726.28865717","302","88775.9987609","81075.9199527","81842.5955954","82609.8351702","83359.278427","84125.8254535","84892.4488463","85659.1857057","89525.7406784","90292.3489218","91059.2450052","91826.1039876","78026.2939436","78792.9760795","79542.5232179","80309.5108168","91068.6710775","Mapping"
"Blocked","Female","done","23","F_romp.wav","space","581.254890654","302","88775.9987609","81075.9199527","81842.5955954","82609.8351702","83359.278427","84125.8254535","84892.4488463","85659.1857057","89525.7406784","90292.3489218","91059.2450052","91826.1039876","92592.7174869","78792.9760795","79542.5232179","80309.5108168","91836.9024801","Mapping"
"Blocked","Female","done","23","F_greet.wav","None","717.324180063","302","88775.9987609","81075.9199527","81842.5955954","82609.8351702","83359.278427","84125.8254535","84892.4488463","85659.1857057","89525.7406784","90292.3489218","91059.2450052","91826.1039876","92592.7174869","93342.1935155","79542.5232179","80309.5108168","92604.0848582","Mapping"
"Blocked","Female","done","23","F_gnash.wav","None","732.694107573","302","88775.9987609","81075.9199527","81842.5955954","82609.8351702","83359.278427","84125.8254535","84892.4488463","85659.1857057","89525.7406784","90292.3489218","91059.2450052","91826.1039876","92592.7174869","93342.1935155","94108.9776787","80309.5108168","93352.0978792","Mapping"
"Blocked","Female","done","23","F_bluff.wav","None","730.205263477","302","88775.9987609","81075.9199527","81842.5955954","82609.8351702","83359.278427","84125.8254535","84892.4488463","85659.1857057","89525.7406784","90292.3489218","91059.2450052","91826.1039876","92592.7174869","93342.1935155","94108.9776787","94875.6539398","94118.2358698","Mapping"
"Blocked","Female","done","23","F_done.wav","None","731.937251519","302","88775.9987609","95642.5868152","81842.5955954","82609.8351702","83359.278427","84125.8254535","84892.4488463","85659.1857057","89525.7406784","90292.3489218","91059.2450052","91826.1039876","92592.7174869","93342.1935155","94108.9776787","94875.6539398","94880.1088165","Mapping"
"Blocked","Female","done","23","F_lash.wav","space","477.6487872","302","88775.9987609","95642.5868152","96409.6149155","82609.8351702","83359.278427","84125.8254535","84892.4488463","85659.1857057","89525.7406784","90292.3489218","91059.2450052","91826.1039876","92592.7174869","93342.1935155","94108.9776787","94875.6539398","95652.502927","Mapping"
"Blocked","Female","done","23","F_depth.wav","None","718.539230991","302","88775.9987609","95642.5868152","96409.6149155","97158.9428503","83359.278427","84125.8254535","84892.4488463","85659.1857057","89525.7406784","90292.3489218","91059.2450052","91826.1039876","92592.7174869","93342.1935155","94108.9776787","94875.6539398","96420.1166015","Mapping"
"Blocked","Female","done","23","F_greet.wav","None","734.113521408","302","88775.9987609","95642.5868152","96409.6149155","97158.9428503","97925.580774","84125.8254535","84892.4488463","85659.1857057","89525.7406784","90292.3489218","91059.2450052","91826.1039876","92592.7174869","93342.1935155","94108.9776787","94875.6539398","97168.1209658","Mapping"
"Blocked","Female","done","23","F_priest.wav","None","731.77308077","302","88775.9987609","95642.5868152","96409.6149155","97158.9428503","97925.580774","98692.1757227","84892.4488463","85659.1857057","89525.7406784","90292.3489218","91059.2450052","91826.1039876","92592.7174869","93342.1935155","94108.9776787","94875.6539398","97935.281083","Mapping"
"Blocked","Female","done","23","F_done.wav","None","728.558916133","302","88775.9987609","95642.5868152","96409.6149155","97158.9428503","97925.580774","98692.1757227","99459.2226828","85659.1857057","89525.7406784","90292.3489218","91059.2450052","91826.1039876","92592.7174869","93342.1935155","94108.9776787","94875.6539398","98701.9891893","Mapping"
"Blocked","Female","done","23","F_jolt.wav","space","557.146183215","302","88775.9987609","95642.5868152","96409.6149155","97158.9428503","97925.580774","98692.1757227","99459.2226828","100226.008701","89525.7406784","90292.3489218","91059.2450052","91826.1039876","92592.7174869","93342.1935155","94108.9776787","94875.6539398","99468.8973306","Mapping"
"Blocked","Female","done","20","F_gnash.wav","None","721.153908409","302","103342.325842","95642.5868152","96409.6149155","97158.9428503","97925.580774","98692.1757227","99459.2226828","100226.008701","89525.7406784","90292.3489218","91059.2450052","91826.1039876","92592.7174869","93342.1935155","94108.9776787","94875.6539398","100235.977372","Mapping"
"Blocked","Female","done","20","F_cad.wav","None","719.201170374","302","103342.325842","95642.5868152","96409.6149155","97158.9428503","97925.580774","98692.1757227","99459.2226828","100226.008701","104091.949655","90292.3489218","91059.2450052","91826.1039876","92592.7174869","93342.1935155","94108.9776787","94875.6539398","103352.87916","Mapping"
"Blocked","Female","done","20","F_jaw.wav","None","734.01304055","302","103342.325842","95642.5868152","96409.6149155","97158.9428503","97925.580774","98692.1757227","99459.2226828","100226.008701","104091.949655","104859.090604","91059.2450052","91826.1039876","92592.7174869","93342.1935155","94108.9776787","94875.6539398","104101.567415","Mapping"
"Blocked","Female","done","20","F_done.wav","None","730.263078585","302","103342.325842","95642.5868152","96409.6149155","97158.9428503","97925.580774","98692.1757227","99459.2226828","100226.008701","104091.949655","104859.090604","105625.184692","91826.1039876","92592.7174869","93342.1935155","94108.9776787","94875.6539398","104869.014754","Mapping"
"Blocked","Female","done","20","F_greet.wav","space","431.347936392","302","103342.325842","95642.5868152","96409.6149155","97158.9428503","97925.580774","98692.1757227","99459.2226828","100226.008701","104091.949655","104859.090604","105625.184692","106392.418084","92592.7174869","93342.1935155","94108.9776787","94875.6539398","105634.576756","Mapping"
"Blocked","Female","done","20","F_done.wav","None","723.90895104","302","103342.325842","95642.5868152","96409.6149155","97158.9428503","97925.580774","98692.1757227","99459.2226828","100226.008701","104091.949655","104859.090604","105625.184692","106392.418084","107159.219869","93342.1935155","94108.9776787","94875.6539398","106402.030588","Mapping"
"Blocked","Female","done","20","F_depth.wav","space","520.515342243","302","103342.325842","95642.5868152","96409.6149155","97158.9428503","97925.580774","98692.1757227","99459.2226828","100226.008701","104091.949655","104859.090604","105625.184692","106392.418084","107159.219869","107908.473602","94108.9776787","94875.6539398","107169.378064","Mapping"
"Blocked","Female","done","20","F_cling.wav","None","734.337054193","302","103342.325842","95642.5868152","96409.6149155","97158.9428503","97925.580774","98692.1757227","99459.2226828","100226.008701","104091.949655","104859.090604","105625.184692","106392.418084","107159.219869","107908.473602","108675.394111","94875.6539398","107918.407028","Mapping"
"Blocked","Female","done","20","F_depth.wav","None","730.47331674","302","103342.325842","95642.5868152","96409.6149155","97158.9428503","97925.580774","98692.1757227","99459.2226828","100226.008701","104091.949655","104859.090604","105625.184692","106392.418084","107159.219869","107908.473602","108675.394111","109441.928771","108685.92053","Mapping"
"Blocked","Female","done","20","F_done.wav","None","728.19718346","302","103342.325842","110208.986861","96409.6149155","97158.9428503","97925.580774","98692.1757227","99459.2226828","100226.008701","104091.949655","104859.090604","105625.184692","106392.418084","107159.219869","107908.473602","108675.394111","109441.928771","109451.80469","Mapping"
"Blocked","Female","done","20","F_cad.wav","space","575.197878294","302","103342.325842","110208.986861","110975.671779","97158.9428503","97925.580774","98692.1757227","99459.2226828","100226.008701","104091.949655","104859.090604","105625.184692","106392.418084","107159.219869","107908.473602","108675.394111","109441.928771","110218.681914","Mapping"
"Blocked","Female","done","20","F_dime.wav","None","720.422404818","302","103342.325842","110208.986861","110975.671779","111725.267149","97925.580774","98692.1757227","99459.2226828","100226.008701","104091.949655","104859.090604","105625.184692","106392.418084","107159.219869","107908.473602","108675.394111","109441.928771","110986.172538","Mapping"
"Blocked","Female","done","20","F_cling.wav","None","735.548394267","302","103342.325842","110208.986861","110975.671779","111725.267149","112491.92115","98692.1757227","99459.2226828","100226.008701","104091.949655","104859.090604","105625.184692","106392.418084","107159.219869","107908.473602","108675.394111","109441.928771","111734.777626","Mapping"
"Blocked","Female","done","20","F_greet.wav","None","732.230965979","302","103342.325842","110208.986861","110975.671779","111725.267149","112491.92115","113258.991298","99459.2226828","100226.008701","104091.949655","104859.090604","105625.184692","106392.418084","107159.219869","107908.473602","108675.394111","109441.928771","112501.575701","Mapping"
"Blocked","Female","done","20","F_done.wav","None","728.884784505","302","103342.325842","110208.986861","110975.671779","111725.267149","112491.92115","113258.991298","114025.31201","100226.008701","104091.949655","104859.090604","105625.184692","106392.418084","107159.219869","107908.473602","108675.394111","109441.928771","113268.564846","Mapping"
"Blocked","Female","done","20","F_bluff.wav","space","500.337462407","302","103342.325842","110208.986861","110975.671779","111725.267149","112491.92115","113258.991298","114025.31201","114792.126162","104091.949655","104859.090604","105625.184692","106392.418084","107159.219869","107908.473602","108675.394111","109441.928771","114037.451386","Mapping"
"Blocked","Female","tile","18","F_lash.wav","None","722.358756699","302","117909.088239","110208.986861","110975.671779","111725.267149","112491.92115","113258.991298","114025.31201","114792.126162","104091.949655","104859.090604","105625.184692","106392.418084","107159.219869","107908.473602","108675.394111","109441.928771","114801.757835","Mapping"
"Blocked","Female","tile","18","F_cad.wav","space","0.0349367037416","302","117909.088239","110208.986861","110975.671779","111725.267149","112491.92115","113258.991298","114025.31201","114792.126162","118658.564886","104859.090604","105625.184692","106392.418084","107159.219869","107908.473602","108675.394111","109441.928771","117919.108542","Mapping"
"Blocked","Female","tile","18","F_tile.wav","None","734.204418492","302","117909.088239","110208.986861","110975.671779","111725.267149","112491.92115","113258.991298","114025.31201","114792.126162","118658.564886","119425.200027","105625.184692","106392.418084","107159.219869","107908.473602","108675.394111","109441.928771","118667.9081","Mapping"
"Blocked","Female","tile","18","F_depth.wav","space","390.392689966","302","117909.088239","110208.986861","110975.671779","111725.267149","112491.92115","113258.991298","114025.31201","114792.126162","118658.564886","119425.200027","120191.745818","106392.418084","107159.219869","107908.473602","108675.394111","109441.928771","119435.274745","Mapping"
"Blocked","Female","tile","18","F_knife.wav","None","728.019718081","302","117909.088239","110208.986861","110975.671779","111725.267149","112491.92115","113258.991298","114025.31201","114792.126162","118658.564886","119425.200027","120191.745818","120958.622114","107159.219869","107908.473602","108675.394111","109441.928771","120201.259695","Mapping"
"Blocked","Female","tile","18","F_dime.wav","None","725.880857557","302","117909.088239","110208.986861","110975.671779","111725.267149","112491.92115","113258.991298","114025.31201","114792.126162","118658.564886","119425.200027","120191.745818","120958.622114","121725.498101","107908.473602","108675.394111","109441.928771","120968.397861","Mapping"
"Blocked","Female","tile","18","F_jaw.wav","None","722.448107786","302","117909.088239","110208.986861","110975.671779","111725.267149","112491.92115","113258.991298","114025.31201","114792.126162","118658.564886","119425.200027","120191.745818","120958.622114","121725.498101","122492.129223","108675.394111","109441.928771","121735.64702","Mapping"
"Blocked","Female","tile","18","F_tile.wav","None","720.360570122","302","117909.088239","110208.986861","110975.671779","111725.267149","112491.92115","113258.991298","114025.31201","114792.126162","118658.564886","119425.200027","120191.745818","120958.622114","121725.498101","122492.129223","123241.600615","109441.928771","122501.706791","Mapping"
"Blocked","Female","tile","18","F_jolt.wav","space","462.838154286","302","117909.088239","110208.986861","110975.671779","111725.267149","112491.92115","113258.991298","114025.31201","114792.126162","118658.564886","119425.200027","120191.745818","120958.622114","121725.498101","122492.129223","123241.600615","124008.307484","123250.81243","Mapping"
"Blocked","Female","tile","18","F_greet.wav","None","730.848652311","302","117909.088239","124775.160592","110975.671779","111725.267149","112491.92115","113258.991298","114025.31201","114792.126162","118658.564886","119425.200027","120191.745818","120958.622114","121725.498101","122492.129223","123241.600615","124008.307484","124018.259769","Mapping"
"Blocked","Female","tile","18","F_jaw.wav","None","727.710544597","302","117909.088239","124775.160592","125541.682576","111725.267149","112491.92115","113258.991298","114025.31201","114792.126162","118658.564886","119425.200027","120191.745818","120958.622114","121725.498101","122492.129223","123241.600615","124008.307484","124785.22047","Mapping"
"Blocked","Female","tile","18","F_tile.wav","None","725.072060712","302","117909.088239","124775.160592","125541.682576","126309.077665","112491.92115","113258.991298","114025.31201","114792.126162","118658.564886","119425.200027","120191.745818","120958.622114","121725.498101","122492.129223","123241.600615","124008.307484","125551.670725","Mapping"
"Blocked","Female","tile","18","F_jolt.wav","space","466.394264251","302","117909.088239","124775.160592","125541.682576","126309.077665","127058.490004","113258.991298","114025.31201","114792.126162","118658.564886","119425.200027","120191.745818","120958.622114","121725.498101","122492.129223","123241.600615","124008.307484","126319.157021","Mapping"
"Blocked","Female","tile","18","F_tile.wav","None","736.022357363","302","117909.088239","124775.160592","125541.682576","126309.077665","127058.490004","127824.724457","114025.31201","114792.126162","118658.564886","119425.200027","120191.745818","120958.622114","121725.498101","122492.129223","123241.600615","124008.307484","127067.569493","Mapping"
"Blocked","Female","tile","18","F_gnash.wav","None","733.129732311","302","117909.088239","124775.160592","125541.682576","126309.077665","127058.490004","127824.724457","128591.581894","114792.126162","118658.564886","119425.200027","120191.745818","120958.622114","121725.498101","122492.129223","123241.600615","124008.307484","127834.391994","Mapping"
"Blocked","Female","tile","18","F_priest.wav","space","64.5850445144","302","117909.088239","124775.160592","125541.682576","126309.077665","127058.490004","127824.724457","128591.581894","129358.638748","118658.564886","119425.200027","120191.745818","120958.622114","121725.498101","122492.129223","123241.600615","124008.307484","128600.95417","Mapping"
"Blocked","Female","tile","15","F_gnash.wav","None","726.022459101","302","132474.647025","124775.160592","125541.682576","126309.077665","127058.490004","127824.724457","128591.581894","129358.638748","118658.564886","119425.200027","120191.745818","120958.622114","121725.498101","122492.129223","123241.600615","124008.307484","129368.549294","Mapping"
"Blocked","Female","tile","15","F_tile.wav","None","723.222586326","302","132474.647025","124775.160592","125541.682576","126309.077665","127058.490004","127824.724457","128591.581894","129358.638748","133242.009032","119425.200027","120191.745818","120958.622114","121725.498101","122492.129223","123241.600615","124008.307484","132483.83658","Mapping"
"Blocked","Female","tile","15","F_romp.wav","space","413.098060992","302","132474.647025","124775.160592","125541.682576","126309.077665","127058.490004","127824.724457","128591.581894","129358.638748","133242.009032","133991.512886","120191.745818","120958.622114","121725.498101","122492.129223","123241.600615","124008.307484","133252.348093","Mapping"
"Blocked","Female","tile","15","F_romp.wav","None","732.246115804","302","132474.647025","124775.160592","125541.682576","126309.077665","127058.490004","127824.724457","128591.581894","129358.638748","133242.009032","133991.512886","134758.485336","120958.622114","121725.498101","122492.129223","123241.600615","124008.307484","134001.825667","Mapping"
"Blocked","Female","tile","15","F_tile.wav","None","729.624326807","302","132474.647025","124775.160592","125541.682576","126309.077665","127058.490004","127824.724457","128591.581894","129358.638748","133242.009032","133991.512886","134758.485336","135524.915804","121725.498101","122492.129223","123241.600615","124008.307484","134768.390008","Mapping"
"Blocked","Female","tile","15","F_jaw.wav","space","514.86303797","302","132474.647025","124775.160592","125541.682576","126309.077665","127058.490004","127824.724457","128591.581894","129358.638748","133242.009032","133991.512886","134758.485336","135524.915804","136291.989662","122492.129223","123241.600615","124008.307484","135534.546549","Mapping"
"Blocked","Female","tile","15","F_lash.wav","None","723.294314463","302","132474.647025","124775.160592","125541.682576","126309.077665","127058.490004","127824.724457","128591.581894","129358.638748","133242.009032","133991.512886","134758.485336","135524.915804","136291.989662","137058.493096","123241.600615","124008.307484","136301.757372","Mapping"
"Blocked","Female","tile","15","F_bluff.wav","None","720.154660754","302","132474.647025","124775.160592","125541.682576","126309.077665","127058.490004","127824.724457","128591.581894","129358.638748","133242.009032","133991.512886","134758.485336","135524.915804","136291.989662","137058.493096","137808.303959","124008.307484","137068.754863","Mapping"
"Blocked","Female","tile","15","F_tile.wav","None","734.682709444","302","132474.647025","124775.160592","125541.682576","126309.077665","127058.490004","127824.724457","128591.581894","129358.638748","133242.009032","133991.512886","134758.485336","135524.915804","136291.989662","137058.493096","137808.303959","138574.855624","137818.135358","Mapping"
"Blocked","Female","tile","15","F_jaw.wav","space","368.590414524","302","132474.647025","139341.27589","125541.682576","126309.077665","127058.490004","127824.724457","128591.581894","129358.638748","133242.009032","133991.512886","134758.485336","135524.915804","136291.989662","137058.493096","137808.303959","138574.855624","138584.757514","Mapping"
"Blocked","Female","tile","15","F_jaw.wav","None","729.24558958","302","132474.647025","139341.27589","140107.757681","126309.077665","127058.490004","127824.724457","128591.581894","129358.638748","133242.009032","133991.512886","134758.485336","135524.915804","136291.989662","137058.493096","137808.303959","138574.855624","139350.634872","Mapping"
"Blocked","Female","tile","15","F_dime.wav","None","725.435957313","302","132474.647025","139341.27589","140107.757681","140875.300864","127058.490004","127824.724457","128591.581894","129358.638748","133242.009032","133991.512886","134758.485336","135524.915804","136291.989662","137058.493096","137808.303959","138574.855624","140118.28812","Mapping"
"Blocked","Female","tile","15","F_tile.wav","None","721.978473477","302","132474.647025","139341.27589","140107.757681","140875.300864","141641.708145","127824.724457","128591.581894","129358.638748","133242.009032","133991.512886","134758.485336","135524.915804","136291.989662","137058.493096","137808.303959","138574.855624","140885.744116","Mapping"
"Blocked","Female","tile","15","F_priest.wav","space","380.995679647","302","132474.647025","139341.27589","140107.757681","140875.300864","141641.708145","142391.324229","128591.581894","129358.638748","133242.009032","133991.512886","134758.485336","135524.915804","136291.989662","137058.493096","137808.303959","138574.855624","141652.304747","Mapping"
"Blocked","Female","tile","15","F_bluff.wav","None","733.604622539","302","132474.647025","139341.27589","140107.757681","140875.300864","141641.708145","142391.324229","143158.229588","129358.638748","133242.009032","133991.512886","134758.485336","135524.915804","136291.989662","137058.493096","137808.303959","138574.855624","142401.191182","Mapping"
"Blocked","Female","tile","15","F_jolt.wav","None","730.969230179","302","132474.647025","139341.27589","140107.757681","140875.300864","141641.708145","142391.324229","143158.229588","143924.488465","133242.009032","133991.512886","134758.485336","135524.915804","136291.989662","137058.493096","137808.303959","138574.855624","143167.983384","Mapping"
"Blocked","Female","done","22","F_knife.wav","None","728.694333695","302","147058.67118","139341.27589","140107.757681","140875.300864","141641.708145","142391.324229","143158.229588","143924.488465","133242.009032","133991.512886","134758.485336","135524.915804","136291.989662","137058.493096","137808.303959","138574.855624","143934.215363","Mapping"
"Blocked","Female","done","22","F_bluff.wav","None","719.732330181","302","147058.67118","139341.27589","140107.757681","140875.300864","141641.708145","142391.324229","143158.229588","143924.488465","147808.132987","133991.512886","134758.485336","135524.915804","136291.989662","137058.493096","137808.303959","138574.855624","147068.891827","Mapping"
"Blocked","Female","done","22","F_done.wav","None","733.820425346","302","147058.67118","139341.27589","140107.757681","140875.300864","141641.708145","142391.324229","143158.229588","143924.488465","147808.132987","148574.660845","134758.485336","135524.915804","136291.989662","137058.493096","137808.303959","138574.855624","147818.768545","Mapping"
"Blocked","Female","done","22","F_park.wav","None","732.147798408","302","147058.67118","139341.27589","140107.757681","140875.300864","141641.708145","142391.324229","143158.229588","143924.488465","147808.132987","148574.660845","149341.21591","135524.915804","136291.989662","137058.493096","137808.303959","138574.855624","148584.325599","Mapping"
"Blocked","Female","done","22","F_bluff.wav","space","18.6289218254","302","147058.67118","139341.27589","140107.757681","140875.300864","141641.708145","142391.324229","143158.229588","143924.488465","147808.132987","148574.660845","149341.21591","150108.257923","136291.989662","137058.493096","137808.303959","138574.855624","149350.546139","Mapping"
"Blocked","Female","done","22","F_park.wav","None","725.299611688","302","147058.67118","139341.27589","140107.757681","140875.300864","141641.708145","142391.324229","143158.229588","143924.488465","147808.132987","148574.660845","149341.21591","150108.257923","150874.978397","137058.493096","137808.303959","138574.855624","150117.87321","Mapping"
"Blocked","Female","done","22","F_dime.wav","None","721.246660221","302","147058.67118","139341.27589","140107.757681","140875.300864","141641.708145","142391.324229","143158.229588","143924.488465","147808.132987","148574.660845","149341.21591","150108.257923","150874.978397","151641.685884","137808.303959","138574.855624","150885.841506","Mapping"
"Blocked","Female","done","22","F_cad.wav","space","429.822166916","302","147058.67118","139341.27589","140107.757681","140875.300864","141641.708145","142391.324229","143158.229588","143924.488465","147808.132987","148574.660845","149341.21591","150108.257923","150874.978397","151641.685884","152391.044427","138574.855624","151651.305499","Mapping"
"Blocked","Female","done","22","F_done.wav","None","732.959686778","302","147058.67118","139341.27589","140107.757681","140875.300864","141641.708145","142391.324229","143158.229588","143924.488465","147808.132987","148574.660845","149341.21591","150108.257923","150874.978397","151641.685884","152391.044427","153158.034499","152401.093484","Mapping"
"Blocked","Female","done","22","F_reek.wav","space","648.900750093","302","147058.67118","153924.558029","140107.757681","140875.300864","141641.708145","142391.324229","143158.229588","143924.488465","147808.132987","148574.660845","149341.21591","150108.257923","150874.978397","151641.685884","152391.044427","153158.034499","153168.168269","Mapping"
"Blocked","Female","done","22","F_park.wav","None","726.75303556","302","147058.67118","153924.558029","154691.173384","140875.300864","141641.708145","142391.324229","143158.229588","143924.488465","147808.132987","148574.660845","149341.21591","150108.257923","150874.978397","151641.685884","152391.044427","153158.034499","153934.480324","Mapping"
"Blocked","Female","done","22","F_done.wav","None","724.102184176","302","147058.67118","153924.558029","154691.173384","155458.44604","141641.708145","142391.324229","143158.229588","143924.488465","147808.132987","148574.660845","149341.21591","150108.257923","150874.978397","151641.685884","152391.044427","153158.034499","154701.011274","Mapping"
"Blocked","Female","done","22","F_cad.wav","space","508.519113064","302","147058.67118","153924.558029","154691.173384","155458.44604","156207.645977","142391.324229","143158.229588","143924.488465","147808.132987","148574.660845","149341.21591","150108.257923","150874.978397","151641.685884","152391.044427","153158.034499","155468.506536","Mapping"
"Blocked","Female","done","22","F_romp.wav","None","734.449283686","302","147058.67118","153924.558029","154691.173384","155458.44604","156207.645977","156974.530003","143158.229588","143924.488465","147808.132987","148574.660845","149341.21591","150108.257923","150874.978397","151641.685884","152391.044427","153158.034499","156217.691632","Mapping"
"Blocked","Female","done","22","F_done.wav","None","731.547074858","302","147058.67118","153924.558029","154691.173384","155458.44604","156207.645977","156974.530003","157741.056315","143924.488465","147808.132987","148574.660845","149341.21591","150108.257923","150874.978397","151641.685884","152391.044427","153158.034499","156984.450752","Mapping"
"Blocked","Female","done","22","F_gnash.wav","space","562.065437902","302","147058.67118","153924.558029","154691.173384","155458.44604","156207.645977","156974.530003","157741.056315","158508.072667","147808.132987","148574.660845","149341.21591","150108.257923","150874.978397","151641.685884","152391.044427","153158.034499","157750.948311","Mapping"
"Blocked","Female","ball","3","F_lash.wav","None","725.25478201","302","161624.8041","153924.558029","154691.173384","155458.44604","156207.645977","156974.530003","157741.056315","158508.072667","147808.132987","148574.660845","149341.21591","150108.257923","150874.978397","151641.685884","152391.044427","153158.034499","158517.459783","Mapping"
"Blocked","Female","ball","3","F_knife.wav","None","718.992787879","302","161624.8041","153924.558029","154691.173384","155458.44604","156207.645977","156974.530003","157741.056315","158508.072667","162374.405035","148574.660845","149341.21591","150108.257923","150874.978397","151641.685884","152391.044427","153158.034499","161635.111316","Mapping"
"Blocked","Female","ball","3","F_priest.wav","None","734.000982717","302","161624.8041","153924.558029","154691.173384","155458.44604","156207.645977","156974.530003","157741.056315","158508.072667","162374.405035","163141.198782","149341.21591","150108.257923","150874.978397","151641.685884","152391.044427","153158.034499","162384.105962","Mapping"
"Blocked","Female","ball","3","F_jolt.wav","None","731.267891824","302","161624.8041","153924.558029","154691.173384","155458.44604","156207.645977","156974.530003","157741.056315","158508.072667","162374.405035","163141.198782","163907.568343","150108.257923","150874.978397","151641.685884","152391.044427","153158.034499","163150.871265","Mapping"
"Blocked","Female","ball","3","F_reek.wav","None","728.667744901","302","161624.8041","153924.558029","154691.173384","155458.44604","156207.645977","156974.530003","157741.056315","158508.072667","162374.405035","163141.198782","163907.568343","164674.360545","150874.978397","151641.685884","152391.044427","153158.034499","163917.404689","Mapping"
"Blocked","Female","ball","3","F_ball.wav","None","725.973609369","302","161624.8041","153924.558029","154691.173384","155458.44604","156207.645977","156974.530003","157741.056315","158508.072667","162374.405035","163141.198782","163907.568343","164674.360545","165441.271159","151641.685884","152391.044427","153158.034499","164684.056216","Mapping"
"Blocked","Female","ball","3","F_bluff.wav","space","461.537462659","302","161624.8041","153924.558029","154691.173384","155458.44604","156207.645977","156974.530003","157741.056315","158508.072667","162374.405035","163141.198782","163907.568343","164674.360545","165441.271159","166208.28782","152391.044427","153158.034499","165451.324544","Mapping"
"Blocked","Female","ball","3","F_jolt.wav","None","719.032362103","302","161624.8041","153924.558029","154691.173384","155458.44604","156207.645977","156974.530003","157741.056315","158508.072667","162374.405035","163141.198782","163907.568343","164674.360545","165441.271159","166208.28782","166957.182603","153158.034499","166218.373668","Mapping"
"Blocked","Female","ball","3","F_ball.wav","None","734.505861998","302","161624.8041","153924.558029","154691.173384","155458.44604","156207.645977","156974.530003","157741.056315","158508.072667","162374.405035","163141.198782","163907.568343","164674.360545","165441.271159","166208.28782","166957.182603","167724.020872","166966.898062","Mapping"
"Blocked","Female","ball","3","F_dime.wav","space","515.589285642","302","161624.8041","168490.903042","154691.173384","155458.44604","156207.645977","156974.530003","157741.056315","158508.072667","162374.405035","163141.198782","163907.568343","164674.360545","165441.271159","166208.28782","166957.182603","167724.020872","167733.260822","Mapping"
"Blocked","Female","ball","3","F_ball.wav","None","727.939951234","302","161624.8041","168490.903042","169257.911665","155458.44604","156207.645977","156974.530003","157741.056315","158508.072667","162374.405035","163141.198782","163907.568343","164674.360545","165441.271159","166208.28782","166957.182603","167724.020872","168500.758556","Mapping"
"Blocked","Female","ball","3","F_park.wav","space","669.125624001","302","161624.8041","168490.903042","169257.911665","170024.654707","156207.645977","156974.530003","157741.056315","158508.072667","162374.405035","163141.198782","163907.568343","164674.360545","165441.271159","166208.28782","166957.182603","167724.020872","169267.675973","Mapping"
"Blocked","Female","ball","3","F_depth.wav","None","720.331816934","302","161624.8041","168490.903042","169257.911665","170024.654707","170791.19215","156974.530003","157741.056315","158508.072667","162374.405035","163141.198782","163907.568343","164674.360545","165441.271159","166208.28782","166957.182603","167724.020872","170035.435886","Mapping"
"Blocked","Female","ball","3","F_bluff.wav","None","718.686087988","302","161624.8041","168490.903042","169257.911665","170024.654707","170791.19215","171540.760312","157741.056315","158508.072667","162374.405035","163141.198782","163907.568343","164674.360545","165441.271159","166208.28782","166957.182603","167724.020872","170801.208743","Mapping"
"Blocked","Female","ball","3","F_ball.wav","space","515.797050204","302","161624.8041","168490.903042","169257.911665","170024.654707","170791.19215","171540.760312","172307.498408","158508.072667","162374.405035","163141.198782","163907.568343","164674.360545","165441.271159","166208.28782","166957.182603","167724.020872","171556.941201","Mapping"
"Blocked","Female","ball","3","F_dime.wav","space","619.595459197","302","161624.8041","168490.903042","169257.911665","170024.654707","170791.19215","171540.760312","172307.498408","173074.229394","162374.405035","163141.198782","163907.568343","164674.360545","165441.271159","166208.28782","166957.182603","167724.020872","172317.154197","Mapping"
"Blocked","Female","cave","10","F_reek.wav","None","726.520846132","302","176207.930726","168490.903042","169257.911665","170024.654707","170791.19215","171540.760312","172307.498408","173074.229394","162374.405035","163141.198782","163907.568343","164674.360545","165441.271159","166208.28782","166957.182603","167724.020872","173084.446331","Mapping"
"Blocked","Female","cave","10","F_cave.wav","None","719.831575174","302","176207.930726","168490.903042","169257.911665","170024.654707","170791.19215","171540.760312","172307.498408","173074.229394","176957.397788","163141.198782","163907.568343","164674.360545","165441.271159","166208.28782","166957.182603","167724.020872","176217.889503","Mapping"
"Blocked","Female","cave","10","F_dime.wav","space","345.444162842","302","176207.930726","168490.903042","169257.911665","170024.654707","170791.19215","171540.760312","172307.498408","173074.229394","176957.397788","177724.283978","163907.568343","164674.360545","165441.271159","166208.28782","166957.182603","167724.020872","176967.226713","Mapping"
"Blocked","Female","cave","10","F_knife.wav","None","730.611207429","302","176207.930726","168490.903042","169257.911665","170024.654707","170791.19215","171540.760312","172307.498408","173074.229394","176957.397788","177724.283978","178490.744437","164674.360545","165441.271159","166208.28782","166957.182603","167724.020872","177734.110739","Mapping"
"Blocked","Female","cave","10","F_cave.wav","None","728.409276344","302","176207.930726","168490.903042","169257.911665","170024.654707","170791.19215","171540.760312","172307.498408","173074.229394","176957.397788","177724.283978","178490.744437","179257.567246","165441.271159","166208.28782","166957.182603","167724.020872","178500.374254","Mapping"
"Blocked","Female","cave","10","F_dime.wav","space","461.053606588","302","176207.930726","168490.903042","169257.911665","170024.654707","170791.19215","171540.760312","172307.498408","173074.229394","176957.397788","177724.283978","178490.744437","179257.567246","180024.243198","166208.28782","166957.182603","167724.020872","179267.574873","Mapping"
"Blocked","Female","cave","10","F_reek.wav","None","721.654459834","302","176207.930726","168490.903042","169257.911665","170024.654707","170791.19215","171540.760312","172307.498408","173074.229394","176957.397788","177724.283978","178490.744437","179257.567246","180024.243198","180791.151648","166957.182603","167724.020872","180034.25268","Mapping"
"Blocked","Female","cave","10","F_cave.wav","None","718.968672212","302","176207.930726","168490.903042","169257.911665","170024.654707","170791.19215","171540.760312","172307.498408","173074.229394","176957.397788","177724.283978","178490.744437","179257.567246","180024.243198","180791.151648","181540.683328","167724.020872","180800.971608","Mapping"
"Blocked","Female","cave","10","F_knife.wav","space","506.272660568","302","176207.930726","168490.903042","169257.911665","170024.654707","170791.19215","171540.760312","172307.498408","173074.229394","176957.397788","177724.283978","178490.744437","179257.567246","180024.243198","180791.151648","181540.683328","182307.653304","181550.267388","Mapping"
"Blocked","Female","cave","10","F_cling.wav","None","729.362457059","302","176207.930726","183074.068932","169257.911665","170024.654707","170791.19215","171540.760312","172307.498408","173074.229394","176957.397788","177724.283978","178490.744437","179257.567246","180024.243198","180791.151648","181540.683328","182307.653304","182317.615174","Mapping"
"Blocked","Female","cave","10","F_reek.wav","None","727.787837852","302","176207.930726","183074.068932","183840.650587","170024.654707","170791.19215","171540.760312","172307.498408","173074.229394","176957.397788","177724.283978","178490.744437","179257.567246","180024.243198","180791.151648","181540.683328","182307.653304","183083.780681","Mapping"
"Blocked","Female","cave","10","F_cad.wav","None","725.070205517","302","176207.930726","183074.068932","183840.650587","184607.862954","170791.19215","171540.760312","172307.498408","173074.229394","176957.397788","177724.283978","178490.744437","179257.567246","180024.243198","180791.151648","181540.683328","182307.653304","183850.633789","Mapping"
"Blocked","Female","cave","10","F_cling.wav","None","721.848929767","302","176207.930726","183074.068932","183840.650587","184607.862954","185374.349384","171540.760312","172307.498408","173074.229394","176957.397788","177724.283978","178490.744437","179257.567246","180024.243198","180791.151648","181540.683328","182307.653304","184617.86007","Mapping"
"Blocked","Female","cave","10","F_cave.wav","None","719.307217281","302","176207.930726","183074.068932","183840.650587","184607.862954","185374.349384","186123.913527","172307.498408","173074.229394","176957.397788","177724.283978","178490.744437","179257.567246","180024.243198","180791.151648","181540.683328","182307.653304","185384.414517","Mapping"
"Blocked","Female","cave","10","F_knife.wav","space","354.450378101","302","176207.930726","183074.068932","183840.650587","184607.862954","185374.349384","186123.913527","186890.635237","173074.229394","176957.397788","177724.283978","178490.744437","179257.567246","180024.243198","180791.151648","181540.683328","182307.653304","186134.067084","Mapping"
"Blocked","Female","cave","10","F_depth.wav","None","730.449509807","302","176207.930726","183074.068932","183840.650587","184607.862954","185374.349384","186123.913527","186890.635237","187656.952239","176957.397788","177724.283978","178490.744437","179257.567246","180024.243198","180791.151648","181540.683328","182307.653304","186900.451795","Mapping"
"Blocked","Female","tile","13","F_knife.wav","None","728.416696191","302","190790.853606","183074.068932","183840.650587","184607.862954","185374.349384","186123.913527","186890.635237","187656.952239","176957.397788","177724.283978","178490.744437","179257.567246","180024.243198","180791.151648","181540.683328","182307.653304","187666.496106","Mapping"
"Blocked","Female","tile","13","F_knife.wav","None","720.212167129","302","190790.853606","183074.068932","183840.650587","184607.862954","185374.349384","186123.913527","186890.635237","187656.952239","191540.385904","177724.283978","178490.744437","179257.567246","180024.243198","180791.151648","181540.683328","182307.653304","190800.537838","Mapping"
"Blocked","Female","tile","13","F_tile.wav","None","734.776698053","302","190790.853606","183074.068932","183840.650587","184607.862954","185374.349384","186123.913527","186890.635237","187656.952239","191540.385904","192307.30703","178490.744437","179257.567246","180024.243198","180791.151648","181540.683328","182307.653304","191550.18824","Mapping"
"Blocked","Female","tile","13","F_lash.wav","space","499.062741641","302","190790.853606","183074.068932","183840.650587","184607.862954","185374.349384","186123.913527","186890.635237","187656.952239","191540.385904","192307.30703","193073.849729","179257.567246","180024.243198","180791.151648","181540.683328","182307.653304","192317.315585","Mapping"
"Blocked","Female","tile","13","F_lash.wav","None","729.150673375","302","190790.853606","183074.068932","183840.650587","184607.862954","185374.349384","186123.913527","186890.635237","187656.952239","191540.385904","192307.30703","193073.849729","193840.386862","180024.243198","180791.151648","181540.683328","182307.653304","193083.72132","Mapping"
"Blocked","Female","tile","13","F_bluff.wav","None","727.33211657","302","190790.853606","183074.068932","183840.650587","184607.862954","185374.349384","186123.913527","186890.635237","187656.952239","191540.385904","192307.30703","193073.849729","193840.386862","194608.025889","180791.151648","181540.683328","182307.653304","193849.88559","Mapping"
"Blocked","Female","tile","13","F_dime.wav","None","723.274218384","302","190790.853606","183074.068932","183840.650587","184607.862954","185374.349384","186123.913527","186890.635237","187656.952239","191540.385904","192307.30703","193073.849729","193840.386862","194608.025889","195374.203454","181540.683328","182307.653304","194618.118848","Mapping"
"Blocked","Female","tile","13","F_tile.wav","None","721.206158865","302","190790.853606","183074.068932","183840.650587","184607.862954","185374.349384","186123.913527","186890.635237","187656.952239","191540.385904","192307.30703","193073.849729","193840.386862","194608.025889","195374.203454","196140.351957","182307.653304","195384.458111","Mapping"
"Blocked","Female","tile","13","F_jaw.wav","space","514.742769301","302","190790.853606","183074.068932","183840.650587","184607.862954","185374.349384","186123.913527","186890.635237","187656.952239","191540.385904","192307.30703","193073.849729","193840.386862","194608.025889","195374.203454","196140.351957","196907.595241","196149.606747","Mapping"
"Blocked","Female","tile","13","F_gnash.wav","None","718.776366673","302","190790.853606","197657.308097","183840.650587","184607.862954","185374.349384","186123.913527","186890.635237","187656.952239","191540.385904","192307.30703","193073.849729","193840.386862","194608.025889","195374.203454","196140.351957","196907.595241","196917.623583","Mapping"
"Blocked","Female","tile","13","F_cad.wav","None","733.719016891","302","190790.853606","197657.308097","198423.794216","184607.862954","185374.349384","186123.913527","186890.635237","187656.952239","191540.385904","192307.30703","193073.849729","193840.386862","194608.025889","195374.203454","196140.351957","196907.595241","197667.028193","Mapping"
"Blocked","Female","tile","13","F_tile.wav","None","730.498668272","302","190790.853606","197657.308097","198423.794216","199190.325476","185374.349384","186123.913527","186890.635237","187656.952239","191540.385904","192307.30703","193073.849729","193840.386862","194608.025889","195374.203454","196140.351957","196907.595241","198434.652071","Mapping"
"Blocked","Female","tile","13","F_gnash.wav","space","480.074251071","302","190790.853606","197657.308097","198423.794216","199190.325476","199957.205791","186123.913527","186890.635237","187656.952239","191540.385904","192307.30703","193073.849729","193840.386862","194608.025889","195374.203454","196140.351957","196907.595241","199200.215308","Mapping"
"Blocked","Female","tile","13","F_tile.wav","None","725.593635812","302","190790.853606","197657.308097","198423.794216","199190.325476","199957.205791","200724.090745","186890.635237","187656.952239","191540.385904","192307.30703","193073.849729","193840.386862","194608.025889","195374.203454","196140.351957","196907.595241","199966.941037","Mapping"
"Blocked","Female","tile","13","F_cad.wav","None","722.439141478","302","190790.853606","197657.308097","198423.794216","199190.325476","199957.205791","200724.090745","201490.694041","187656.952239","191540.385904","192307.30703","193073.849729","193840.386862","194608.025889","195374.203454","196140.351957","196907.595241","200734.342619","Mapping"
"Blocked","Female","tile","13","F_cling.wav","space","0.0361735001206","302","190790.853606","197657.308097","198423.794216","199190.325476","199957.205791","200724.090745","201490.694041","202240.219538","191540.385904","192307.30703","193073.849729","193840.386862","194608.025889","195374.203454","196140.351957","196907.595241","201501.09741","Mapping"
"Blocked","Female","ball","4","F_cling.wav","None","734.313865658","302","205373.962917","197657.308097","198423.794216","199190.325476","199957.205791","200724.090745","201490.694041","202240.219538","191540.385904","192307.30703","193073.849729","193840.386862","194608.025889","195374.203454","196140.351957","196907.595241","202250.005488","Mapping"
"Blocked","Female","ball","4","F_greet.wav","None","718.861388974","302","205373.962917","197657.308097","198423.794216","199190.325476","199957.205791","200724.090745","201490.694041","202240.219538","206123.237674","192307.30703","193073.849729","193840.386862","194608.025889","195374.203454","196140.351957","196907.595241","205384.291157","Mapping"
"Blocked","Female","ball","4","F_depth.wav","None","734.70713431","302","205373.962917","197657.308097","198423.794216","199190.325476","199957.205791","200724.090745","201490.694041","202240.219538","206123.237674","206890.111497","193073.849729","193840.386862","194608.025889","195374.203454","196140.351957","196907.595241","206132.826062","Mapping"
"Blocked","Female","ball","4","F_jolt.wav","None","732.404103037","302","205373.962917","197657.308097","198423.794216","199190.325476","199957.205791","200724.090745","201490.694041","202240.219538","206123.237674","206890.111497","207657.092294","193840.386862","194608.025889","195374.203454","196140.351957","196907.595241","206899.317438","Mapping"
"Blocked","Female","ball","4","F_cad.wav","None","729.191793595","302","205373.962917","197657.308097","198423.794216","199190.325476","199957.205791","200724.090745","201490.694041","202240.219538","206123.237674","206890.111497","207657.092294","208423.575631","194608.025889","195374.203454","196140.351957","196907.595241","207666.839597","Mapping"
"Blocked","Female","ball","4","F_ball.wav","None","726.755508687","302","205373.962917","197657.308097","198423.794216","199190.325476","199957.205791","200724.090745","201490.694041","202240.219538","206123.237674","206890.111497","207657.092294","208423.575631","209190.125132","195374.203454","196140.351957","196907.595241","208433.42187","Mapping"
"Blocked","Female","ball","4","F_cad.wav","space","503.969010897","302","205373.962917","197657.308097","198423.794216","199190.325476","199957.205791","200724.090745","201490.694041","202240.219538","206123.237674","206890.111497","207657.092294","208423.575631","209190.125132","209957.250931","196140.351957","196907.595241","209200.138015","Mapping"
"Blocked","Female","ball","4","F_dime.wav","None","719.877332449","302","205373.962917","197657.308097","198423.794216","199190.325476","199957.205791","200724.090745","201490.694041","202240.219538","206123.237674","206890.111497","207657.092294","208423.575631","209190.125132","209957.250931","210706.822803","196907.595241","209967.548563","Mapping"
"Blocked","Female","ball","4","F_knife.wav","None","735.263336916","302","205373.962917","197657.308097","198423.794216","199190.325476","199957.205791","200724.090745","201490.694041","202240.219538","206123.237674","206890.111497","207657.092294","208423.575631","209190.125132","209957.250931","210706.822803","211473.603565","210716.388003","Mapping"
"Blocked","Female","ball","4","F_ball.wav","None","732.516023796","302","205373.962917","212240.004662","198423.794216","199190.325476","199957.205791","200724.090745","201490.694041","202240.219538","206123.237674","206890.111497","207657.092294","208423.575631","209190.125132","209957.250931","210706.822803","211473.603565","211483.548121","Mapping"
"Blocked","Female","ball","4","F_park.wav","space","414.003629237","302","205373.962917","212240.004662","213007.09738","199190.325476","199957.205791","200724.090745","201490.694041","202240.219538","206123.237674","206890.111497","207657.092294","208423.575631","209190.125132","209957.250931","210706.822803","211473.603565","212249.990956","Mapping"
"Blocked","Female","ball","4","F_ball.wav","None","726.540942211","302","205373.962917","212240.004662","213007.09738","213773.526921","199957.205791","200724.090745","201490.694041","202240.219538","206123.237674","206890.111497","207657.092294","208423.575631","209190.125132","209957.250931","210706.822803","211473.603565","213016.747603","Mapping"
"Blocked","Female","ball","4","F_greet.wav","space","480.133303441","302","205373.962917","212240.004662","213007.09738","213773.526921","214540.414966","200724.090745","201490.694041","202240.219538","206123.237674","206890.111497","207657.092294","208423.575631","209190.125132","209957.250931","210706.822803","211473.603565","213783.838775","Mapping"
"Blocked","Female","ball","4","F_depth.wav","None","719.877332449","302","205373.962917","212240.004662","213007.09738","213773.526921","214540.414966","215289.742283","201490.694041","202240.219538","206123.237674","206890.111497","207657.092294","208423.575631","209190.125132","209957.250931","210706.822803","211473.603565","214550.635614","Mapping"
"Blocked","Female","ball","4","F_ball.wav","None","735.842417926","302","205373.962917","212240.004662","213007.09738","213773.526921","214540.414966","215289.742283","216056.441113","202240.219538","206123.237674","206890.111497","207657.092294","208423.575631","209190.125132","209957.250931","210706.822803","211473.603565","215299.082405","Mapping"
"Blocked","Female","ball","4","F_jolt.wav","space","398.178598844","302","205373.962917","212240.004662","213007.09738","213773.526921","214540.414966","215289.742283","216056.441113","216823.482508","206123.237674","206890.111497","207657.092294","208423.575631","209190.125132","209957.250931","210706.822803","211473.603565","216065.834414","Mapping"
"Blocked","Female","cave","11","F_bluff.wav","None","727.848744951","302","219957.279993","212240.004662","213007.09738","213773.526921","214540.414966","215289.742283","216056.441113","216823.482508","206123.237674","206890.111497","207657.092294","208423.575631","209190.125132","209957.250931","210706.822803","211473.603565","216834.436206","Mapping"
"Blocked","Female","cave","11","F_priest.wav","None","719.684717245","302","219957.279993","212240.004662","213007.09738","213773.526921","214540.414966","215289.742283","216056.441113","216823.482508","220706.820948","206890.111497","207657.092294","208423.575631","209190.125132","209957.250931","210706.822803","211473.603565","219967.20909","Mapping"
"Blocked","Female","cave","11","F_dime.wav","None","734.759075101","302","219957.279993","212240.004662","213007.09738","213773.526921","214540.414966","215289.742283","216056.441113","216823.482508","220706.820948","221473.42208","207657.092294","208423.575631","209190.125132","209957.250931","210706.822803","211473.603565","220716.406245","Mapping"
"Blocked","Female","cave","11","F_cave.wav","None","732.140378095","302","219957.279993","212240.004662","213007.09738","213773.526921","214540.414966","215289.742283","216056.441113","216823.482508","220706.820948","221473.42208","222239.997551","208423.575631","209190.125132","209957.250931","210706.822803","211473.603565","221483.347158","Mapping"
"Blocked","Female","cave","11","F_reek.wav","space","550.186385401","302","219957.279993","212240.004662","213007.09738","213773.526921","214540.414966","215289.742283","216056.441113","216823.482508","220706.820948","221473.42208","222239.997551","223006.834274","209190.125132","209957.250931","210706.822803","211473.603565","222249.669416","Mapping"
"Blocked","Female","cave","11","F_greet.wav","None","725.788724143","302","219957.279993","212240.004662","213007.09738","213773.526921","214540.414966","215289.742283","216056.441113","216823.482508","220706.820948","221473.42208","222239.997551","223006.834274","223773.007201","209957.250931","210706.822803","211473.603565","223016.845302","Mapping"
"Blocked","Female","cave","11","F_dime.wav","None","724.620049354","302","219957.279993","212240.004662","213007.09738","213773.526921","214540.414966","215289.742283","216056.441113","216823.482508","220706.820948","221473.42208","222239.997551","223006.834274","223773.007201","224540.320359","210706.822803","211473.603565","223782.495108","Mapping"
"Blocked","Female","cave","11","F_cave.wav","None","720.767751336","302","219957.279993","212240.004662","213007.09738","213773.526921","214540.414966","215289.742283","216056.441113","216823.482508","220706.820948","221473.42208","222239.997551","223006.834274","223773.007201","224540.320359","225307.350623","211473.603565","224550.628812","Mapping"
"Blocked","Female","cave","11","F_romp.wav","space","513.306350913","302","219957.279993","212240.004662","213007.09738","213773.526921","214540.414966","215289.742283","216056.441113","216823.482508","220706.820948","221473.42208","222239.997551","223006.834274","223773.007201","224540.320359","225307.350623","226056.859116","225318.50652","Mapping"
"Blocked","Female","cave","11","F_cave.wav","None","732.673392631","302","219957.279993","226823.255266","213007.09738","213773.526921","214540.414966","215289.742283","216056.441113","216823.482508","220706.820948","221473.42208","222239.997551","223006.834274","223773.007201","224540.320359","225307.350623","226056.859116","226066.199238","Mapping"
"Blocked","Female","cave","11","F_priest.wav","space","630.622430705","302","219957.279993","226823.255266","227589.397585","213773.526921","214540.414966","215289.742283","216056.441113","216823.482508","220706.820948","221473.42208","222239.997551","223006.834274","223773.007201","224540.320359","225307.350623","226056.859116","226833.143861","Mapping"
"Blocked","Female","cave","11","F_dime.wav","None","727.772997692","302","219957.279993","226823.255266","227589.397585","228356.239254","214540.414966","215289.742283","216056.441113","216823.482508","220706.820948","221473.42208","222239.997551","223006.834274","223773.007201","224540.320359","225307.350623","226056.859116","227600.555646","Mapping"
"Blocked","Female","cave","11","F_reek.wav","None","727.520403452","302","219957.279993","226823.255266","227589.397585","228356.239254","229123.166874","215289.742283","216056.441113","216823.482508","220706.820948","221473.42208","222239.997551","223006.834274","223773.007201","224540.320359","225307.350623","226056.859116","228365.395728","Mapping"
"Blocked","Female","cave","11","F_cave.wav","None","724.415994715","302","219957.279993","226823.255266","227589.397585","228356.239254","229123.166874","229890.03544","216056.441113","216823.482508","220706.820948","221473.42208","222239.997551","223006.834274","223773.007201","224540.320359","225307.350623","226056.859116","229132.728364","Mapping"
"Blocked","Female","cave","11","F_dime.wav","space","522.75777515","302","219957.279993","226823.255266","227589.397585","228356.239254","229123.166874","229890.03544","230639.684297","216823.482508","220706.820948","221473.42208","222239.997551","223006.834274","223773.007201","224540.320359","225307.350623","226056.859116","229900.942762","Mapping"
"Blocked","Female","cave","11","F_romp.wav","None","734.934376553","302","219957.279993","226823.255266","227589.397585","228356.239254","229123.166874","229890.03544","230639.684297","231406.35994","220706.820948","221473.42208","222239.997551","223006.834274","223773.007201","224540.320359","225307.350623","226056.859116","230649.315351","Mapping"
"Blocked","Female","cave","7","F_greet.wav","None","732.410904486","302","234540.041485","226823.255266","227589.397585","228356.239254","229123.166874","229890.03544","230639.684297","231406.35994","220706.820948","221473.42208","222239.997551","223006.834274","223773.007201","224540.320359","225307.350623","226056.859116","231416.11992","Mapping"
"Blocked","Female","cave","7","F_cave.wav","None","719.934220426","302","234540.041485","226823.255266","227589.397585","228356.239254","229123.166874","229890.03544","230639.684297","231406.35994","235289.593261","221473.42208","222239.997551","223006.834274","223773.007201","224540.320359","225307.350623","226056.859116","234549.758798","Mapping"
"Blocked","Female","cave","7","F_gnash.wav","space","508.090289775","302","234540.041485","226823.255266","227589.397585","228356.239254","229123.166874","229890.03544","230639.684297","231406.35994","235289.593261","236056.718442","222239.997551","223006.834274","223773.007201","224540.320359","225307.350623","226056.859116","235299.537508","Mapping"
"Blocked","Female","cave","7","F_bluff.wav","None","731.036939193","302","234540.041485","226823.255266","227589.397585","228356.239254","229123.166874","229890.03544","230639.684297","231406.35994","235289.593261","236056.718442","236823.036062","223006.834274","223773.007201","224540.320359","225307.350623","226056.859116","236065.827303","Mapping"
"Blocked","Female","cave","7","F_greet.wav","None","728.217279539","302","234540.041485","226823.255266","227589.397585","228356.239254","229123.166874","229890.03544","230639.684297","231406.35994","235289.593261","236056.718442","236823.036062","237589.687899","223773.007201","224540.320359","225307.350623","226056.859116","236832.900233","Mapping"
"Blocked","Female","cave","7","F_romp.wav","None","725.906519219","302","234540.041485","226823.255266","227589.397585","228356.239254","229123.166874","229890.03544","230639.684297","231406.35994","235289.593261","236056.718442","236823.036062","237589.687899","238356.731458","224540.320359","225307.350623","226056.859116","237599.606175","Mapping"
"Blocked","Female","cave","7","F_cave.wav","None","723.311937414","302","234540.041485","226823.255266","227589.397585","228356.239254","229123.166874","229890.03544","230639.684297","231406.35994","235289.593261","236056.718442","236823.036062","237589.687899","238356.731458","239123.393188","225307.350623","226056.859116","238366.607996","Mapping"
"Blocked","Female","cave","7","F_priest.wav","space","522.033691872","302","234540.041485","226823.255266","227589.397585","228356.239254","229123.166874","229890.03544","230639.684297","231406.35994","235289.593261","236056.718442","236823.036062","237589.687899","238356.731458","239123.393188","239872.906627","226056.859116","239133.482128","Mapping"
"Blocked","Female","cave","7","F_jolt.wav","None","734.962820541","302","234540.041485","226823.255266","227589.397585","228356.239254","229123.166874","229890.03544","230639.684297","231406.35994","235289.593261","236056.718442","236823.036062","237589.687899","238356.731458","239123.393188","239872.906627","240639.634829","239882.474919","Mapping"
"Blocked","Female","cave","7","F_priest.wav","None","732.584351208","302","234540.041485","241406.484846","227589.397585","228356.239254","229123.166874","229890.03544","230639.684297","231406.35994","235289.593261","236056.718442","236823.036062","237589.687899","238356.731458","239123.393188","239872.906627","240639.634829","240649.238367","Mapping"
"Blocked","Female","cave","7","F_greet.wav","None","730.077265296","302","234540.041485","241406.484846","242172.959217","228356.239254","229123.166874","229890.03544","230639.684297","231406.35994","235289.593261","236056.718442","236823.036062","237589.687899","238356.731458","239123.393188","239872.906627","240639.634829","241416.160421","Mapping"
"Blocked","Female","cave","7","F_jolt.wav","None","727.714872919","302","234540.041485","241406.484846","242172.959217","242939.408545","229123.166874","229890.03544","230639.684297","231406.35994","235289.593261","236056.718442","236823.036062","237589.687899","238356.731458","239123.393188","239872.906627","240639.634829","242182.922942","Mapping"
"Blocked","Female","cave","7","F_cave.wav","None","725.971445441","302","234540.041485","241406.484846","242172.959217","242939.408545","243706.73809","229890.03544","230639.684297","231406.35994","235289.593261","236056.718442","236823.036062","237589.687899","238356.731458","239123.393188","239872.906627","240639.634829","242949.123386","Mapping"
"Blocked","Female","cave","7","F_romp.wav","space","634.241302963","302","234540.041485","241406.484846","242172.959217","242939.408545","243706.73809","244473.30274","230639.684297","231406.35994","235289.593261","236056.718442","236823.036062","237589.687899","238356.731458","239123.393188","239872.906627","240639.634829","243717.238848","Mapping"
"Blocked","Female","cave","7","F_cave.wav","None","719.191586133","302","234540.041485","241406.484846","242172.959217","242939.408545","243706.73809","244473.30274","245222.804739","231406.35994","235289.593261","236056.718442","236823.036062","237589.687899","238356.731458","239123.393188","239872.906627","240639.634829","244483.349323","Mapping"
"Blocked","Female","cave","7","F_park.wav","space","591.28972562","302","234540.041485","241406.484846","242172.959217","242939.408545","243706.73809","244473.30274","245222.804739","245989.522738","235289.593261","236056.718442","236823.036062","237589.687899","238356.731458","239123.393188","239872.906627","240639.634829","245232.161247","Mapping"
"Blocked","Female","ball","6","F_knife.wav","None","730.776305776","302","249123.222833","241406.484846","242172.959217","242939.408545","243706.73809","244473.30274","245222.804739","245989.522738","235289.593261","236056.718442","236823.036062","237589.687899","238356.731458","239123.393188","239872.906627","240639.634829","245999.378562","Mapping"
"Blocked","Female","ball","6","F_gnash.wav","None","719.019685872","302","249123.222833","241406.484846","242172.959217","242939.408545","243706.73809","244473.30274","245222.804739","245989.522738","249872.765644","236056.718442","236823.036062","237589.687899","238356.731458","239123.393188","239872.906627","240639.634829","249133.416892","Mapping"
"Blocked","Female","ball","6","F_ball.wav","None","734.389613383","302","249123.222833","241406.484846","242172.959217","242939.408545","243706.73809","244473.30274","245222.804739","245989.522738","249872.765644","250639.469112","236823.036062","237589.687899","238356.731458","239123.393188","239872.906627","240639.634829","249882.498416","Mapping"
"Blocked","Female","ball","6","F_priest.wav","space","422.028528992","302","249123.222833","241406.484846","242172.959217","242939.408545","243706.73809","244473.30274","245222.804739","245989.522738","249872.765644","250639.469112","251406.03067","237589.687899","238356.731458","239123.393188","239872.906627","240639.634829","250649.320298","Mapping"
"Blocked","Female","ball","6","F_ball.wav","None","728.816457093","302","249123.222833","241406.484846","242172.959217","242939.408545","243706.73809","244473.30274","245222.804739","245989.522738","249872.765644","250639.469112","251406.03067","252172.737849","238356.731458","239123.393188","239872.906627","240639.634829","251415.808891","Mapping"
"Blocked","Female","ball","6","F_cad.wav","space","529.017914552","302","249123.222833","241406.484846","242172.959217","242939.408545","243706.73809","244473.30274","245222.804739","245989.522738","249872.765644","250639.469112","251406.03067","252172.737849","252939.696386","239123.393188","239872.906627","240639.634829","252182.286663","Mapping"
"Blocked","Female","ball","6","F_greet.wav","None","722.244671546","302","249123.222833","241406.484846","242172.959217","242939.408545","243706.73809","244473.30274","245222.804739","245989.522738","249872.765644","250639.469112","251406.03067","252172.737849","252939.696386","253706.731597","239872.906627","240639.634829","252949.949806","Mapping"
"Blocked","Female","ball","6","F_park.wav","None","720.373555552","302","249123.222833","241406.484846","242172.959217","242939.408545","243706.73809","244473.30274","245222.804739","245989.522738","249872.765644","250639.469112","251406.03067","252172.737849","252939.696386","253706.731597","254456.15012","240639.634829","253716.312256","Mapping"
"Blocked","Female","ball","6","F_reek.wav","None","735.121116973","302","249123.222833","241406.484846","242172.959217","242939.408545","243706.73809","244473.30274","245222.804739","245989.522738","249872.765644","250639.469112","251406.03067","252172.737849","252939.696386","253706.731597","254456.15012","255222.709204","254466.13054","Mapping"
"Blocked","Female","ball","6","F_gnash.wav","None","733.557009604","302","249123.222833","255989.348365","242172.959217","242939.408545","243706.73809","244473.30274","245222.804739","245989.522738","249872.765644","250639.469112","251406.03067","252172.737849","252939.696386","253706.731597","254456.15012","255222.709204","255232.34366","Mapping"
"Blocked","Female","ball","6","F_priest.wav","None","731.155352201","302","249123.222833","255989.348365","256755.672169","242939.408545","243706.73809","244473.30274","245222.804739","245989.522738","249872.765644","250639.469112","251406.03067","252172.737849","252939.696386","253706.731597","254456.15012","255222.709204","255999.27066","Mapping"
"Blocked","Female","ball","6","F_cad.wav","None","729.838892817","302","249123.222833","255989.348365","256755.672169","257522.728713","243706.73809","244473.30274","245222.804739","245989.522738","249872.765644","250639.469112","251406.03067","252172.737849","252939.696386","253706.731597","254456.15012","255222.709204","256765.145236","Mapping"
"Blocked","Female","ball","6","F_ball.wav","None","726.146746427","302","249123.222833","255989.348365","256755.672169","257522.728713","258289.355197","244473.30274","245222.804739","245989.522738","249872.765644","250639.469112","251406.03067","252172.737849","252939.696386","253706.731597","254456.15012","255222.709204","257533.224525","Mapping"
"Blocked","Female","ball","6","F_gnash.wav","space","347.924041096","302","249123.222833","255989.348365","256755.672169","257522.728713","258289.355197","259056.24417","245222.804739","245989.522738","249872.765644","250639.469112","251406.03067","252172.737849","252939.696386","253706.731597","254456.15012","255222.709204","258299.262962","Mapping"
"Blocked","Female","ball","6","F_ball.wav","None","720.747964457","302","249123.222833","255989.348365","256755.672169","257522.728713","258289.355197","259056.24417","259822.843757","245989.522738","249872.765644","250639.469112","251406.03067","252172.737849","252939.696386","253706.731597","254456.15012","255222.709204","259066.197074","Mapping"
"Blocked","Female","ball","6","F_greet.wav","space","550.455674995","302","249123.222833","255989.348365","256755.672169","257522.728713","258289.355197","259056.24417","259822.843757","260572.621229","249872.765644","250639.469112","251406.03067","252172.737849","252939.696386","253706.731597","254456.15012","255222.709204","259832.698961","Mapping"
"Blocked","Female","done","24","F_jolt.wav","None","732.439348474","302","263706.361517","255989.348365","256755.672169","257522.728713","258289.355197","259056.24417","259822.843757","260572.621229","249872.765644","250639.469112","251406.03067","252172.737849","252939.696386","253706.731597","254456.15012","255222.709204","260582.461594","Mapping"
"Blocked","Female","done","24","F_dime.wav","None","718.810066581","302","263706.361517","255989.348365","256755.672169","257522.728713","258289.355197","259056.24417","259822.843757","260572.621229","264455.644622","250639.469112","251406.03067","252172.737849","252939.696386","253706.731597","254456.15012","255222.709204","263716.516929","Mapping"
"Blocked","Female","done","24","F_done.wav","None","734.742070548","302","263706.361517","255989.348365","256755.672169","257522.728713","258289.355197","259056.24417","259822.843757","260572.621229","264455.644622","265222.668084","251406.03067","252172.737849","252939.696386","253706.731597","254456.15012","255222.709204","264465.241358","Mapping"
"Blocked","Female","done","24","F_dime.wav","space","702.122133691","302","263706.361517","255989.348365","256755.672169","257522.728713","258289.355197","259056.24417","259822.843757","260572.621229","264455.644622","265222.668084","265989.155131","252172.737849","252939.696386","253706.731597","254456.15012","255222.709204","265232.94191","Mapping"
"Blocked","Female","done","24","F_dime.wav","None","728.286843747","302","263706.361517","255989.348365","256755.672169","257522.728713","258289.355197","259056.24417","259822.843757","260572.621229","264455.644622","265222.668084","265989.155131","266756.309993","252939.696386","253706.731597","254456.15012","255222.709204","265999.424319","Mapping"
"Blocked","Female","done","24","F_lash.wav","None","726.391611621","302","263706.361517","255989.348365","256755.672169","257522.728713","258289.355197","259056.24417","259822.843757","260572.621229","264455.644622","265222.668084","265989.155131","266756.309993","267522.542591","253706.731597","254456.15012","255222.709204","266765.941048","Mapping"
"Blocked","Female","done","24","F_depth.wav","None","724.461134523","302","263706.361517","255989.348365","256755.672169","257522.728713","258289.355197","259056.24417","259822.843757","260572.621229","264455.644622","265222.668084","265989.155131","266756.309993","267522.542591","268289.401883","254456.15012","255222.709204","267532.573097","Mapping"
"Blocked","Female","done","24","F_done.wav","None","722.210044507","302","263706.361517","255989.348365","256755.672169","257522.728713","258289.355197","259056.24417","259822.843757","260572.621229","264455.644622","265222.668084","265989.155131","266756.309993","267522.542591","268289.401883","269056.086183","255222.709204","268299.546164","Mapping"
"Blocked","Female","done","24","F_jolt.wav","space","388.849297538","302","263706.361517","255989.348365","256755.672169","257522.728713","258289.355197","259056.24417","259822.843757","260572.621229","264455.644622","265222.668084","265989.155131","266756.309993","267522.542591","268289.401883","269056.086183","269806.008348","269066.159973","Mapping"
"Blocked","Female","done","24","F_dime.wav","None","733.590400312","302","263706.361517","270572.466024","256755.672169","257522.728713","258289.355197","259056.24417","259822.843757","260572.621229","264455.644622","265222.668084","265989.155131","266756.309993","267522.542591","268289.401883","269056.086183","269806.008348","269815.900963","Mapping"
"Blocked","Female","done","24","F_done.wav","None","735.126063693","302","263706.361517","270572.466024","271338.86372","257522.728713","258289.355197","259056.24417","259822.843757","260572.621229","264455.644622","265222.668084","265989.155131","266756.309993","267522.542591","268289.401883","269056.086183","269806.008348","270579.014003","Mapping"
"Blocked","Female","done","24","F_dime.wav","space","634.937869851","302","263706.361517","270572.466024","271338.86372","272105.396835","258289.355197","259056.24417","259822.843757","260572.621229","264455.644622","265222.668084","265989.155131","266756.309993","267522.542591","268289.401883","269056.086183","269806.008348","271347.989895","Mapping"
"Blocked","Female","done","24","F_depth.wav","None","727.044276427","302","263706.361517","270572.466024","271338.86372","272105.396835","272872.383815","259056.24417","259822.843757","260572.621229","264455.644622","265222.668084","265989.155131","266756.309993","267522.542591","268289.401883","269056.086183","269806.008348","272114.606177","Mapping"
"Blocked","Female","done","24","F_done.wav","None","724.378276151","302","263706.361517","270572.466024","271338.86372","272105.396835","272872.383815","273639.45891","259822.843757","260572.621229","264455.644622","265222.668084","265989.155131","266756.309993","267522.542591","268289.401883","269056.086183","269806.008348","272881.968802","Mapping"
"Blocked","Female","done","24","F_jaw.wav","space","461.025163066","302","263706.361517","270572.466024","271338.86372","272105.396835","272872.383815","273639.45891","274389.010068","260572.621229","264455.644622","265222.668084","265989.155131","266756.309993","267522.542591","268289.401883","269056.086183","269806.008348","273649.887631","Mapping"
"Blocked","Female","done","24","F_jolt.wav","None","735.256535001","302","263706.361517","270572.466024","271338.86372","272105.396835","272872.383815","273639.45891","274389.010068","275155.803815","264455.644622","265222.668084","265989.155131","266756.309993","267522.542591","268289.401883","269056.086183","269806.008348","274398.823534","Mapping"
"Blocked","Female","tile","17","F_priest.wav","None","733.933273703","302","278289.347778","270572.466024","271338.86372","272105.396835","272872.383815","273639.45891","274389.010068","275155.803815","264455.644622","265222.668084","265989.155131","266756.309993","267522.542591","268289.401883","269056.086183","269806.008348","275165.007592","Mapping"
"Blocked","Female","tile","17","F_dime.wav","None","720.081386622","302","278289.347778","270572.466024","271338.86372","272105.396835","272872.383815","273639.45891","274389.010068","275155.803815","279038.659944","265222.668084","265989.155131","266756.309993","267522.542591","268289.401883","269056.086183","269806.008348","278298.98718","Mapping"
"Blocked","Female","tile","17","F_cad.wav","None","735.116479453","302","278289.347778","270572.466024","271338.86372","272105.396835","272872.383815","273639.45891","274389.010068","275155.803815","279038.659944","279805.829646","265989.155131","266756.309993","267522.542591","268289.401883","269056.086183","269806.008348","279048.782584","Mapping"
"Blocked","Female","tile","17","F_knife.wav","None","733.379853889","302","278289.347778","270572.466024","271338.86372","272105.396835","272872.383815","273639.45891","274389.010068","275155.803815","279038.659944","279805.829646","280572.256404","266756.309993","267522.542591","268289.401883","269056.086183","269806.008348","279815.212125","Mapping"
"Blocked","Female","tile","17","F_tile.wav","None","731.18719738","302","278289.347778","270572.466024","271338.86372","272105.396835","272872.383815","273639.45891","274389.010068","275155.803815","279038.659944","279805.829646","280572.256404","281338.89371","267522.542591","268289.401883","269056.086183","269806.008348","280582.143145","Mapping"
"Blocked","Female","tile","17","F_cling.wav","space","466.007179581","302","278289.347778","270572.466024","271338.86372","272105.396835","272872.383815","273639.45891","274389.010068","275155.803815","279038.659944","279805.829646","280572.256404","281338.89371","282105.945926","268289.401883","269056.086183","269806.008348","281348.774577","Mapping"
"Blocked","Female","tile","17","F_priest.wav","None","725.495936815","302","278289.347778","270572.466024","271338.86372","272105.396835","272872.383815","273639.45891","274389.010068","275155.803815","279038.659944","279805.829646","280572.256404","281338.89371","282105.945926","282871.87708","269056.086183","269806.008348","282115.69694","Mapping"
"Blocked","Female","tile","17","F_romp.wav","None","724.586349446","302","278289.347778","270572.466024","271338.86372","272105.396835","272872.383815","273639.45891","274389.010068","275155.803815","279038.659944","279805.829646","280572.256404","281338.89371","282105.945926","282871.87708","283639.141698","269806.008348","282881.398378","Mapping"
"Blocked","Female","tile","17","F_reek.wav","None","721.974763554","302","278289.347778","270572.466024","271338.86372","272105.396835","272872.383815","273639.45891","274389.010068","275155.803815","279038.659944","279805.829646","280572.256404","281338.89371","282105.945926","282871.87708","283639.141698","284405.95616","283648.8148","Mapping"
"Blocked","Female","tile","17","F_cling.wav","None","719.723054674","302","278289.347778","285155.225661","271338.86372","272105.396835","272872.383815","273639.45891","274389.010068","275155.803815","279038.659944","279805.829646","280572.256404","281338.89371","282105.945926","282871.87708","283639.141698","284405.95616","284415.870726","Mapping"
"Blocked","Female","tile","17","F_tile.wav","None","735.134102404","302","278289.347778","285155.225661","285922.191618","272105.396835","272872.383815","273639.45891","274389.010068","275155.803815","279038.659944","279805.829646","280572.256404","281338.89371","282105.945926","282871.87708","283639.141698","284405.95616","285165.196187","Mapping"
"Blocked","Female","tile","17","F_reek.wav","space","434.527164325","302","278289.347778","285155.225661","285922.191618","286688.803571","272872.383815","273639.45891","274389.010068","275155.803815","279038.659944","279805.829646","280572.256404","281338.89371","282105.945926","282871.87708","283639.141698","284405.95616","285932.15256","Mapping"
