"Condition","Talker","Target","Trial","current_stimulus","response_response","response_time_response","subject_nr","time_Audio1","time_Audio10","time_Audio11","time_Audio12","time_Audio13","time_Audio14","time_Audio15","time_Audio16","time_Audio2","time_Audio3","time_Audio4","time_Audio5","time_Audio6","time_Audio7","time_Audio8","time_Audio9","time_response"
"Blocked","Male","tile","14","M_cad.wav","NA","NA","241","272758.589037","NA","NA","NA","NA","NA","NA","NA","NA","NA","NA","NA","NA","NA","NA","NA","NA"
"Blocked","Male","tile","14","M_tile.wav","None","717.236692784","241","272758.589037","NA","NA","NA","NA","NA","NA","NA","273525.380959","NA","NA","NA","NA","NA","NA","NA","272773.905911"
"Blocked","Male","tile","14","M_priest.wav","space","628.093858948","241","272758.589037","NA","NA","NA","NA","NA","NA","NA","273525.380959","274291.324519","NA","NA","NA","NA","NA","NA","273535.639202"
"Blocked","Male","tile","14","M_knife.wav","None","722.295941901","241","272758.589037","NA","NA","NA","NA","NA","NA","NA","273525.380959","274291.324519","275057.942378","NA","NA","NA","NA","NA","274300.877237"
"Blocked","Male","tile","14","M_tile.wav","None","721.614532522","241","272758.589037","NA","NA","NA","NA","NA","NA","NA","273525.380959","274291.324519","275057.942378","275825.17703","NA","NA","NA","NA","275067.503753"
"Blocked","Male","tile","14","M_bluff.wav","space","575.459611369","241","272758.589037","NA","NA","NA","NA","NA","NA","NA","273525.380959","274291.324519","275057.942378","275825.17703","276591.869399","NA","NA","NA","275836.183773"
"Blocked","Male","tile","14","M_tile.wav","None","719.493939076","241","272758.589037","NA","NA","NA","NA","NA","NA","NA","273525.380959","274291.324519","275057.942378","275825.17703","276591.869399","277341.007435","NA","NA","276601.90906"
"Blocked","Male","tile","14","M_cave.wav","space","501.118575223","241","272758.589037","NA","NA","NA","NA","NA","NA","NA","273525.380959","274291.324519","275057.942378","275825.17703","276591.869399","277341.007435","278108.069261","NA","277350.497083"
"Blocked","Male","tile","14","M_cave.wav","None","734.864608501","241","272758.589037","NA","NA","NA","NA","NA","NA","NA","273525.380959","274291.324519","275057.942378","275825.17703","276591.869399","277341.007435","278108.069261","278874.835522","278118.014934"
"Blocked","Male","tile","14","M_tile.wav","None","734.096322325","241","272758.589037","279641.547678","NA","NA","NA","NA","NA","NA","273525.380959","274291.324519","275057.942378","275825.17703","276591.869399","277341.007435","278108.069261","278874.835522","278884.591983"
"Blocked","Male","tile","14","M_cad.wav","space","496.067364351","241","272758.589037","279641.547678","280408.249012","NA","NA","NA","NA","NA","273525.380959","274291.324519","275057.942378","275825.17703","276591.869399","277341.007435","278108.069261","278874.835522","279651.466762"
"Blocked","Male","tile","14","M_romp.wav","None","732.629004051","241","272758.589037","279641.547678","280408.249012","281174.398789","NA","NA","NA","NA","273525.380959","274291.324519","275057.942378","275825.17703","276591.869399","277341.007435","278108.069261","278874.835522","280418.063906"
"Blocked","Male","tile","14","M_reek.wav","None","733.093685703","241","272758.589037","279641.547678","280408.249012","281174.398789","281941.163194","NA","NA","NA","273525.380959","274291.324519","275057.942378","275825.17703","276591.869399","277341.007435","278108.069261","278874.835522","281184.098981"
"Blocked","Male","tile","14","M_done.wav","None","732.638588408","241","272758.589037","279641.547678","280408.249012","281174.398789","281941.163194","282707.749518","NA","NA","273525.380959","274291.324519","275057.942378","275825.17703","276591.869399","277341.007435","278108.069261","278874.835522","281950.398705"
"Blocked","Male","tile","14","M_lash.wav","None","731.797956512","241","272758.589037","279641.547678","280408.249012","281174.398789","281941.163194","282707.749518","283474.941196","NA","273525.380959","274291.324519","275057.942378","275825.17703","276591.869399","277341.007435","278108.069261","278874.835522","282717.26761"
"Blocked","Male","tile","14","M_lash.wav","None","730.176053476","241","272758.589037","279641.547678","280408.249012","281174.398789","281941.163194","282707.749518","283474.941196","284241.106431","273525.380959","274291.324519","275057.942378","275825.17703","276591.869399","277341.007435","278108.069261","278874.835522","283484.973436"
"Blocked","Male","ball","5","M_reek.wav","None","731.039254693","241","287391.864576","279641.547678","280408.249012","281174.398789","281941.163194","282707.749518","283474.941196","284241.106431","273525.380959","274291.324519","275057.942378","275825.17703","276591.869399","277341.007435","278108.069261","278874.835522","284250.49869"
"Blocked","Male","ball","5","M_reek.wav","None","721.458710963","241","287391.864576","279641.547678","280408.249012","281174.398789","281941.163194","282707.749518","283474.941196","284241.106431","288158.501913","274291.324519","275057.942378","275825.17703","276591.869399","277341.007435","278108.069261","278874.835522","287401.964525"
"Blocked","Male","ball","5","M_ball.wav","None","720.607258263","241","287391.864576","279641.547678","280408.249012","281174.398789","281941.163194","282707.749518","283474.941196","284241.106431","288158.501913","288925.090401","275057.942378","275825.17703","276591.869399","277341.007435","278108.069261","278874.835522","288168.744698"
"Blocked","Male","ball","5","M_bluff.wav","space","460.367256193","241","287391.864576","279641.547678","280408.249012","281174.398789","281941.163194","282707.749518","283474.941196","284241.106431","288158.501913","288925.090401","289692.250234","275825.17703","276591.869399","277341.007435","278108.069261","278874.835522","288934.895711"
"Blocked","Male","ball","5","M_priest.wav","None","718.186770566","241","287391.864576","279641.547678","280408.249012","281174.398789","281941.163194","282707.749518","283474.941196","284241.106431","288158.501913","288925.090401","289692.250234","290458.617666","276591.869399","277341.007435","278108.069261","278874.835522","289702.684086"
"Blocked","Male","ball","5","M_cad.wav","None","718.539223657","241","287391.864576","279641.547678","280408.249012","281174.398789","281941.163194","282707.749518","283474.941196","284241.106431","288158.501913","288925.090401","289692.250234","290458.617666","291207.718911","277341.007435","278108.069261","278874.835522","290468.805419"
"Blocked","Male","ball","5","M_jolt.wav","None","735.75068824","241","287391.864576","279641.547678","280408.249012","281174.398789","281941.163194","282707.749518","283474.941196","284241.106431","288158.501913","288925.090401","289692.250234","290458.617666","291207.718911","291974.412516","278108.069261","278874.835522","291216.968334"
"Blocked","Male","ball","5","M_ball.wav","None","734.628402977","241","287391.864576","279641.547678","280408.249012","281174.398789","281941.163194","282707.749518","283474.941196","284241.106431","288158.501913","288925.090401","289692.250234","290458.617666","291207.718911","291974.412516","292740.850129","278874.835522","291984.086738"
"Blocked","Male","ball","5","M_depth.wav","space","428.826095886","241","287391.864576","279641.547678","280408.249012","281174.398789","281941.163194","282707.749518","283474.941196","284241.106431","288158.501913","288925.090401","289692.250234","290458.617666","291207.718911","291974.412516","292740.850129","293507.883512","292750.325246"
"Blocked","Male","ball","5","M_dime.wav","None","732.159684878","241","287391.864576","294274.156648","280408.249012","281174.398789","281941.163194","282707.749518","283474.941196","284241.106431","288158.501913","288925.090401","289692.250234","290458.617666","291207.718911","291974.412516","292740.850129","293507.883512","293518.400221"
"Blocked","Male","ball","5","M_done.wav","None","733.430062188","241","287391.864576","294274.156648","295040.88117","281174.398789","281941.163194","282707.749518","283474.941196","284241.106431","288158.501913","288925.090401","289692.250234","290458.617666","291207.718911","291974.412516","292740.850129","293507.883512","294283.434205"
"Blocked","Male","ball","5","M_cave.wav","None","732.884687139","241","287391.864576","294274.156648","295040.88117","295807.303634","281941.163194","282707.749518","283474.941196","284241.106431","288158.501913","288925.090401","289692.250234","290458.617666","291207.718911","291974.412516","292740.850129","293507.883512","295050.092256"
"Blocked","Male","ball","5","M_ball.wav","None","733.403164428","241","287391.864576","294274.156648","295040.88117","295807.303634","296574.491911","282707.749518","283474.941196","284241.106431","288158.501913","288925.090401","289692.250234","290458.617666","291207.718911","291974.412516","292740.850129","293507.883512","295816.373121"
"Blocked","Male","ball","5","M_cad.wav","space","458.882933599","241","287391.864576","294274.156648","295040.88117","295807.303634","296574.491911","297341.179333","283474.941196","284241.106431","288158.501913","288925.090401","289692.250234","290458.617666","291207.718911","291974.412516","292740.850129","293507.883512","296584.150365"
"Blocked","Male","ball","5","M_ball.wav","None","729.688802385","241","287391.864576","294274.156648","295040.88117","295807.303634","296574.491911","297341.179333","298107.875103","284241.106431","288158.501913","288925.090401","289692.250234","290458.617666","291207.718911","291974.412516","292740.850129","293507.883512","297351.163652"
"Blocked","Male","ball","5","M_cad.wav","space","629.469044623","241","287391.864576","294274.156648","295040.88117","295807.303634","296574.491911","297341.179333","298107.875103","298874.430819","288158.501913","288925.090401","289692.250234","290458.617666","291207.718911","291974.412516","292740.850129","293507.883512","298117.511915"
"Blocked","Male","tile","16","M_depth.wav","None","729.480113019","241","302008.011509","294274.156648","295040.88117","295807.303634","296574.491911","297341.179333","298107.875103","298874.430819","288158.501913","288925.090401","289692.250234","290458.617666","291207.718911","291974.412516","292740.850129","293507.883512","298883.727545"
"Blocked","Male","tile","16","M_dime.wav","None","726.84227908","241","302008.011509","294274.156648","295040.88117","295807.303634","296574.491911","297341.179333","298107.875103","298874.430819","302774.089249","288925.090401","289692.250234","290458.617666","291207.718911","291974.412516","292740.850129","293507.883512","302013.318093"
"Blocked","Male","tile","16","M_ball.wav","None","722.960965591","241","302008.011509","294274.156648","295040.88117","295807.303634","296574.491911","297341.179333","298107.875103","298874.430819","302774.089249","303541.283709","289692.250234","290458.617666","291207.718911","291974.412516","292740.850129","293507.883512","302783.388448"
"Blocked","Male","tile","16","M_tile.wav","None","720.271191094","241","302008.011509","294274.156648","295040.88117","295807.303634","296574.491911","297341.179333","298107.875103","298874.430819","302774.089249","303541.283709","304308.120769","290458.617666","291207.718911","291974.412516","292740.850129","293507.883512","303551.740439"
"Blocked","Male","tile","16","M_lash.wav","space","500.446749851","241","302008.011509","294274.156648","295040.88117","295807.303634","296574.491911","297341.179333","298107.875103","298874.430819","302774.089249","303541.283709","304308.120769","305074.064948","291207.718911","291974.412516","292740.850129","293507.883512","304318.333255"
"Blocked","Male","tile","16","M_depth.wav","None","720.336116618","241","302008.011509","294274.156648","295040.88117","295807.303634","296574.491911","297341.179333","298107.875103","298874.430819","302774.089249","303541.283709","304308.120769","305074.064948","305841.413374","291974.412516","292740.850129","293507.883512","305083.783999"
"Blocked","Male","tile","16","M_cling.wav","None","718.359905411","241","302008.011509","294274.156648","295040.88117","295807.303634","296574.491911","297341.179333","298107.875103","298874.430819","302774.089249","303541.283709","304308.120769","305074.064948","305841.413374","306608.115328","292740.850129","293507.883512","305851.918026"
"Blocked","Male","tile","16","M_tile.wav","None","718.310747528","241","302008.011509","294274.156648","295040.88117","295807.303634","296574.491911","297341.179333","298107.875103","298874.430819","302774.089249","303541.283709","304308.120769","305074.064948","305841.413374","306608.115328","307357.308086","293507.883512","306618.085734"
"Blocked","Male","tile","16","M_greet.wav","space","444.143279106","241","302008.011509","294274.156648","295040.88117","295807.303634","296574.491911","297341.179333","298107.875103","298874.430819","302774.089249","303541.283709","304308.120769","305074.064948","305841.413374","306608.115328","307357.308086","308124.126287","307366.577605"
"Blocked","Male","tile","16","M_tile.wav","None","734.258636367","241","302008.011509","308890.735489","295040.88117","295807.303634","296574.491911","297341.179333","298107.875103","298874.430819","302774.089249","303541.283709","304308.120769","305074.064948","305841.413374","306608.115328","307357.308086","308124.126287","308133.9081"
"Blocked","Male","tile","16","M_lash.wav","space","478.447177797","241","302008.011509","308890.735489","309657.413018","295807.303634","296574.491911","297341.179333","298107.875103","298874.430819","302774.089249","303541.283709","304308.120769","305074.064948","305841.413374","306608.115328","307357.308086","308124.126287","308900.228847"
"Blocked","Male","tile","16","M_jolt.wav","None","732.291700202","241","302008.011509","308890.735489","309657.413018","310423.712742","296574.491911","297341.179333","298107.875103","298874.430819","302774.089249","303541.283709","304308.120769","305074.064948","305841.413374","306608.115328","307357.308086","308124.126287","309667.234096"
"Blocked","Male","tile","16","M_romp.wav","None","732.936009415","241","302008.011509","308890.735489","309657.413018","310423.712742","311190.773023","297341.179333","298107.875103","298874.430819","302774.089249","303541.283709","304308.120769","305074.064948","305841.413374","306608.115328","307357.308086","308124.126287","310432.970822"
"Blocked","Male","tile","16","M_ball.wav","None","730.80645001","241","302008.011509","308890.735489","309657.413018","310423.712742","311190.773023","311956.945368","298107.875103","298874.430819","302774.089249","303541.283709","304308.120769","305074.064948","305841.413374","306608.115328","307357.308086","308124.126287","311201.230062"
"Blocked","Male","tile","16","M_tile.wav","None","732.518939767","241","302008.011509","308890.735489","309657.413018","310423.712742","311190.773023","311956.945368","312723.638047","298874.430819","302774.089249","303541.283709","304308.120769","305074.064948","305841.413374","306608.115328","307357.308086","308124.126287","311965.718052"
"Blocked","Male","tile","16","M_cad.wav","space","493.589680176","241","302008.011509","308890.735489","309657.413018","310423.712742","311190.773023","311956.945368","312723.638047","313490.612069","302774.089249","303541.283709","304308.120769","305074.064948","305841.413374","306608.115328","307357.308086","308124.126287","312732.949613"
"Blocked","Male","cave","8","M_knife.wav","None","729.365720297","241","316624.236661","308890.735489","309657.413018","310423.712742","311190.773023","311956.945368","312723.638047","313490.612069","302774.089249","303541.283709","304308.120769","305074.064948","305841.413374","306608.115328","307357.308086","308124.126287","313500.640599"
"Blocked","Male","cave","8","M_gnash.wav","None","722.3330423","241","316624.236661","308890.735489","309657.413018","310423.712742","311190.773023","311956.945368","312723.638047","313490.612069","317390.957473","303541.283709","304308.120769","305074.064948","305841.413374","306608.115328","307357.308086","308124.126287","316634.393187"
"Blocked","Male","cave","8","M_cling.wav","None","719.769099844","241","316624.236661","308890.735489","309657.413018","310423.712742","311190.773023","311956.945368","312723.638047","313490.612069","317390.957473","318157.586771","304308.120769","305074.064948","305841.413374","306608.115328","307357.308086","308124.126287","317403.116181"
"Blocked","Male","cave","8","M_cave.wav","None","719.253714313","241","316624.236661","308890.735489","309657.413018","310423.712742","311190.773023","311956.945368","312723.638047","313490.612069","317390.957473","318157.586771","318924.225654","305074.064948","305841.413374","306608.115328","307357.308086","308124.126287","318169.676844"
"Blocked","Male","cave","8","M_park.wav","space","524.245688226","241","316624.236661","308890.735489","309657.413018","310423.712742","311190.773023","311956.945368","312723.638047","313490.612069","317390.957473","318157.586771","318924.225654","319690.337094","305841.413374","306608.115328","307357.308086","308124.126287","318934.050442"
"Blocked","Male","cave","8","M_done.wav","None","721.392857959","241","316624.236661","308890.735489","309657.413018","310423.712742","311190.773023","311956.945368","312723.638047","313490.612069","317390.957473","318157.586771","318924.225654","319690.337094","320456.88539","306608.115328","307357.308086","308124.126287","319699.192326"
"Blocked","Male","cave","8","M_cave.wav","None","721.027110354","241","316624.236661","308890.735489","309657.413018","310423.712742","311190.773023","311956.945368","312723.638047","313490.612069","317390.957473","318157.586771","318924.225654","319690.337094","320456.88539","321224.255458","307357.308086","308124.126287","320465.796272"
"Blocked","Male","cave","8","M_reek.wav","space","583.928381559","241","316624.236661","308890.735489","309657.413018","310423.712742","311190.773023","311956.945368","312723.638047","313490.612069","317390.957473","318157.586771","318924.225654","319690.337094","320456.88539","321224.255458","321973.963293","308124.126287","321234.3316"
"Blocked","Male","cave","8","M_priest.wav","None","734.993532184","241","316624.236661","308890.735489","309657.413018","310423.712742","311190.773023","311956.945368","312723.638047","313490.612069","317390.957473","318157.586771","318924.225654","319690.337094","320456.88539","321224.255458","321973.963293","322740.097611","321983.676161"
"Blocked","Male","cave","8","M_park.wav","None","735.218607588","241","316624.236661","323506.744841","309657.413018","310423.712742","311190.773023","311956.945368","312723.638047","313490.612069","317390.957473","318157.586771","318924.225654","319690.337094","320456.88539","321224.255458","321973.963293","322740.097611","322749.741225"
"Blocked","Male","cave","8","M_done.wav","None","735.170686385","241","316624.236661","323506.744841","324273.640644","310423.712742","311190.773023","311956.945368","312723.638047","313490.612069","317390.957473","318157.586771","318924.225654","319690.337094","320456.88539","321224.255458","321973.963293","322740.097611","323516.389383"
"Blocked","Male","cave","8","M_dime.wav","None","734.310576809","241","316624.236661","323506.744841","324273.640644","325040.102681","311190.773023","311956.945368","312723.638047","313490.612069","317390.957473","318157.586771","318924.225654","319690.337094","320456.88539","321224.255458","321973.963293","322740.097611","324283.28704"
"Blocked","Male","cave","8","M_cave.wav","None","735.213351669","241","316624.236661","323506.744841","324273.640644","325040.102681","325806.675711","311956.945368","312723.638047","313490.612069","317390.957473","318157.586771","318924.225654","319690.337094","320456.88539","321224.255458","321973.963293","322740.097611","325049.416412"
"Blocked","Male","cave","8","M_knife.wav","space","577.863403945","241","316624.236661","323506.744841","324273.640644","325040.102681","325806.675711","326573.013462","312723.638047","313490.612069","317390.957473","318157.586771","318924.225654","319690.337094","320456.88539","321224.255458","321973.963293","322740.097611","325816.273568"
"Blocked","Male","cave","8","M_cave.wav","None","734.916858142","241","316624.236661","323506.744841","324273.640644","325040.102681","325806.675711","326573.013462","327340.184117","313490.612069","317390.957473","318157.586771","318924.225654","319690.337094","320456.88539","321224.255458","321973.963293","322740.097611","326582.713655"
"Blocked","Male","cave","8","M_park.wav","None","734.152900404","241","316624.236661","323506.744841","324273.640644","325040.102681","325806.675711","326573.013462","327340.184117","328106.876486","317390.957473","318157.586771","318924.225654","319690.337094","320456.88539","321224.255458","321973.963293","322740.097611","327349.777336"
"Blocked","Male","done","21","M_tile.wav","space","0.0349361216649","241","331240.505096","323506.744841","324273.640644","325040.102681","325806.675711","326573.013462","327340.184117","328106.876486","317390.957473","318157.586771","318924.225654","319690.337094","320456.88539","321224.255458","321973.963293","322740.097611","328116.722915"
"Blocked","Male","done","21","M_bluff.wav","None","721.825385932","241","331240.505096","323506.744841","324273.640644","325040.102681","325806.675711","326573.013462","327340.184117","328106.876486","332007.216943","318157.586771","318924.225654","319690.337094","320456.88539","321224.255458","321973.963293","322740.097611","331250.278253"
"Blocked","Male","done","21","M_gnash.wav","None","726.567736594","241","331240.505096","323506.744841","324273.640644","325040.102681","325806.675711","326573.013462","327340.184117","328106.876486","332007.216943","332773.780388","318924.225654","319690.337094","320456.88539","321224.255458","321973.963293","322740.097611","332011.822641"
"Blocked","Male","done","21","M_done.wav","None","725.928064901","241","331240.505096","323506.744841","324273.640644","325040.102681","325806.675711","326573.013462","327340.184117","328106.876486","332007.216943","332773.780388","333539.783309","319690.337094","320456.88539","321224.255458","321973.963293","322740.097611","332779.116344"
"Blocked","Male","done","21","M_dime.wav","space","564.966399455","241","331240.505096","323506.744841","324273.640644","325040.102681","325806.675711","326573.013462","327340.184117","328106.876486","332007.216943","332773.780388","333539.783309","334306.887492","320456.88539","321224.255458","321973.963293","322740.097611","333548.967498"
"Blocked","Male","done","21","M_lash.wav","None","719.915027847","241","331240.505096","323506.744841","324273.640644","325040.102681","325806.675711","326573.013462","327340.184117","328106.876486","332007.216943","332773.780388","333539.783309","334306.887492","335073.127237","321224.255458","321973.963293","322740.097611","334317.44532"
"Blocked","Male","done","21","M_done.wav","None","721.354211797","241","331240.505096","323506.744841","324273.640644","325040.102681","325806.675711","326573.013462","327340.184117","328106.876486","332007.216943","332773.780388","333539.783309","334306.887492","335073.127237","335840.383531","321973.963293","322740.097611","335082.284218"
"Blocked","Male","done","21","M_knife.wav","space","599.782282952","241","331240.505096","323506.744841","324273.640644","325040.102681","325806.675711","326573.013462","327340.184117","328106.876486","332007.216943","332773.780388","333539.783309","334306.887492","335073.127237","335840.383531","336606.978821","322740.097611","335850.060844"
"Blocked","Male","done","21","M_done.wav","None","718.007452204","241","331240.505096","323506.744841","324273.640644","325040.102681","325806.675711","326573.013462","327340.184117","328106.876486","332007.216943","332773.780388","333539.783309","334306.887492","335073.127237","335840.383531","336606.978821","337356.217645","336617.402469"
"Blocked","Male","done","21","M_park.wav","space","452.56289118","241","331240.505096","338123.015441","324273.640644","325040.102681","325806.675711","326573.013462","327340.184117","328106.876486","332007.216943","332773.780388","333539.783309","334306.887492","335073.127237","335840.383531","336606.978821","337356.217645","337365.234882"
"Blocked","Male","done","21","M_lash.wav","None","734.075607965","241","331240.505096","338123.015441","338889.690187","325040.102681","325806.675711","326573.013462","327340.184117","328106.876486","332007.216943","332773.780388","333539.783309","334306.887492","335073.127237","335840.383531","336606.978821","337356.217645","338133.268737"
"Blocked","Male","done","21","M_lash.wav","None","735.037434264","241","331240.505096","338123.015441","338889.690187","339656.343292","325806.675711","326573.013462","327340.184117","328106.876486","332007.216943","332773.780388","333539.783309","334306.887492","335073.127237","335840.383531","336606.978821","337356.217645","338899.017521"
"Blocked","Male","done","21","M_done.wav","None","734.504426015","241","331240.505096","338123.015441","338889.690187","339656.343292","340422.747206","326573.013462","327340.184117","328106.876486","332007.216943","332773.780388","333539.783309","334306.887492","335073.127237","335840.383531","336606.978821","337356.217645","339665.879933"
"Blocked","Male","done","21","M_cad.wav","space","441.784934374","241","331240.505096","338123.015441","338889.690187","339656.343292","340422.747206","341189.844896","327340.184117","328106.876486","332007.216943","332773.780388","333539.783309","334306.887492","335073.127237","335840.383531","336606.978821","337356.217645","340431.915008"
"Blocked","Male","done","21","M_reek.wav","None","732.62312985","241","331240.505096","338123.015441","338889.690187","339656.343292","340422.747206","341189.844896","341956.491508","328106.876486","332007.216943","332773.780388","333539.783309","334306.887492","335073.127237","335840.383531","336606.978821","337356.217645","341199.752541"
"Blocked","Male","done","21","M_jolt.wav","None","732.526668929","241","331240.505096","338123.015441","338889.690187","339656.343292","340422.747206","341189.844896","341956.491508","342723.180167","332007.216943","332773.780388","333539.783309","334306.887492","335073.127237","335840.383531","336606.978821","337356.217645","341965.879748"
"Blocked","Male","ball","6","M_dime.wav","None","732.163704","241","345856.473329","338123.015441","338889.690187","339656.343292","340422.747206","341189.844896","341956.491508","342723.180167","332007.216943","332773.780388","333539.783309","334306.887492","335073.127237","335840.383531","336606.978821","337356.217645","342732.58201"
"Blocked","Male","ball","6","M_bluff.wav","None","722.307999618","241","345856.473329","338123.015441","338889.690187","339656.343292","340422.747206","341189.844896","341956.491508","342723.180167","346622.695142","332773.780388","333539.783309","334306.887492","335073.127237","335840.383531","336606.978821","337356.217645","345866.491347"
"Blocked","Male","ball","6","M_greet.wav","None","723.161925678","241","345856.473329","338123.015441","338889.690187","339656.343292","340422.747206","341189.844896","341956.491508","342723.180167","346622.695142","347389.950817","333539.783309","334306.887492","335073.127237","335840.383531","336606.978821","337356.217645","346632.072252"
"Blocked","Male","ball","6","M_ball.wav","None","721.868669731","241","345856.473329","338123.015441","338889.690187","339656.343292","340422.747206","341189.844896","341956.491508","342723.180167","346622.695142","347389.950817","348156.919275","334306.887492","335073.127237","335840.383531","336606.978821","337356.217645","347399.789517"
"Blocked","Male","ball","6","M_jaw.wav","space","522.432409343","241","345856.473329","338123.015441","338889.690187","339656.343292","340422.747206","341189.844896","341956.491508","342723.180167","346622.695142","347389.950817","348156.919275","348922.717835","335073.127237","335840.383531","336606.978821","337356.217645","348167.037464"
"Blocked","Male","ball","6","M_ball.wav","None","722.506177262","241","345856.473329","338123.015441","338889.690187","339656.343292","340422.747206","341189.844896","341956.491508","342723.180167","346622.695142","347389.950817","348156.919275","348922.717835","349689.330438","335840.383531","336606.978821","337356.217645","348931.933249"
"Blocked","Male","ball","6","M_romp.wav","space","566.567897331","241","345856.473329","338123.015441","338889.690187","339656.343292","340422.747206","341189.844896","341956.491508","342723.180167","346622.695142","347389.950817","348156.919275","348922.717835","349689.330438","350456.76234","336606.978821","337356.217645","349698.860278"
"Blocked","Male","ball","6","M_ball.wav","None","720.522855059","241","345856.473329","338123.015441","338889.690187","339656.343292","340422.747206","341189.844896","341956.491508","342723.180167","346622.695142","347389.950817","348156.919275","348922.717835","349689.330438","350456.76234","351222.50525","337356.217645","350466.551573"
"Blocked","Male","ball","6","M_cling.wav","space","465.849140193","241","345856.473329","338123.015441","338889.690187","339656.343292","340422.747206","341189.844896","341956.491508","342723.180167","346622.695142","347389.950817","348156.919275","348922.717835","349689.330438","350456.76234","351222.50525","351989.313248","351231.550312"
"Blocked","Male","ball","6","M_jaw.wav","None","721.963584772","241","345856.473329","352755.950276","338889.690187","339656.343292","340422.747206","341189.844896","341956.491508","342723.180167","346622.695142","347389.950817","348156.919275","348922.717835","349689.330438","350456.76234","351222.50525","351989.313248","351998.448587"
"Blocked","Male","ball","6","M_romp.wav","None","721.734490129","241","345856.473329","352755.950276","353523.185237","339656.343292","340422.747206","341189.844896","341956.491508","342723.180167","346622.695142","347389.950817","348156.919275","348922.717835","349689.330438","350456.76234","351222.50525","351989.313248","352765.146212"
"Blocked","Male","ball","6","M_gnash.wav","None","720.074868528","241","345856.473329","352755.950276","353523.185237","354289.793203","340422.747206","341189.844896","341956.491508","342723.180167","346622.695142","347389.950817","348156.919275","348922.717835","349689.330438","350456.76234","351222.50525","351989.313248","353533.297552"
"Blocked","Male","ball","6","M_ball.wav","None","719.828460366","241","345856.473329","352755.950276","353523.185237","354289.793203","355056.386019","341189.844896","341956.491508","342723.180167","346622.695142","347389.950817","348156.919275","348922.717835","349689.330438","350456.76234","351222.50525","351989.313248","354299.870891"
"Blocked","Male","ball","6","M_priest.wav","space","470.442470978","241","345856.473329","352755.950276","353523.185237","354289.793203","355056.386019","355822.486328","341956.491508","342723.180167","346622.695142","347389.950817","348156.919275","348922.717835","349689.330438","350456.76234","351222.50525","351989.313248","355066.83502"
"Blocked","Male","ball","6","M_lash.wav","None","721.280320315","241","345856.473329","352755.950276","353523.185237","354289.793203","355056.386019","355822.486328","356589.390479","342723.180167","346622.695142","347389.950817","348156.919275","348922.717835","349689.330438","350456.76234","351222.50525","351989.313248","355831.352381"
"Blocked","Male","ball","6","M_bluff.wav","None","720.269026933","241","345856.473329","352755.950276","353523.185237","354289.793203","355056.386019","355822.486328","356589.390479","357355.830256","346622.695142","347389.950817","348156.919275","348922.717835","349689.330438","350456.76234","351222.50525","351989.313248","356598.676074"
"Blocked","Male","done","20","M_greet.wav","None","720.674966462","241","360472.665709","352755.950276","353523.185237","354289.793203","355056.386019","355822.486328","356589.390479","357355.830256","346622.695142","347389.950817","348156.919275","348922.717835","349689.330438","350456.76234","351222.50525","351989.313248","357364.725989"
"Blocked","Male","done","20","M_tile.wav","None","722.558735986","241","360472.665709","352755.950276","353523.185237","354289.793203","355056.386019","355822.486328","356589.390479","357355.830256","361239.006861","347389.950817","348156.919275","348922.717835","349689.330438","350456.76234","351222.50525","351989.313248","360482.84264"
"Blocked","Male","done","20","M_bluff.wav","None","723.945670296","241","360472.665709","352755.950276","353523.185237","354289.793203","355056.386019","355822.486328","356589.390479","357355.830256","361239.006861","362006.146907","348156.919275","348922.717835","349689.330438","350456.76234","351222.50525","351989.313248","361248.025335"
"Blocked","Male","done","20","M_ball.wav","None","728.114202269","241","360472.665709","352755.950276","353523.185237","354289.793203","355056.386019","355822.486328","356589.390479","357355.830256","361239.006861","362006.146907","362772.880705","348922.717835","349689.330438","350456.76234","351222.50525","351989.313248","362010.224853"
"Blocked","Male","done","20","M_done.wav","None","722.175984178","241","360472.665709","352755.950276","353523.185237","354289.793203","355056.386019","355822.486328","356589.390479","357355.830256","361239.006861","362006.146907","362772.880705","363539.465483","349689.330438","350456.76234","351222.50525","351989.313248","362782.672102"
"Blocked","Male","done","20","M_bluff.wav","None","721.811782569","241","360472.665709","352755.950276","353523.185237","354289.793203","355056.386019","355822.486328","356589.390479","357355.830256","361239.006861","362006.146907","362772.880705","363539.465483","364305.509214","350456.76234","351222.50525","351989.313248","363549.299546"
"Blocked","Male","done","20","M_done.wav","space","0.0256610801443","241","360472.665709","352755.950276","353523.185237","354289.793203","355056.386019","355822.486328","356589.390479","357355.830256","361239.006861","362006.146907","362772.880705","363539.465483","364305.509214","365072.077916","351222.50525","351989.313248","364314.567571"
"Blocked","Male","done","20","M_lash.wav","space","655.947554973","241","360472.665709","352755.950276","353523.185237","354289.793203","355056.386019","355822.486328","356589.390479","357355.830256","361239.006861","362006.146907","362772.880705","363539.465483","364305.509214","365072.077916","365839.500852","351989.313248","365081.008894"
"Blocked","Male","done","20","M_reek.wav","None","719.484663918","241","360472.665709","352755.950276","353523.185237","354289.793203","355056.386019","355822.486328","356589.390479","357355.830256","361239.006861","362006.146907","362772.880705","363539.465483","364305.509214","365072.077916","365839.500852","366606.190129","365849.652122"
"Blocked","Male","done","20","M_done.wav","None","719.596583396","241","360472.665709","367372.141728","353523.185237","354289.793203","355056.386019","355822.486328","356589.390479","357355.830256","361239.006861","362006.146907","362772.880705","363539.465483","364305.509214","365072.077916","365839.500852","366606.190129","366616.015226"
"Blocked","Male","done","20","M_cave.wav","space","555.914226454","241","360472.665709","367372.141728","368138.824204","354289.793203","355056.386019","355822.486328","356589.390479","357355.830256","361239.006861","362006.146907","362772.880705","363539.465483","364305.509214","365072.077916","365839.500852","366606.190129","367381.001907"
"Blocked","Male","done","20","M_done.wav","None","720.179676893","241","360472.665709","367372.141728","368138.824204","368888.870579","355056.386019","355822.486328","356589.390479","357355.830256","361239.006861","362006.146907","362772.880705","363539.465483","364305.509214","365072.077916","365839.500852","366606.190129","368147.719009"
"Blocked","Male","done","20","M_cad.wav","space","583.150511142","241","360472.665709","367372.141728","368138.824204","368888.870579","369655.425058","355822.486328","356589.390479","357355.830256","361239.006861","362006.146907","362772.880705","363539.465483","364305.509214","365072.077916","365839.500852","366606.190129","368897.688092"
"Blocked","Male","done","20","M_tile.wav","None","734.792881296","241","360472.665709","367372.141728","368138.824204","368888.870579","369655.425058","370422.085583","356589.390479","357355.830256","361239.006861","362006.146907","362772.880705","363539.465483","364305.509214","365072.077916","365839.500852","366606.190129","369665.062489"
"Blocked","Male","done","20","M_cad.wav","None","734.31614181","241","360472.665709","367372.141728","368138.824204","368888.870579","369655.425058","370422.085583","371188.826801","357355.830256","361239.006861","362006.146907","362772.880705","363539.465483","364305.509214","365072.077916","365839.500852","366606.190129","370431.976224"
"Blocked","Male","done","20","M_ball.wav","None","734.820397338","241","360472.665709","367372.141728","368138.824204","368888.870579","369655.425058","370422.085583","371188.826801","371955.64933","361239.006861","362006.146907","362772.880705","363539.465483","364305.509214","365072.077916","365839.500852","366606.190129","371197.840018"
"Blocked","Male","ball","3","M_lash.wav","None","733.867227798","241","375089.175606","367372.141728","368138.824204","368888.870579","369655.425058","370422.085583","371188.826801","371955.64933","361239.006861","362006.146907","362772.880705","363539.465483","364305.509214","365072.077916","365839.500852","366606.190129","371964.998306"
"Blocked","Male","ball","3","M_bluff.wav","None","722.182785859","241","375089.175606","367372.141728","368138.824204","368888.870579","369655.425058","370422.085583","371188.826801","371955.64933","375855.200478","362006.146907","362772.880705","363539.465483","364305.509214","365072.077916","365839.500852","366606.190129","375098.736363"
"Blocked","Male","ball","3","M_lash.wav","None","723.479751847","241","375089.175606","367372.141728","368138.824204","368888.870579","369655.425058","370422.085583","371188.826801","371955.64933","375855.200478","376622.504693","362772.880705","363539.465483","364305.509214","365072.077916","365839.500852","366606.190129","375864.079516"
"Blocked","Male","ball","3","M_ball.wav","None","721.785503207","241","375089.175606","367372.141728","368138.824204","368888.870579","369655.425058","370422.085583","371188.826801","371955.64933","375855.200478","376622.504693","377389.258896","363539.465483","364305.509214","365072.077916","365839.500852","366606.190129","376632.320824"
"Blocked","Male","ball","3","M_greet.wav","space","457.803932135","241","375089.175606","367372.141728","368138.824204","368888.870579","369655.425058","370422.085583","371188.826801","371955.64933","375855.200478","376622.504693","377389.258896","378155.723407","364305.509214","365072.077916","365839.500852","366606.190129","377398.814397"
"Blocked","Male","ball","3","M_ball.wav","None","720.696608303","241","375089.175606","367372.141728","368138.824204","368888.870579","369655.425058","370422.085583","371188.826801","371955.64933","375855.200478","376622.504693","377389.258896","378155.723407","378921.798055","365072.077916","365839.500852","366606.190129","378165.778526"
"Blocked","Male","ball","3","M_tile.wav","space","510.007506586","241","375089.175606","367372.141728","368138.824204","368888.870579","369655.425058","370422.085583","371188.826801","371955.64933","375855.200478","376622.504693","377389.258896","378155.723407","378921.798055","379689.136589","365839.500852","366606.190129","378930.572903"
"Blocked","Male","ball","3","M_lash.wav","None","719.07717851","241","375089.175606","367372.141728","368138.824204","368888.870579","369655.425058","370422.085583","371188.826801","371955.64933","375855.200478","376622.504693","377389.258896","378155.723407","378921.798055","379689.136589","380455.733733","366606.190129","379699.263435"
"Blocked","Male","ball","3","M_jolt.wav","None","719.278447912","241","375089.175606","367372.141728","368138.824204","368888.870579","369655.425058","370422.085583","371188.826801","371955.64933","375855.200478","376622.504693","377389.258896","378155.723407","378921.798055","379689.136589","380455.733733","381222.180003","380465.685589"
"Blocked","Male","ball","3","M_bluff.wav","None","719.845155603","241","375089.175606","381988.369354","368138.824204","368888.870579","369655.425058","370422.085583","371188.826801","371955.64933","375855.200478","376622.504693","377389.258896","378155.723407","378921.798055","379689.136589","380455.733733","381222.180003","381231.802903"
"Blocked","Male","ball","3","M_ball.wav","None","720.901587629","241","375089.175606","381988.369354","382755.031424","368888.870579","369655.425058","370422.085583","371188.826801","371955.64933","375855.200478","376622.504693","377389.258896","378155.723407","378921.798055","379689.136589","380455.733733","381222.180003","381997.302187"
"Blocked","Male","ball","3","M_cad.wav","space","588.707523188","241","375089.175606","381988.369354","382755.031424","383504.989068","369655.425058","370422.085583","371188.826801","371955.64933","375855.200478","376622.504693","377389.258896","378155.723407","378921.798055","379689.136589","380455.733733","381222.180003","382763.728361"
"Blocked","Male","ball","3","M_jolt.wav","None","736.956140026","241","375089.175606","381988.369354","382755.031424","383504.989068","384271.894454","370422.085583","371188.826801","371955.64933","375855.200478","376622.504693","377389.258896","378155.723407","378921.798055","379689.136589","380455.733733","381222.180003","383513.629118"
"Blocked","Male","ball","3","M_done.wav","None","735.654845717","241","375089.175606","381988.369354","382755.031424","383504.989068","384271.894454","385038.248592","371188.826801","371955.64933","375855.200478","376622.504693","377389.258896","378155.723407","378921.798055","379689.136589","380455.733733","381222.180003","384281.244358"
"Blocked","Male","ball","3","M_ball.wav","None","735.793044441","241","375089.175606","381988.369354","382755.031424","383504.989068","384271.894454","385038.248592","385804.645704","371955.64933","375855.200478","376622.504693","377389.258896","378155.723407","378921.798055","379689.136589","380455.733733","381222.180003","385047.584273"
"Blocked","Male","ball","3","M_dime.wav","space","418.913504225","241","375089.175606","381988.369354","382755.031424","383504.989068","384271.894454","385038.248592","385804.645704","386571.189053","375855.200478","376622.504693","377389.258896","378155.723407","378921.798055","379689.136589","380455.733733","381222.180003","385813.445904"
"Blocked","Male","tile","18","M_done.wav","None","736.227427493","241","389705.315736","381988.369354","382755.031424","383504.989068","384271.894454","385038.248592","385804.645704","386571.189053","375855.200478","376622.504693","377389.258896","378155.723407","378921.798055","379689.136589","380455.733733","381222.180003","386580.3179"
"Blocked","Male","tile","18","M_tile.wav","None","722.346336581","241","389705.315736","381988.369354","382755.031424","383504.989068","384271.894454","385038.248592","385804.645704","386571.189053","390471.962348","376622.504693","377389.258896","378155.723407","378921.798055","379689.136589","380455.733733","381222.180003","389715.325716"
"Blocked","Male","tile","18","M_jolt.wav","None","721.929266932","241","389705.315736","381988.369354","382755.031424","383504.989068","384271.894454","385038.248592","385804.645704","386571.189053","390471.962348","391238.561348","377389.258896","378155.723407","378921.798055","379689.136589","380455.733733","381222.180003","390482.300975"
"Blocked","Male","tile","18","M_tile.wav","None","722.82554931","241","389705.315736","381988.369354","382755.031424","383504.989068","384271.894454","385038.248592","385804.645704","386571.189053","390471.962348","391238.561348","392005.320188","378155.723407","378921.798055","379689.136589","380455.733733","381222.180003","391248.051923"
"Blocked","Male","tile","18","M_romp.wav","space","216.866307659","241","389705.315736","381988.369354","382755.031424","383504.989068","384271.894454","385038.248592","385804.645704","386571.189053","390471.962348","391238.561348","392005.320188","392771.970201","378921.798055","379689.136589","380455.733733","381222.180003","392015.324294"
"Blocked","Male","tile","18","M_cave.wav","None","721.83837113","241","389705.315736","381988.369354","382755.031424","383504.989068","384271.894454","385038.248592","385804.645704","386571.189053","390471.962348","391238.561348","392005.320188","392771.970201","393538.615885","379689.136589","380455.733733","381222.180003","392781.82405"
"Blocked","Male","tile","18","M_tile.wav","None","721.972241532","241","389705.315736","381988.369354","382755.031424","383504.989068","384271.894454","385038.248592","385804.645704","386571.189053","390471.962348","391238.561348","392005.320188","392771.970201","393538.615885","394305.311346","380455.733733","381222.180003","393548.551665"
"Blocked","Male","tile","18","M_park.wav","space","532.511025085","241","389705.315736","381988.369354","382755.031424","383504.989068","384271.894454","385038.248592","385804.645704","386571.189053","390471.962348","391238.561348","392005.320188","392771.970201","393538.615885","394305.311346","395072.067095","381222.180003","394315.585047"
"Blocked","Male","tile","18","M_tile.wav","None","721.306908876","241","389705.315736","381988.369354","382755.031424","383504.989068","384271.894454","385038.248592","385804.645704","386571.189053","390471.962348","391238.561348","392005.320188","392771.970201","393538.615885","394305.311346","395072.067095","395837.929653","395081.630325"
"Blocked","Male","tile","18","M_greet.wav","space","481.29524698","241","389705.315736","396605.046202","382755.031424","383504.989068","384271.894454","385038.248592","385804.645704","386571.189053","390471.962348","391238.561348","392005.320188","392771.970201","393538.615885","394305.311346","395072.067095","395837.929653","395846.761697"
"Blocked","Male","tile","18","M_greet.wav","None","720.743602025","241","389705.315736","396605.046202","397371.253793","383504.989068","384271.894454","385038.248592","385804.645704","386571.189053","390471.962348","391238.561348","392005.320188","392771.970201","393538.615885","394305.311346","395072.067095","395837.929653","396615.04938"
"Blocked","Male","tile","18","M_jaw.wav","None","722.753821989","241","389705.315736","396605.046202","397371.253793","398138.55028","384271.894454","385038.248592","385804.645704","386571.189053","390471.962348","391238.561348","392005.320188","392771.970201","393538.615885","394305.311346","395072.067095","395837.929653","397380.186009"
"Blocked","Male","tile","18","M_park.wav","None","720.932813711","241","389705.315736","396605.046202","397371.253793","398138.55028","398904.974289","385038.248592","385804.645704","386571.189053","390471.962348","391238.561348","392005.320188","392771.970201","393538.615885","394305.311346","395072.067095","395837.929653","398148.462562"
"Blocked","Male","tile","18","M_park.wav","None","720.969914109","241","389705.315736","396605.046202","397371.253793","398138.55028","398904.974289","399671.156529","385804.645704","386571.189053","390471.962348","391238.561348","392005.320188","392771.970201","393538.615885","394305.311346","395072.067095","395837.929653","398915.052287"
"Blocked","Male","tile","18","M_gnash.wav","None","722.030674573","241","389705.315736","396605.046202","397371.253793","398138.55028","398904.974289","399671.156529","400437.776552","386571.189053","390471.962348","391238.561348","392005.320188","392771.970201","393538.615885","394305.311346","395072.067095","395837.929653","399680.735836"
"Blocked","Male","tile","18","M_priest.wav","None","722.827095189","241","389705.315736","396605.046202","397371.253793","398138.55028","398904.974289","399671.156529","400437.776552","401205.107974","390471.962348","391238.561348","392005.320188","392771.970201","393538.615885","394305.311346","395072.067095","395837.929653","400446.76349"
"Blocked","Male","tile","15","M_gnash.wav","None","721.317420597","241","404338.346413","396605.046202","397371.253793","398138.55028","398904.974289","399671.156529","400437.776552","401205.107974","390471.962348","391238.561348","392005.320188","392771.970201","393538.615885","394305.311346","395072.067095","395837.929653","401215.010672"
"Blocked","Male","tile","15","M_priest.wav","None","721.48653632","241","404338.346413","396605.046202","397371.253793","398138.55028","398904.974289","399671.156529","400437.776552","401205.107974","405104.344078","391238.561348","392005.320188","392771.970201","393538.615885","394305.311346","395072.067095","395837.929653","404348.331969"
"Blocked","Male","tile","15","M_romp.wav","None","723.178620799","241","404338.346413","396605.046202","397371.253793","398138.55028","398904.974289","399671.156529","400437.776552","401205.107974","405104.344078","405871.67952","392005.320188","392771.970201","393538.615885","394305.311346","395072.067095","395837.929653","405113.408618"
"Blocked","Male","tile","15","M_knife.wav","None","721.481898683","241","404338.346413","396605.046202","397371.253793","398138.55028","398904.974289","399671.156529","400437.776552","401205.107974","405104.344078","405871.67952","406638.27821","392771.970201","393538.615885","394305.311346","395072.067095","395837.929653","405881.428252"
"Blocked","Male","tile","15","M_knife.wav","None","721.536312602","241","404338.346413","396605.046202","397371.253793","398138.55028","398904.974289","399671.156529","400437.776552","401205.107974","405104.344078","405871.67952","406638.27821","407404.82125","393538.615885","394305.311346","395072.067095","395837.929653","406647.935737"
"Blocked","Male","tile","15","M_tile.wav","None","721.762624686","241","404338.346413","396605.046202","397371.253793","398138.55028","398904.974289","399671.156529","400437.776552","401205.107974","405104.344078","405871.67952","406638.27821","407404.82125","408171.513619","394305.311346","395072.067095","395837.929653","407414.637381"
"Blocked","Male","tile","15","M_jolt.wav","space","506.35899778","241","404338.346413","396605.046202","397371.253793","398138.55028","398904.974289","399671.156529","400437.776552","401205.107974","405104.344078","405871.67952","406638.27821","407404.82125","408171.513619","408938.189293","395072.067095","395837.929653","408181.302543"
"Blocked","Male","tile","15","M_tile.wav","None","720.335807535","241","404338.346413","396605.046202","397371.253793","398138.55028","398904.974289","399671.156529","400437.776552","401205.107974","405104.344078","405871.67952","406638.27821","407404.82125","408171.513619","408938.189293","409704.732024","395837.929653","408948.368698"
"Blocked","Male","tile","15","M_greet.wav","space","532.967977459","241","404338.346413","396605.046202","397371.253793","398138.55028","398904.974289","399671.156529","400437.776552","401205.107974","405104.344078","405871.67952","406638.27821","407404.82125","408171.513619","408938.189293","409704.732024","410471.313401","409714.680479"
"Blocked","Male","tile","15","M_tile.wav","None","719.783940003","241","404338.346413","411238.207349","397371.253793","398138.55028","398904.974289","399671.156529","400437.776552","401205.107974","405104.344078","405871.67952","406638.27821","407404.82125","408171.513619","408938.189293","409704.732024","410471.313401","410481.390162"
"Blocked","Male","tile","15","M_jaw.wav","space","551.471461076","241","404338.346413","411238.207349","412004.120611","398138.55028","398904.974289","399671.156529","400437.776552","401205.107974","405104.344078","405871.67952","406638.27821","407404.82125","408171.513619","408938.189293","409704.732024","410471.313401","411248.126433"
"Blocked","Male","tile","15","M_tile.wav","None","720.988464309","241","404338.346413","411238.207349","412004.120611","412771.514485","398904.974289","399671.156529","400437.776552","401205.107974","405104.344078","405871.67952","406638.27821","407404.82125","408171.513619","408938.189293","409704.732024","410471.313401","412013.204937"
"Blocked","Male","tile","15","M_done.wav","space","498.215783038","241","404338.346413","411238.207349","412004.120611","412771.514485","413537.444133","399671.156529","400437.776552","401205.107974","405104.344078","405871.67952","406638.27821","407404.82125","408171.513619","408938.189293","409704.732024","410471.313401","412781.335563"
"Blocked","Male","tile","15","M_jaw.wav","None","719.687169883","241","404338.346413","411238.207349","412004.120611","412771.514485","413537.444133","414304.642612","400437.776552","401205.107974","405104.344078","405871.67952","406638.27821","407404.82125","408171.513619","408938.189293","409704.732024","410471.313401","413547.264901"
"Blocked","Male","tile","15","M_knife.wav","None","719.255878474","241","404338.346413","411238.207349","412004.120611","412771.514485","413537.444133","414304.642612","415071.241303","401205.107974","405104.344078","405871.67952","406638.27821","407404.82125","408171.513619","408938.189293","409704.732024","410471.313401","414314.641771"
"Blocked","Male","tile","15","M_priest.wav","None","719.441998634","241","404338.346413","411238.207349","412004.120611","412771.514485","413537.444133","414304.642612","415071.241303","415838.03106","405104.344078","405871.67952","406638.27821","407404.82125","408171.513619","408938.189293","409704.732024","410471.313401","415081.414215"
"Blocked","Male","cave","11","M_priest.wav","None","719.817639561","241","418971.142431","411238.207349","412004.120611","412771.514485","413537.444133","414304.642612","415071.241303","415838.03106","405104.344078","405871.67952","406638.27821","407404.82125","408171.513619","408938.189293","409704.732024","410471.313401","415847.675911"
"Blocked","Male","cave","11","M_cave.wav","None","722.117242054","241","418971.142431","411238.207349","412004.120611","412771.514485","413537.444133","414304.642612","415071.241303","415838.03106","419737.232228","405871.67952","406638.27821","407404.82125","408171.513619","408938.189293","409704.732024","410471.313401","418981.386143"
"Blocked","Male","cave","11","M_ball.wav","space","596.955237212","241","418971.142431","411238.207349","412004.120611","412771.514485","413537.444133","414304.642612","415071.241303","415838.03106","419737.232228","420504.01673","406638.27821","407404.82125","408171.513619","408938.189293","409704.732024","410471.313401","419746.39292"
"Blocked","Male","cave","11","M_bluff.wav","None","723.152341438","241","418971.142431","411238.207349","412004.120611","412771.514485","413537.444133","414304.642612","415071.241303","415838.03106","419737.232228","420504.01673","421271.00652","407404.82125","408171.513619","408938.189293","409704.732024","410471.313401","420512.975224"
"Blocked","Male","cave","11","M_knife.wav","None","722.299961257","241","418971.142431","411238.207349","412004.120611","412771.514485","413537.444133","414304.642612","415071.241303","415838.03106","419737.232228","420504.01673","421271.00652","422037.229879","408171.513619","408938.189293","409704.732024","410471.313401","421280.642714"
"Blocked","Male","cave","11","M_cling.wav","None","723.352992325","241","418971.142431","411238.207349","412004.120611","412771.514485","413537.444133","414304.642612","415071.241303","415838.03106","419737.232228","420504.01673","421271.00652","422037.229879","422803.585871","408938.189293","409704.732024","410471.313401","422046.411903"
"Blocked","Male","cave","11","M_cave.wav","None","723.884763895","241","418971.142431","411238.207349","412004.120611","412771.514485","413537.444133","414304.642612","415071.241303","415838.03106","419737.232228","420504.01673","421271.00652","422037.229879","422803.585871","423570.801355","409704.732024","410471.313401","422812.655976"
"Blocked","Male","cave","11","M_greet.wav","space","546.437873039","241","418971.142431","411238.207349","412004.120611","412771.514485","413537.444133","414304.642612","415071.241303","415838.03106","419737.232228","420504.01673","421271.00652","422037.229879","422803.585871","423570.801355","424337.811241","410471.313401","423580.783819"
"Blocked","Male","cave","11","M_park.wav","None","721.702954848","241","418971.142431","411238.207349","412004.120611","412771.514485","413537.444133","414304.642612","415071.241303","415838.03106","419737.232228","420504.01673","421271.00652","422037.229879","422803.585871","423570.801355","424337.811241","425104.191039","424347.488555"
"Blocked","Male","cave","11","M_cave.wav","None","722.157124896","241","418971.142431","425871.260904","412004.120611","412771.514485","413537.444133","414304.642612","415071.241303","415838.03106","419737.232228","420504.01673","421271.00652","422037.229879","422803.585871","423570.801355","424337.811241","425104.191039","425113.782713"
"Blocked","Male","cave","11","M_cad.wav","space","550.422449247","241","418971.142431","425871.260904","426637.671311","412771.514485","413537.444133","414304.642612","415071.241303","415838.03106","419737.232228","420504.01673","421271.00652","422037.229879","422803.585871","423570.801355","424337.811241","425104.191039","425880.739731"
"Blocked","Male","cave","11","M_cave.wav","None","719.900806085","241","418971.142431","425871.260904","426637.671311","427403.591374","413537.444133","414304.642612","415071.241303","415838.03106","419737.232228","420504.01673","421271.00652","422037.229879","422803.585871","423570.801355","424337.811241","425104.191039","426648.327764"
"Blocked","Male","cave","11","M_reek.wav","None","722.66385355","241","418971.142431","425871.260904","426637.671311","427403.591374","428170.341867","414304.642612","415071.241303","415838.03106","419737.232228","420504.01673","421271.00652","422037.229879","422803.585871","423570.801355","424337.811241","425104.191039","427412.55698"
"Blocked","Male","cave","11","M_romp.wav","space","35.878189723","241","418971.142431","425871.260904","426637.671311","427403.591374","428170.341867","428937.02156","415071.241303","415838.03106","419737.232228","420504.01673","421271.00652","422037.229879","422803.585871","423570.801355","424337.811241","425104.191039","428179.210084"
"Blocked","Male","cave","11","M_romp.wav","None","721.910407534","241","418971.142431","425871.260904","426637.671311","427403.591374","428170.341867","428937.02156","429703.529046","415838.03106","419737.232228","420504.01673","421271.00652","422037.229879","422803.585871","423570.801355","424337.811241","425104.191039","428945.894415"
"Blocked","Male","cave","11","M_gnash.wav","None","722.370760981","241","418971.142431","425871.260904","426637.671311","427403.591374","428170.341867","428937.02156","429703.529046","430470.185242","419737.232228","420504.01673","421271.00652","422037.229879","422803.585871","423570.801355","424337.811241","425104.191039","429712.276378"
"Blocked","Male","cave","12","M_bluff.wav","None","722.443106701","241","433603.949887","425871.260904","426637.671311","427403.591374","428170.341867","428937.02156","429703.529046","430470.185242","419737.232228","420504.01673","421271.00652","422037.229879","422803.585871","423570.801355","424337.811241","425104.191039","430479.115293"
"Blocked","Male","cave","12","M_bluff.wav","None","722.466294304","241","433603.949887","425871.260904","426637.671311","427403.591374","428170.341867","428937.02156","429703.529046","430470.185242","434370.114813","420504.01673","421271.00652","422037.229879","422803.585871","423570.801355","424337.811241","425104.191039","433613.851967"
"Blocked","Male","cave","12","M_cave.wav","None","724.140756181","241","433603.949887","425871.260904","426637.671311","427403.591374","428170.341867","428937.02156","429703.529046","430470.185242","434370.114813","435137.423048","421271.00652","422037.229879","422803.585871","423570.801355","424337.811241","425104.191039","434378.935109"
"Blocked","Male","cave","12","M_gnash.wav","space","547.4383455","241","433603.949887","425871.260904","426637.671311","427403.591374","428170.341867","428937.02156","429703.529046","430470.185242","434370.114813","435137.423048","435903.983401","422037.229879","422803.585871","423570.801355","424337.811241","425104.191039","435147.41355"
"Blocked","Male","cave","12","M_cave.wav","None","722.120024497","241","433603.949887","425871.260904","426637.671311","427403.591374","428170.341867","428937.02156","429703.529046","430470.185242","434370.114813","435137.423048","435903.983401","436670.048465","422803.585871","423570.801355","424337.811241","425104.191039","435913.53612"
"Blocked","Male","cave","12","M_lash.wav","space","383.573578671","241","433603.949887","425871.260904","426637.671311","427403.591374","428170.341867","428937.02156","429703.529046","430470.185242","434370.114813","435137.423048","435903.983401","436670.048465","437436.757839","423570.801355","424337.811241","425104.191039","436679.264189"
"Blocked","Male","cave","12","M_cad.wav","None","722.339534899","241","433603.949887","425871.260904","426637.671311","427403.591374","428170.341867","428937.02156","429703.529046","430470.185242","434370.114813","435137.423048","435903.983401","436670.048465","437436.757839","438203.356838","424337.811241","425104.191039","437445.936462"
"Blocked","Male","cave","12","M_dime.wav","None","722.826167592","241","433603.949887","425871.260904","426637.671311","427403.591374","428170.341867","428937.02156","429703.529046","430470.185242","434370.114813","435137.423048","435903.983401","436670.048465","437436.757839","438203.356838","438970.478953","425104.191039","438212.30544"
"Blocked","Male","cave","12","M_priest.wav","None","721.3532842","241","433603.949887","425871.260904","426637.671311","427403.591374","428170.341867","428937.02156","429703.529046","430470.185242","434370.114813","435137.423048","435903.983401","436670.048465","437436.757839","438203.356838","438970.478953","439736.764146","438980.544583"
"Blocked","Male","cave","12","M_cave.wav","None","722.966839676","241","433603.949887","440503.923051","426637.671311","427403.591374","428170.341867","428937.02156","429703.529046","430470.185242","434370.114813","435137.423048","435903.983401","436670.048465","437436.757839","438203.356838","438970.478953","439736.764146","439745.875061"
"Blocked","Male","cave","12","M_jolt.wav","space","637.4830266","241","433603.949887","440503.923051","441270.484951","427403.591374","428170.341867","428937.02156","429703.529046","430470.185242","434370.114813","435137.423048","435903.983401","436670.048465","437436.757839","438203.356838","438970.478953","439736.764146","440513.241419"
"Blocked","Male","cave","12","M_reek.wav","None","721.086470992","241","433603.949887","440503.923051","441270.484951","442036.509514","428170.341867","428937.02156","429703.529046","430470.185242","434370.114813","435137.423048","435903.983401","436670.048465","437436.757839","438203.356838","438970.478953","439736.764146","441280.390122"
"Blocked","Male","cave","12","M_cave.wav","None","723.098545917","241","433603.949887","440503.923051","441270.484951","442036.509514","442803.039569","428937.02156","429703.529046","430470.185242","434370.114813","435137.423048","435903.983401","436670.048465","437436.757839","438203.356838","438970.478953","439736.764146","442045.307858"
"Blocked","Male","cave","12","M_knife.wav","space","642.839387641","241","433603.949887","440503.923051","441270.484951","442036.509514","442803.039569","443570.722517","429703.529046","430470.185242","434370.114813","435137.423048","435903.983401","436670.048465","437436.757839","438203.356838","438970.478953","439736.764146","442811.80576"
"Blocked","Male","cave","12","M_reek.wav","None","720.457620337","241","433603.949887","440503.923051","441270.484951","442036.509514","442803.039569","443570.722517","444337.161367","430470.185242","434370.114813","435137.423048","435903.983401","436670.048465","437436.757839","438203.356838","438970.478953","439736.764146","443580.785055"
"Blocked","Male","cave","12","M_reek.wav","None","721.038858872","241","433603.949887","440503.923051","441270.484951","442036.509514","442803.039569","443570.722517","444337.161367","445103.661432","434370.114813","435137.423048","435903.983401","436670.048465","437436.757839","438203.356838","438970.478953","439736.764146","444346.968841"
"Blocked","Male","done","22","M_reek.wav","None","721.298870514","241","448236.930479","440503.923051","441270.484951","442036.509514","442803.039569","443570.722517","444337.161367","445103.661432","434370.114813","435137.423048","435903.983401","436670.048465","437436.757839","438203.356838","438970.478953","439736.764146","445113.605868"
"Blocked","Male","done","22","M_priest.wav","None","721.535075922","241","448236.930479","440503.923051","441270.484951","442036.509514","442803.039569","443570.722517","444337.161367","445103.661432","449003.572144","435137.423048","435903.983401","436670.048465","437436.757839","438203.356838","438970.478953","439736.764146","448247.125033"
"Blocked","Male","done","22","M_lash.wav","None","721.975333174","241","448236.930479","440503.923051","441270.484951","442036.509514","442803.039569","443570.722517","444337.161367","445103.661432","449003.572144","449770.161869","435903.983401","436670.048465","437436.757839","438203.356838","438970.478953","439736.764146","449013.704864"
"Blocked","Male","done","22","M_cad.wav","None","722.668181988","241","448236.930479","440503.923051","441270.484951","442036.509514","442803.039569","443570.722517","444337.161367","445103.661432","449003.572144","449770.161869","450536.961829","436670.048465","437436.757839","438203.356838","438970.478953","439736.764146","449780.042616"
"Blocked","Male","done","22","M_done.wav","None","722.523490665","241","448236.930479","440503.923051","441270.484951","442036.509514","442803.039569","443570.722517","444337.161367","445103.661432","449003.572144","449770.161869","450536.961829","451303.537332","437436.757839","438203.356838","438970.478953","439736.764146","450547.00118"
"Blocked","Male","done","22","M_jaw.wav","space","572.787150391","241","448236.930479","440503.923051","441270.484951","442036.509514","442803.039569","443570.722517","444337.161367","445103.661432","449003.572144","449770.161869","450536.961829","451303.537332","452070.2263","438203.356838","438970.478953","439736.764146","451313.581939"
"Blocked","Male","done","22","M_done.wav","None","722.069320735","241","448236.930479","440503.923051","441270.484951","442036.509514","442803.039569","443570.722517","444337.161367","445103.661432","449003.572144","449770.161869","450536.961829","451303.537332","452070.2263","452836.882805","438970.478953","439736.764146","452080.108283"
"Blocked","Male","done","22","M_romp.wav","space","584.022678202","241","448236.930479","440503.923051","441270.484951","442036.509514","442803.039569","443570.722517","444337.161367","445103.661432","449003.572144","449770.161869","450536.961829","451303.537332","452070.2263","452836.882805","453602.821419","439736.764146","452846.319276"
"Blocked","Male","done","22","M_done.wav","None","722.896349034","241","448236.930479","440503.923051","441270.484951","442036.509514","442803.039569","443570.722517","444337.161367","445103.661432","449003.572144","449770.161869","450536.961829","451303.537332","452070.2263","452836.882805","453602.821419","454370.095954","453611.876683"
"Blocked","Male","done","22","M_reek.wav","space","490.007024258","241","448236.930479","455136.802235","441270.484951","442036.509514","442803.039569","443570.722517","444337.161367","445103.661432","449003.572144","449770.161869","450536.961829","451303.537332","452070.2263","452836.882805","453602.821419","454370.095954","454380.268248"
"Blocked","Male","done","22","M_jaw.wav","None","721.199627034","241","448236.930479","455136.802235","455903.408964","442036.509514","442803.039569","443570.722517","444337.161367","445103.661432","449003.572144","449770.161869","450536.961829","451303.537332","452070.2263","452836.882805","453602.821419","454370.095954","455146.27426"
"Blocked","Male","done","22","M_ball.wav","None","721.243528998","241","448236.930479","455136.802235","455903.408964","456669.951695","442803.039569","443570.722517","444337.161367","445103.661432","449003.572144","449770.161869","450536.961829","451303.537332","452070.2263","452836.882805","453602.821419","454370.095954","455913.261577"
"Blocked","Male","done","22","M_ball.wav","None","721.44387092","241","448236.930479","455136.802235","455903.408964","456669.951695","457436.76093","443570.722517","444337.161367","445103.661432","449003.572144","449770.161869","450536.961829","451303.537332","452070.2263","452836.882805","453602.821419","454370.095954","456680.262497"
"Blocked","Male","done","22","M_done.wav","None","722.318820423","241","448236.930479","455136.802235","455903.408964","456669.951695","457436.76093","458202.712838","444337.161367","445103.661432","449003.572144","449770.161869","450536.961829","451303.537332","452070.2263","452836.882805","453602.821419","454370.095954","457446.608596"
"Blocked","Male","done","22","M_priest.wav","space","586.674115504","241","448236.930479","455136.802235","455903.408964","456669.951695","457436.76093","458202.712838","458969.34461","445103.661432","449003.572144","449770.161869","450536.961829","451303.537332","452070.2263","452836.882805","453602.821419","454370.095954","458211.49387"
"Blocked","Male","done","22","M_knife.wav","None","723.459655768","241","448236.930479","455136.802235","455903.408964","456669.951695","457436.76093","458202.712838","458969.34461","459735.935262","449003.572144","449770.161869","450536.961829","451303.537332","452070.2263","452836.882805","453602.821419","454370.095954","458978.331548"
"Blocked","Male","tile","17","M_dime.wav","None","723.804688896","241","462869.835324","455136.802235","455903.408964","456669.951695","457436.76093","458202.712838","458969.34461","459735.935262","449003.572144","449770.161869","450536.961829","451303.537332","452070.2263","452836.882805","453602.821419","454370.095954","459745.066892"
"Blocked","Male","tile","17","M_ball.wav","None","722.704045707","241","462869.835324","455136.802235","455903.408964","456669.951695","457436.76093","458202.712838","458969.34461","459735.935262","463636.539441","449770.161869","450536.961829","451303.537332","452070.2263","452836.882805","453602.821419","454370.095954","462879.948257"
"Blocked","Male","tile","17","M_tile.wav","None","723.435231484","241","462869.835324","455136.802235","455903.408964","456669.951695","457436.76093","458202.712838","458969.34461","459735.935262","463636.539441","464402.93408","450536.961829","451303.537332","452070.2263","452836.882805","453602.821419","454370.095954","463646.479858"
"Blocked","Male","tile","17","M_jolt.wav","space","538.110084133","241","462869.835324","455136.802235","455903.408964","456669.951695","457436.76093","458202.712838","458969.34461","459735.935262","463636.539441","464402.93408","465169.823081","451303.537332","452070.2263","452836.882805","453602.821419","454370.095954","464411.862276"
"Blocked","Male","tile","17","M_tile.wav","None","723.175219959","241","462869.835324","455136.802235","455903.408964","456669.951695","457436.76093","458202.712838","458969.34461","459735.935262","463636.539441","464402.93408","465169.823081","465936.099617","452070.2263","452836.882805","453602.821419","454370.095954","465179.578924"
"Blocked","Male","tile","17","M_bluff.wav","space","452.340289252","241","462869.835324","455136.802235","455903.408964","456669.951695","457436.76093","458202.712838","458969.34461","459735.935262","463636.539441","464402.93408","465169.823081","465936.099617","466702.432113","452836.882805","453602.821419","454370.095954","465945.622037"
"Blocked","Male","tile","17","M_park.wav","None","724.412516109","241","462869.835324","455136.802235","455903.408964","456669.951695","457436.76093","458202.712838","458969.34461","459735.935262","463636.539441","464402.93408","465169.823081","465936.099617","466702.432113","467468.891677","453602.821419","454370.095954","466711.368347"
"Blocked","Male","tile","17","M_ball.wav","None","725.367231527","241","462869.835324","455136.802235","455903.408964","456669.951695","457436.76093","458202.712838","458969.34461","459735.935262","463636.539441","464402.93408","465169.823081","465936.099617","466702.432113","467468.891677","468236.043163","454370.095954","467477.63839"
"Blocked","Male","tile","17","M_priest.wav","None","724.664180074","241","462869.835324","455136.802235","455903.408964","456669.951695","457436.76093","458202.712838","458969.34461","459735.935262","463636.539441","464402.93408","465169.823081","465936.099617","466702.432113","467468.891677","468236.043163","469002.556213","468245.491691"
"Blocked","Male","tile","17","M_jaw.wav","None","725.288084126","241","462869.835324","469769.302996","455903.408964","456669.951695","457436.76093","458202.712838","458969.34461","459735.935262","463636.539441","464402.93408","465169.823081","465936.099617","466702.432113","467468.891677","468236.043163","469002.556213","469012.019582"
"Blocked","Male","tile","17","M_depth.wav","None","725.879834499","241","462869.835324","469769.302996","470535.987945","456669.951695","457436.76093","458202.712838","458969.34461","459735.935262","463636.539441","464402.93408","465169.823081","465936.099617","466702.432113","467468.891677","468236.043163","469002.556213","469778.651972"
"Blocked","Male","tile","17","M_tile.wav","None","726.081412984","241","462869.835324","469769.302996","470535.987945","471302.546134","457436.76093","458202.712838","458969.34461","459735.935262","463636.539441","464402.93408","465169.823081","465936.099617","466702.432113","467468.891677","468236.043163","469002.556213","470545.360727"
"Blocked","Male","tile","17","M_ball.wav","space","637.783539365","241","462869.835324","469769.302996","470535.987945","471302.546134","472068.726519","458202.712838","458969.34461","459735.935262","463636.539441","464402.93408","465169.823081","465936.099617","466702.432113","467468.891677","468236.043163","469002.556213","471312.013213"
"Blocked","Male","tile","17","M_jolt.wav","None","726.978932042","241","462869.835324","469769.302996","470535.987945","471302.546134","472068.726519","472835.44022","458969.34461","459735.935262","463636.539441","464402.93408","465169.823081","465936.099617","466702.432113","467468.891677","468236.043163","469002.556213","472077.597827"
"Blocked","Male","tile","17","M_tile.wav","None","727.629115456","241","462869.835324","469769.302996","470535.987945","471302.546134","472068.726519","472835.44022","473602.693732","459735.935262","463636.539441","464402.93408","465169.823081","465936.099617","466702.432113","467468.891677","468236.043163","469002.556213","472844.224034"
"Blocked","Male","tile","17","M_jolt.wav","space","537.306861836","241","462869.835324","469769.302996","470535.987945","471302.546134","472068.726519","472835.44022","473602.693732","474369.131345","463636.539441","464402.93408","465169.823081","465936.099617","466702.432113","467468.891677","468236.043163","469002.556213","473612.422986"
"Blocked","Male","cave","9","M_cling.wav","None","726.205389947","241","477502.802003","469769.302996","470535.987945","471302.546134","472068.726519","472835.44022","473602.693732","474369.131345","463636.539441","464402.93408","465169.823081","465936.099617","466702.432113","467468.891677","468236.043163","469002.556213","474377.934327"
"Blocked","Male","cave","9","M_cad.wav","None","722.346336581","241","477502.802003","469769.302996","470535.987945","471302.546134","472068.726519","472835.44022","473602.693732","474369.131345","478268.388473","464402.93408","465169.823081","465936.099617","466702.432113","467468.891677","468236.043163","469002.556213","477512.775192"
"Blocked","Male","cave","9","M_cave.wav","None","725.020034122","241","477502.802003","469769.302996","470535.987945","471302.546134","472068.726519","472835.44022","473602.693732","474369.131345","478268.388473","479035.322921","465169.823081","465936.099617","466702.432113","467468.891677","468236.043163","469002.556213","478277.310485"
"Blocked","Male","cave","9","M_tile.wav","space","497.21809302","241","477502.802003","469769.302996","470535.987945","471302.546134","472068.726519","472835.44022","473602.693732","474369.131345","478268.388473","479035.322921","479802.516145","465936.099617","466702.432113","467468.891677","468236.043163","469002.556213","479044.342941"
"Blocked","Male","cave","9","M_cave.wav","None","722.556262626","241","477502.802003","469769.302996","470535.987945","471302.546134","472068.726519","472835.44022","473602.693732","474369.131345","478268.388473","479035.322921","479802.516145","480569.406691","466702.432113","467468.891677","468236.043163","469002.556213","479812.576519"
"Blocked","Male","cave","9","M_bluff.wav","space","618.443752173","241","477502.802003","469769.302996","470535.987945","471302.546134","472068.726519","472835.44022","473602.693732","474369.131345","478268.388473","479035.322921","479802.516145","480569.406691","481335.337576","467468.891677","468236.043163","469002.556213","480579.060508"
"Blocked","Male","cave","9","M_reek.wav","None","723.871160415","241","477502.802003","469769.302996","470535.987945","471302.546134","472068.726519","472835.44022","473602.693732","474369.131345","478268.388473","479035.322921","479802.516145","480569.406691","481335.337576","482102.057461","468236.043163","469002.556213","481344.212904"
"Blocked","Male","cave","9","M_tile.wav","None","724.321002024","241","477502.802003","469769.302996","470535.987945","471302.546134","472068.726519","472835.44022","473602.693732","474369.131345","478268.388473","479035.322921","479802.516145","480569.406691","481335.337576","482102.057461","482868.675938","469002.556213","482110.898162"
"Blocked","Male","cave","9","M_cling.wav","space","551.551226876","241","477502.802003","469769.302996","470535.987945","471302.546134","472068.726519","472835.44022","473602.693732","474369.131345","478268.388473","479035.322921","479802.516145","480569.406691","481335.337576","482102.057461","482868.675938","483635.918938","482877.85889"
"Blocked","Male","cave","9","M_cave.wav","None","722.036239691","241","477502.802003","484402.343566","470535.987945","471302.546134","472068.726519","472835.44022","473602.693732","474369.131345","478268.388473","479035.322921","479802.516145","480569.406691","481335.337576","482102.057461","482868.675938","483635.918938","483646.116893"
"Blocked","Male","cave","9","M_done.wav","space","641.334041487","241","477502.802003","484402.343566","485169.210925","471302.546134","472068.726519","472835.44022","473602.693732","474369.131345","478268.388473","479035.322921","479802.516145","480569.406691","481335.337576","482102.057461","482868.675938","483635.918938","484412.061381"
"Blocked","Male","cave","9","M_knife.wav","None","721.560737002","241","477502.802003","484402.343566","485169.210925","485935.300723","472068.726519","472835.44022","473602.693732","474369.131345","478268.388473","479035.322921","479802.516145","480569.406691","481335.337576","482102.057461","482868.675938","483635.918938","485178.988101"
"Blocked","Male","cave","9","M_ball.wav","None","723.502630484","241","477502.802003","484402.343566","485169.210925","485935.300723","486702.540631","472835.44022","473602.693732","474369.131345","478268.388473","479035.322921","479802.516145","480569.406691","481335.337576","482102.057461","482868.675938","483635.918938","485944.244687"
"Blocked","Male","cave","9","M_cave.wav","None","723.20057184","241","477502.802003","484402.343566","485169.210925","485935.300723","486702.540631","487468.601367","473602.693732","474369.131345","478268.388473","479035.322921","479802.516145","480569.406691","481335.337576","482102.057461","482868.675938","483635.918938","486712.317188"
"Blocked","Male","cave","9","M_tile.wav","space","526.30352031","241","477502.802003","484402.343566","485169.210925","485935.300723","486702.540631","487468.601367","488236.076862","474369.131345","478268.388473","479035.322921","479802.516145","480569.406691","481335.337576","482102.057461","482868.675938","483635.918938","487478.983587"
"Blocked","Male","cave","9","M_romp.wav","None","722.515452304","241","477502.802003","484402.343566","485169.210925","485935.300723","486702.540631","487468.601367","488236.076862","489002.421724","478268.388473","479035.322921","479802.516145","480569.406691","481335.337576","482102.057461","482868.675938","483635.918938","488246.00182"
"Blocked","Male","tile","13","M_bluff.wav","None","723.050315399","241","492135.576688","484402.343566","485169.210925","485935.300723","486702.540631","487468.601367","488236.076862","489002.421724","478268.388473","479035.322921","479802.516145","480569.406691","481335.337576","482102.057461","482868.675938","483635.918938","489012.429231"
"Blocked","Male","tile","13","M_tile.wav","None","721.834970289","241","492135.576688","484402.343566","485169.210925","485935.300723","486702.540631","487468.601367","488236.076862","489002.421724","492902.312031","479035.322921","479802.516145","480569.406691","481335.337576","482102.057461","482868.675938","483635.918938","492145.718374"
"Blocked","Male","tile","13","M_knife.wav","space","516.851900378","241","492135.576688","484402.343566","485169.210925","485935.300723","486702.540631","487468.601367","488236.076862","489002.421724","492902.312031","493669.130232","479802.516145","480569.406691","481335.337576","482102.057461","482868.675938","483635.918938","492912.269761"
"Blocked","Male","tile","13","M_gnash.wav","None","721.763242967","241","492135.576688","484402.343566","485169.210925","485935.300723","486702.540631","487468.601367","488236.076862","489002.421724","492902.312031","493669.130232","494435.373996","480569.406691","481335.337576","482102.057461","482868.675938","483635.918938","493678.721906"
"Blocked","Male","tile","13","M_gnash.wav","None","723.164089839","241","492135.576688","484402.343566","485169.210925","485935.300723","486702.540631","487468.601367","488236.076862","489002.421724","492902.312031","493669.130232","494435.373996","495202.221877","481335.337576","482102.057461","482868.675938","483635.918938","494444.780786"
"Blocked","Male","tile","13","M_gnash.wav","None","722.990027396","241","492135.576688","484402.343566","485169.210925","485935.300723","486702.540631","487468.601367","488236.076862","489002.421724","492902.312031","493669.130232","494435.373996","495202.221877","495968.354031","482102.057461","482868.675938","483635.918938","495212.271431"
"Blocked","Male","tile","13","M_greet.wav","None","724.89482048","241","492135.576688","484402.343566","485169.210925","485935.300723","486702.540631","487468.601367","488236.076862","489002.421724","492902.312031","493669.130232","494435.373996","495202.221877","495968.354031","496734.765056","482868.675938","483635.918938","495977.722485"
"Blocked","Male","tile","13","M_tile.wav","None","726.277117268","241","492135.576688","484402.343566","485169.210925","485935.300723","486702.540631","487468.601367","488236.076862","489002.421724","492902.312031","493669.130232","494435.373996","495202.221877","495968.354031","496734.765056","497501.676935","483635.918938","496743.566802"
"Blocked","Male","tile","13","M_lash.wav","space","588.063832372","241","492135.576688","484402.343566","485169.210925","485935.300723","486702.540631","487468.601367","488236.076862","489002.421724","492902.312031","493669.130232","494435.373996","495202.221877","495968.354031","496734.765056","497501.676935","498268.4602","497512.956365"
"Blocked","Male","tile","13","M_tile.wav","None","724.677783553","241","492135.576688","499035.134637","485169.210925","485935.300723","486702.540631","487468.601367","488236.076862","489002.421724","492902.312031","493669.130232","494435.373996","495202.221877","495968.354031","496734.765056","497501.676935","498268.4602","498278.108452"
"Blocked","Male","tile","13","M_romp.wav","None","725.293958327","241","492135.576688","499035.134637","499801.537933","485935.300723","486702.540631","487468.601367","488236.076862","489002.421724","492902.312031","493669.130232","494435.373996","495202.221877","495968.354031","496734.765056","497501.676935","498268.4602","499044.818134"
"Blocked","Male","tile","13","M_greet.wav","space","489.868825651","241","492135.576688","499035.134637","499801.537933","500568.360153","486702.540631","487468.601367","488236.076862","489002.421724","492902.312031","493669.130232","494435.373996","495202.221877","495968.354031","496734.765056","497501.676935","498268.4602","499811.056642"
"Blocked","Male","tile","13","M_bluff.wav","None","725.111239124","241","492135.576688","499035.134637","499801.537933","500568.360153","501335.020986","487468.601367","488236.076862","489002.421724","492902.312031","493669.130232","494435.373996","495202.221877","495968.354031","496734.765056","497501.676935","498268.4602","500577.957082"
"Blocked","Male","tile","13","M_tile.wav","None","726.67099908","241","492135.576688","499035.134637","499801.537933","500568.360153","501335.020986","502101.522598","488236.076862","489002.421724","492902.312031","493669.130232","494435.373996","495202.221877","495968.354031","496734.765056","497501.676935","498268.4602","501344.316167"
"Blocked","Male","tile","13","M_ball.wav","space","549.981882679","241","492135.576688","499035.134637","499801.537933","500568.360153","501335.020986","502101.522598","502868.475906","489002.421724","492902.312031","493669.130232","494435.373996","495202.221877","495968.354031","496734.765056","497501.676935","498268.4602","502110.916712"
"Blocked","Male","tile","13","M_cling.wav","None","726.125933346","241","492135.576688","499035.134637","499801.537933","500568.360153","501335.020986","502101.522598","502868.475906","503634.955566","492902.312031","493669.130232","494435.373996","495202.221877","495968.354031","496734.765056","497501.676935","498268.4602","502877.380605"
"Blocked","Male","done","19","M_tile.wav","None","726.484879036","241","506768.559752","499035.134637","499801.537933","500568.360153","501335.020986","502101.522598","502868.475906","503634.955566","492902.312031","493669.130232","494435.373996","495202.221877","495968.354031","496734.765056","497501.676935","498268.4602","503644.391418"
"Blocked","Male","done","19","M_done.wav","None","722.800815711","241","506768.559752","499035.134637","499801.537933","500568.360153","501335.020986","502101.522598","502868.475906","503634.955566","507534.440552","493669.130232","494435.373996","495202.221877","495968.354031","496734.765056","497501.676935","498268.4602","506778.271384"
"Blocked","Male","done","19","M_jolt.wav","space","621.40095816","241","506768.559752","499035.134637","499801.537933","500568.360153","501335.020986","502101.522598","502868.475906","503634.955566","507534.440552","508301.291834","494435.373996","495202.221877","495968.354031","496734.765056","497501.676935","498268.4602","507543.313715"
"Blocked","Male","done","19","M_cling.wav","None","724.103964982","241","506768.559752","499035.134637","499801.537933","500568.360153","501335.020986","502101.522598","502868.475906","503634.955566","507534.440552","508301.291834","509067.93288","495202.221877","495968.354031","496734.765056","497501.676935","498268.4602","508310.065136"
"Blocked","Male","done","19","M_done.wav","None","724.404786946","241","506768.559752","499035.134637","499801.537933","500568.360153","501335.020986","502101.522598","502868.475906","503634.955566","507534.440552","508301.291834","509067.93288","509834.069054","495968.354031","496734.765056","497501.676935","498268.4602","509076.988145"
"Blocked","Male","done","19","M_greet.wav","space","553.849283606","241","506768.559752","499035.134637","499801.537933","500568.360153","501335.020986","502101.522598","502868.475906","503634.955566","507534.440552","508301.291834","509067.93288","509834.069054","510601.413152","496734.765056","497501.676935","498268.4602","509842.781449"
"Blocked","Male","done","19","M_done.wav","None","725.077230483","241","506768.559752","499035.134637","499801.537933","500568.360153","501335.020986","502101.522598","502868.475906","503634.955566","507534.440552","508301.291834","509067.93288","509834.069054","510601.413152","511368.062855","497501.676935","498268.4602","510610.765837"
"Blocked","Male","done","19","M_romp.wav","space","520.447232178","241","506768.559752","499035.134637","499801.537933","500568.360153","501335.020986","502101.522598","502868.475906","503634.955566","507534.440552","508301.291834","509067.93288","509834.069054","510601.413152","511368.062855","512134.662473","498268.4602","511372.149457"
"Blocked","Male","done","19","M_done.wav","None","725.233979407","241","506768.559752","499035.134637","499801.537933","500568.360153","501335.020986","502101.522598","502868.475906","503634.955566","507534.440552","508301.291834","509067.93288","509834.069054","510601.413152","511368.062855","512134.662473","512900.897272","512144.076684"
"Blocked","Male","done","19","M_cad.wav","space","558.938213158","241","506768.559752","513668.288363","499801.537933","500568.360153","501335.020986","502101.522598","502868.475906","503634.955566","507534.440552","508301.291834","509067.93288","509834.069054","510601.413152","511368.062855","512134.662473","512900.897272","512909.625744"
"Blocked","Male","done","19","M_ball.wav","None","723.19933516","241","506768.559752","513668.288363","514434.666307","500568.360153","501335.020986","502101.522598","502868.475906","503634.955566","507534.440552","508301.291834","509067.93288","509834.069054","510601.413152","511368.062855","512134.662473","512900.897272","513678.533931"
"Blocked","Male","done","19","M_dime.wav","None","725.285610766","241","506768.559752","513668.288363","514434.666307","515201.192652","501335.020986","502101.522598","502868.475906","503634.955566","507534.440552","508301.291834","509067.93288","509834.069054","510601.413152","511368.062855","512134.662473","512900.897272","514443.993332"
"Blocked","Male","done","19","M_ball.wav","None","725.878597819","241","506768.559752","513668.288363","514434.666307","515201.192652","515967.929851","502101.522598","502868.475906","503634.955566","507534.440552","508301.291834","509067.93288","509834.069054","510601.413152","511368.062855","512134.662473","512900.897272","515210.600679"
"Blocked","Male","done","19","M_cave.wav","None","726.940904162","241","506768.559752","513668.288363","514434.666307","515201.192652","515967.929851","516734.583883","502868.475906","503634.955566","507534.440552","508301.291834","509067.93288","509834.069054","510601.413152","511368.062855","512134.662473","512900.897272","515976.774262"
"Blocked","Male","done","19","M_park.wav","None","727.590778377","241","506768.559752","513668.288363","514434.666307","515201.192652","515967.929851","516734.583883","517501.490197","503634.955566","507534.440552","508301.291834","509067.93288","509834.069054","510601.413152","511368.062855","512134.662473","512900.897272","516744.542231"
"Blocked","Male","done","19","M_gnash.wav","None","728.467273759","241","506768.559752","513668.288363","514434.666307","515201.192652","515967.929851","516734.583883","517501.490197","518267.87216","507534.440552","508301.291834","509067.93288","509834.069054","510601.413152","511368.062855","512134.662473","512900.897272","517510.84752"
"Blocked","Male","ball","1","M_cling.wav","None","729.794847546","241","521401.350514","513668.288363","514434.666307","515201.192652","515967.929851","516734.583883","517501.490197","518267.87216","507534.440552","508301.291834","509067.93288","509834.069054","510601.413152","511368.062855","512134.662473","512900.897272","518276.855697"
"Blocked","Male","ball","1","M_jolt.wav","None","722.855847911","241","521401.350514","513668.288363","514434.666307","515201.192652","515967.929851","516734.583883","517501.490197","518267.87216","522168.060815","508301.291834","509067.93288","509834.069054","510601.413152","511368.062855","512134.662473","512900.897272","521410.796878"
"Blocked","Male","ball","1","M_tile.wav","None","722.494737944","241","521401.350514","513668.288363","514434.666307","515201.192652","515967.929851","516734.583883","517501.490197","518267.87216","522168.060815","522934.803888","509067.93288","509834.069054","510601.413152","511368.062855","512134.662473","512900.897272","522178.380273"
"Blocked","Male","ball","1","M_ball.wav","None","723.537257407","241","521401.350514","513668.288363","514434.666307","515201.192652","515967.929851","516734.583883","517501.490197","518267.87216","522168.060815","522934.803888","523700.974688","509834.069054","510601.413152","511368.062855","512134.662473","512900.897272","522944.792535"
"Blocked","Male","ball","1","M_park.wav","space","437.666487764","241","521401.350514","513668.288363","514434.666307","515201.192652","515967.929851","516734.583883","517501.490197","518267.87216","522168.060815","522934.803888","523700.974688","524467.234529","510601.413152","511368.062855","512134.662473","512900.897272","523710.548739"
"Blocked","Male","ball","1","M_priest.wav","None","725.717211375","241","521401.350514","513668.288363","514434.666307","515201.192652","515967.929851","516734.583883","517501.490197","518267.87216","522168.060815","522934.803888","523700.974688","524467.234529","525234.342421","511368.062855","512134.662473","512900.897272","524476.051423"
"Blocked","Male","ball","1","M_dime.wav","None","725.218211883","241","521401.350514","513668.288363","514434.666307","515201.192652","515967.929851","516734.583883","517501.490197","518267.87216","522168.060815","522934.803888","523700.974688","524467.234529","525234.342421","526000.449223","512134.662473","512900.897272","525243.871952"
"Blocked","Male","ball","1","M_cling.wav","None","732.385069365","241","521401.350514","513668.288363","514434.666307","515201.192652","515967.929851","516734.583883","517501.490197","518267.87216","522168.060815","522934.803888","523700.974688","524467.234529","525234.342421","526000.449223","526767.407478","512900.897272","526004.266229"
"Blocked","Male","ball","1","M_bluff.wav","None","727.054060088","241","521401.350514","513668.288363","514434.666307","515201.192652","515967.929851","516734.583883","517501.490197","518267.87216","522168.060815","522934.803888","523700.974688","524467.234529","525234.342421","526000.449223","526767.407478","527534.238664","526776.885686"
"Blocked","Male","ball","1","M_ball.wav","None","727.659104741","241","521401.350514","528300.911246","514434.666307","515201.192652","515967.929851","516734.583883","517501.490197","518267.87216","522168.060815","522934.803888","523700.974688","524467.234529","525234.342421","526000.449223","526767.407478","527534.238664","527543.833739"
"Blocked","Male","ball","1","M_park.wav","space","453.053543228","241","521401.350514","528300.911246","529067.506845","515201.192652","515967.929851","516734.583883","517501.490197","518267.87216","522168.060815","522934.803888","523700.974688","524467.234529","525234.342421","526000.449223","526767.407478","527534.238664","528311.037783"
"Blocked","Male","ball","1","M_romp.wav","None","727.956835064","241","521401.350514","528300.911246","529067.506845","529834.215909","515967.929851","516734.583883","517501.490197","518267.87216","522168.060815","522934.803888","523700.974688","524467.234529","525234.342421","526000.449223","526767.407478","527534.238664","529076.856748"
"Blocked","Male","ball","1","M_ball.wav","None","728.413169156","241","521401.350514","528300.911246","529067.506845","529834.215909","530600.308798","516734.583883","517501.490197","518267.87216","522168.060815","522934.803888","523700.974688","524467.234529","525234.342421","526000.449223","526767.407478","527534.238664","529843.852103"
"Blocked","Male","ball","1","M_dime.wav","space","562.875486328","241","521401.350514","528300.911246","529067.506845","529834.215909","530600.308798","531367.419474","517501.490197","518267.87216","522168.060815","522934.803888","523700.974688","524467.234529","525234.342421","526000.449223","526767.407478","527534.238664","530609.152591"
"Blocked","Male","ball","1","M_ball.wav","None","728.653702885","241","521401.350514","528300.911246","529067.506845","529834.215909","530600.308798","531367.419474","532134.314349","518267.87216","522168.060815","522934.803888","523700.974688","524467.234529","525234.342421","526000.449223","526767.407478","527534.238664","531377.004655"
"Blocked","Male","ball","1","M_bluff.wav","space","468.415865093","241","521401.350514","528300.911246","529067.506845","529834.215909","530600.308798","531367.419474","532134.314349","532900.238122","522168.060815","522934.803888","523700.974688","524467.234529","525234.342421","526000.449223","526767.407478","527534.238664","532143.554187"
"Blocked","Male","ball","2","M_gnash.wav","None","729.452287778","241","536034.268653","528300.911246","529067.506845","529834.215909","530600.308798","531367.419474","532134.314349","532900.238122","522168.060815","522934.803888","523700.974688","524467.234529","525234.342421","526000.449223","526767.407478","527534.238664","532909.381809"
"Blocked","Male","ball","2","M_ball.wav","None","722.186496016","241","536034.268653","528300.911246","529067.506845","529834.215909","530600.308798","531367.419474","532134.314349","532900.238122","536800.175423","522934.803888","523700.974688","524467.234529","525234.342421","526000.449223","526767.407478","527534.238664","536044.081074"
"Blocked","Male","ball","2","M_romp.wav","space","530.444845324","241","536034.268653","528300.911246","529067.506845","529834.215909","530600.308798","531367.419474","532134.314349","532900.238122","536800.175423","537567.641334","523700.974688","524467.234529","525234.342421","526000.449223","526767.407478","527534.238664","536809.354355"
"Blocked","Male","ball","2","M_park.wav","None","721.809927607","241","536034.268653","528300.911246","529067.506845","529834.215909","530600.308798","531367.419474","532134.314349","532900.238122","536800.175423","537567.641334","538334.252082","524467.234529","525234.342421","526000.449223","526767.407478","527534.238664","537577.502294"
"Blocked","Male","ball","2","M_knife.wav","None","722.207828658","241","536034.268653","528300.911246","529067.506845","529834.215909","530600.308798","531367.419474","532134.314349","532900.238122","536800.175423","537567.641334","538334.252082","539101.283919","525234.342421","526000.449223","526767.407478","527534.238664","538344.831552"
"Blocked","Male","ball","2","M_done.wav","None","723.330423003","241","536034.268653","528300.911246","529067.506845","529834.215909","530600.308798","531367.419474","532134.314349","532900.238122","536800.175423","537567.641334","538334.252082","539101.283919","539867.187287","526000.449223","526767.407478","527534.238664","539111.369027"
