"Condition","Talker","Target","Trial","current_stimulus","response_response","response_time_response","subject_nr","time_Audio1","time_Audio10","time_Audio11","time_Audio12","time_Audio13","time_Audio14","time_Audio15","time_Audio16","time_Audio2","time_Audio3","time_Audio4","time_Audio5","time_Audio6","time_Audio7","time_Audio8","time_Audio9","time_response","title"
"Blocked","Male","done","20","M_lash.wav","NA","NA","209","856174.367501","NA","NA","NA","NA","NA","NA","NA","NA","NA","NA","NA","NA","NA","NA","NA","NA","Mapping"
"Blocked","Male","done","20","M_greet.wav","None","715.743377601","209","856174.367501","NA","NA","NA","NA","NA","NA","NA","856924.234634","NA","NA","NA","NA","NA","NA","NA","856188.703244","Mapping"
"Blocked","Male","done","20","M_cling.wav","None","733.784252137","209","856174.367501","NA","NA","NA","NA","NA","NA","NA","856924.234634","857690.777642","NA","NA","NA","NA","NA","NA","856934.744049","Mapping"
"Blocked","Male","done","20","M_jaw.wav","None","732.111625141","209","856174.367501","NA","NA","NA","NA","NA","NA","NA","856924.234634","857690.777642","858457.240574","NA","NA","NA","NA","NA","857700.485062","Mapping"
"Blocked","Male","done","20","M_jaw.wav","None","729.538376589","209","856174.367501","NA","NA","NA","NA","NA","NA","NA","856924.234634","857690.777642","858457.240574","859223.943115","NA","NA","NA","NA","858467.182038","Mapping"
"Blocked","Male","done","20","M_reek.wav","None","726.444480388","209","856174.367501","NA","NA","NA","NA","NA","NA","NA","856924.234634","857690.777642","858457.240574","859223.943115","859990.613502","NA","NA","NA","859234.251567","Mapping"
"Blocked","Male","done","20","M_done.wav","None","723.693457257","209","856174.367501","NA","NA","NA","NA","NA","NA","NA","856924.234634","857690.777642","858457.240574","859223.943115","859990.613502","860757.39179","NA","NA","860001.012851","Mapping"
"Blocked","Male","done","20","M_gnash.wav","space","558.315785194","209","856174.367501","NA","NA","NA","NA","NA","NA","NA","856924.234634","857690.777642","858457.240574","859223.943115","859990.613502","860757.39179","861507.302207","NA","860766.97585","Mapping"
"Blocked","Male","done","20","M_tile.wav","None","735.660315142","209","856174.367501","NA","NA","NA","NA","NA","NA","NA","856924.234634","857690.777642","858457.240574","859223.943115","859990.613502","860757.39179","861507.302207","862273.967338","861517.170397","Mapping"
"Blocked","Male","done","20","M_done.wav","None","732.603519689","209","856174.367501","863040.932677","NA","NA","NA","NA","NA","NA","856924.234634","857690.777642","858457.240574","859223.943115","859990.613502","860757.39179","861507.302207","862273.967338","862284.295887","Mapping"
"Blocked","Male","done","20","M_jaw.wav","None","730.251948349","209","856174.367501","863040.932677","863807.300074","NA","NA","NA","NA","NA","856924.234634","857690.777642","858457.240574","859223.943115","859990.613502","860757.39179","861507.302207","862273.967338","863050.787882","Mapping"
"Blocked","Male","done","20","M_done.wav","space","52.3866161529","209","856174.367501","863040.932677","863807.300074","864574.257374","NA","NA","NA","NA","856924.234634","857690.777642","858457.240574","859223.943115","859990.613502","860757.39179","861507.302207","862273.967338","863816.872695","Mapping"
"Blocked","Male","done","20","M_greet.wav","None","725.074533926","209","856174.367501","863040.932677","863807.300074","864574.257374","865341.737485","NA","NA","NA","856924.234634","857690.777642","858457.240574","859223.943115","859990.613502","860757.39179","861507.302207","862273.967338","864584.128965","Mapping"
"Blocked","Male","done","20","M_done.wav","space","0.0336998782586","209","856174.367501","863040.932677","863807.300074","864574.257374","865341.737485","866108.179703","NA","NA","856924.234634","857690.777642","858457.240574","859223.943115","859990.613502","860757.39179","861507.302207","862273.967338","865351.62639","Mapping"
"Blocked","Male","done","20","M_dime.wav","space","502.535065665","209","856174.367501","863040.932677","863807.300074","864574.257374","865341.737485","866108.179703","866857.452295","NA","856924.234634","857690.777642","858457.240574","859223.943115","859990.613502","860757.39179","861507.302207","862273.967338","866118.629138","Mapping"
"Blocked","Male","done","20","M_romp.wav","None","734.729394608","209","856174.367501","863040.932677","863807.300074","864574.257374","865341.737485","866108.179703","866857.452295","867624.255936","856924.234634","857690.777642","858457.240574","859223.943115","859990.613502","860757.39179","861507.302207","862273.967338","866866.815606","Mapping"
"Blocked","Male","done","24","M_bluff.wav","None","731.686511979","209","870774.703325","863040.932677","863807.300074","864574.257374","865341.737485","866108.179703","866857.452295","867624.255936","856924.234634","857690.777642","858457.240574","859223.943115","859990.613502","860757.39179","861507.302207","862273.967338","867634.083315","Mapping"
"Blocked","Male","done","24","M_jolt.wav","None","719.370288396","209","870774.703325","863040.932677","863807.300074","864574.257374","865341.737485","866108.179703","866857.452295","867624.255936","871523.755787","857690.777642","858457.240574","859223.943115","859990.613502","860757.39179","861507.302207","862273.967338","870784.708479","Mapping"
"Blocked","Male","done","24","M_done.wav","None","735.18140582","209","870774.703325","863040.932677","863807.300074","864574.257374","865341.737485","866108.179703","866857.452295","867624.255936","871523.755787","872290.808312","858457.240574","859223.943115","859990.613502","860757.39179","861507.302207","862273.967338","871533.35345","Mapping"
"Blocked","Male","done","24","M_gnash.wav","space","480.295928224","209","870774.703325","863040.932677","863807.300074","864574.257374","865341.737485","866108.179703","866857.452295","867624.255936","871523.755787","872290.808312","873058.014805","859223.943115","859990.613502","860757.39179","861507.302207","862273.967338","872300.783785","Mapping"
"Blocked","Male","done","24","M_ball.wav","None","728.87581843","209","870774.703325","863040.932677","863807.300074","864574.257374","865341.737485","866108.179703","866857.452295","867624.255936","871523.755787","872290.808312","873058.014805","873824.181549","859990.613502","860757.39179","861507.302207","862273.967338","873067.834455","Mapping"
"Blocked","Male","done","24","M_done.wav","None","726.826309285","209","870774.703325","863040.932677","863807.300074","864574.257374","865341.737485","866108.179703","866857.452295","867624.255936","871523.755787","872290.808312","873058.014805","873824.181549","874590.541217","860757.39179","861507.302207","862273.967338","873834.088077","Mapping"
"Blocked","Male","done","24","M_tile.wav","space","516.928005614","209","870774.703325","863040.932677","863807.300074","864574.257374","865341.737485","866108.179703","866857.452295","867624.255936","871523.755787","872290.808312","873058.014805","873824.181549","874590.541217","875358.325246","861507.302207","862273.967338","874600.100852","Mapping"
"Blocked","Male","done","24","M_dime.wav","None","720.942434127","209","870774.703325","863040.932677","863807.300074","864574.257374","865341.737485","866108.179703","866857.452295","867624.255936","871523.755787","872290.808312","873058.014805","873824.181549","874590.541217","875358.325246","876124.518888","862273.967338","875368.409548","Mapping"
"Blocked","Male","done","24","M_done.wav","None","718.660117564","209","870774.703325","863040.932677","863807.300074","864574.257374","865341.737485","866108.179703","866857.452295","867624.255936","871523.755787","872290.808312","873058.014805","873824.181549","874590.541217","875358.325246","876124.518888","876874.097871","876134.776018","Mapping"
"Blocked","Male","done","24","M_priest.wav","space","664.831517613","209","870774.703325","877640.964274","863807.300074","864574.257374","865341.737485","866108.179703","866857.452295","867624.255936","871523.755787","872290.808312","873058.014805","873824.181549","874590.541217","875358.325246","876124.518888","876874.097871","876884.1797","Mapping"
"Blocked","Male","done","24","M_cave.wav","None","731.0251905","209","870774.703325","877640.964274","878407.604053","864574.257374","865341.737485","866108.179703","866857.452295","867624.255936","871523.755787","872290.808312","873058.014805","873824.181549","874590.541217","875358.325246","876124.518888","876874.097871","877650.459292","Mapping"
"Blocked","Male","done","24","M_done.wav","None","728.459362115","209","870774.703325","877640.964274","878407.604053","879173.864167","865341.737485","866108.179703","866857.452295","867624.255936","871523.755787","872290.808312","873058.014805","873824.181549","874590.541217","875358.325246","876124.518888","876874.097871","878417.303125","Mapping"
"Blocked","Male","done","24","M_greet.wav","space","541.827269277","209","870774.703325","877640.964274","878407.604053","879173.864167","879941.220919","866108.179703","866857.452295","867624.255936","871523.755787","872290.808312","873058.014805","873824.181549","874590.541217","875358.325246","876124.518888","876874.097871","879183.131634","Mapping"
"Blocked","Male","done","24","M_lash.wav","None","722.539004521","209","870774.703325","877640.964274","878407.604053","879173.864167","879941.220919","880708.304052","866857.452295","867624.255936","871523.755787","872290.808312","873058.014805","873824.181549","874590.541217","875358.325246","876124.518888","876874.097871","879951.443112","Mapping"
"Blocked","Male","done","24","M_gnash.wav","None","719.988634781","209","870774.703325","877640.964274","878407.604053","879173.864167","879941.220919","880708.304052","881457.188014","867624.255936","871523.755787","872290.808312","873058.014805","873824.181549","874590.541217","875358.325246","876124.518888","876874.097871","880718.350017","Mapping"
"Blocked","Male","done","24","M_lash.wav","None","736.308960477","209","870774.703325","877640.964274","878407.604053","879173.864167","879941.220919","880708.304052","881457.188014","882223.985162","871523.755787","872290.808312","873058.014805","873824.181549","874590.541217","875358.325246","876124.518888","876874.097871","881466.339232","Mapping"
"Blocked","Male","tile","15","M_ball.wav","None","732.291873108","209","885358.0507","877640.964274","878407.604053","879173.864167","879941.220919","880708.304052","881457.188014","882223.985162","871523.755787","872290.808312","873058.014805","873824.181549","874590.541217","875358.325246","876124.518888","876874.097871","882234.663386","Mapping"
"Blocked","Male","tile","15","M_cling.wav","None","719.797874917","209","885358.0507","877640.964274","878407.604053","879173.864167","879941.220919","880708.304052","881457.188014","882223.985162","886107.512507","872290.808312","873058.014805","873824.181549","874590.541217","875358.325246","876124.518888","876874.097871","885368.139331","Mapping"
"Blocked","Male","tile","15","M_dime.wav","None","734.733723046","209","885358.0507","877640.964274","878407.604053","879173.864167","879941.220919","880708.304052","881457.188014","882223.985162","886107.512507","886873.584644","873058.014805","873824.181549","874590.541217","875358.325246","876124.518888","876874.097871","886117.537757","Mapping"
"Blocked","Male","tile","15","M_greet.wav","None","733.922761719","209","885358.0507","877640.964274","878407.604053","879173.864167","879941.220919","880708.304052","881457.188014","882223.985162","886107.512507","886873.584644","887640.742597","873824.181549","874590.541217","875358.325246","876124.518888","876874.097871","886882.877772","Mapping"
"Blocked","Male","tile","15","M_tile.wav","None","730.79547481","209","885358.0507","877640.964274","878407.604053","879173.864167","879941.220919","880708.304052","881457.188014","882223.985162","886107.512507","886873.584644","887640.742597","888407.438645","874590.541217","875358.325246","876124.518888","876874.097871","887650.39653","Mapping"
"Blocked","Male","tile","15","M_park.wav","space","552.958741144","209","885358.0507","877640.964274","878407.604053","879173.864167","879941.220919","880708.304052","881457.188014","882223.985162","886107.512507","886873.584644","887640.742597","888407.438645","889173.901886","875358.325246","876124.518888","876874.097871","888411.829832","Mapping"
"Blocked","Male","tile","15","M_tile.wav","None","726.556710259","209","885358.0507","877640.964274","878407.604053","879173.864167","879941.220919","880708.304052","881457.188014","882223.985162","886107.512507","886873.584644","887640.742597","888407.438645","889173.901886","889940.875572","876124.518888","876874.097871","889183.095151","Mapping"
"Blocked","Male","tile","15","M_greet.wav","space","589.808167308","209","885358.0507","877640.964274","878407.604053","879173.864167","879941.220919","880708.304052","881457.188014","882223.985162","886107.512507","886873.584644","887640.742597","888407.438645","889173.901886","889940.875572","890707.771037","876874.097871","889950.947198","Mapping"
"Blocked","Male","tile","15","M_gnash.wav","None","720.330271171","209","885358.0507","877640.964274","878407.604053","879173.864167","879941.220919","880708.304052","881457.188014","882223.985162","886107.512507","886873.584644","887640.742597","888407.438645","889173.901886","889940.875572","890707.771037","891457.279529","890717.61975","Mapping"
"Blocked","Male","tile","15","M_jaw.wav","None","735.173676483","209","885358.0507","892223.696394","878407.604053","879173.864167","879941.220919","880708.304052","881457.188014","882223.985162","886107.512507","886873.584644","887640.742597","888407.438645","889173.901886","889940.875572","890707.771037","891457.279529","891467.245109","Mapping"
"Blocked","Male","tile","15","M_tile.wav","None","733.615134406","209","885358.0507","892223.696394","892990.47932","879173.864167","879941.220919","880708.304052","881457.188014","882223.985162","886107.512507","886873.584644","887640.742597","888407.438645","889173.901886","889940.875572","890707.771037","891457.279529","892233.371042","Mapping"
"Blocked","Male","tile","15","M_depth.wav","space","460.453810607","209","885358.0507","892223.696394","892990.47932","893756.936996","879941.220919","880708.304052","881457.188014","882223.985162","886107.512507","886873.584644","887640.742597","888407.438645","889173.901886","889940.875572","890707.771037","891457.279529","893000.269599","Mapping"
"Blocked","Male","tile","15","M_jolt.wav","None","729.370804707","209","885358.0507","892223.696394","892990.47932","893756.936996","894523.760115","880708.304052","881457.188014","882223.985162","886107.512507","886873.584644","887640.742597","888407.438645","889173.901886","889940.875572","890707.771037","891457.279529","893766.076775","Mapping"
"Blocked","Male","tile","15","M_tile.wav","None","726.29638642","209","885358.0507","892223.696394","892990.47932","893756.936996","894523.760115","895290.395875","881457.188014","882223.985162","886107.512507","886873.584644","887640.742597","888407.438645","889173.901886","889940.875572","890707.771037","891457.279529","894533.755685","Mapping"
"Blocked","Male","tile","15","M_gnash.wav","space","512.025446194","209","885358.0507","892223.696394","892990.47932","893756.936996","894523.760115","895290.395875","896057.65029","882223.985162","886107.512507","886873.584644","887640.742597","888407.438645","889173.901886","889940.875572","890707.771037","891457.279529","895300.62116","Mapping"
"Blocked","Male","tile","15","M_cave.wav","None","721.058992407","209","885358.0507","892223.696394","892990.47932","893756.936996","894523.760115","895290.395875","896057.65029","896824.063445","886107.512507","886873.584644","887640.742597","888407.438645","889173.901886","889940.875572","890707.771037","891457.279529","896067.98966","Mapping"
"Blocked","Male","cave","12","M_romp.wav","None","719.539715297","209","899940.638127","892223.696394","892990.47932","893756.936996","894523.760115","895290.395875","896057.65029","896824.063445","886107.512507","886873.584644","887640.742597","888407.438645","889173.901886","889940.875572","890707.771037","891457.279529","896834.177737","Mapping"
"Blocked","Male","cave","12","M_cling.wav","None","720.215258742","209","899940.638127","892223.696394","892990.47932","893756.936996","894523.760115","895290.395875","896057.65029","896824.063445","900690.265651","886873.584644","887640.742597","888407.438645","889173.901886","889940.875572","890707.771037","891457.279529","899951.462281","Mapping"
"Blocked","Male","cave","12","M_cave.wav","None","735.569418204","209","899940.638127","892223.696394","892990.47932","893756.936996","894523.760115","895290.395875","896057.65029","896824.063445","900690.265651","901457.468434","887640.742597","888407.438645","889173.901886","889940.875572","890707.771037","891457.279529","900700.344388","Mapping"
"Blocked","Male","cave","12","M_dime.wav","space","617.86347095","209","899940.638127","892223.696394","892990.47932","893756.936996","894523.760115","895290.395875","896057.65029","896824.063445","900690.265651","901457.468434","902223.619719","888407.438645","889173.901886","889940.875572","890707.771037","891457.279529","901466.701273","Mapping"
"Blocked","Male","cave","12","M_cave.wav","None","730.617700232","209","899940.638127","892223.696394","892990.47932","893756.936996","894523.760115","895290.395875","896057.65029","896824.063445","900690.265651","901457.468434","902223.619719","902990.450567","889173.901886","889940.875572","890707.771037","891457.279529","902233.60725","Mapping"
"Blocked","Male","cave","12","M_cling.wav","space","540.230080485","209","899940.638127","892223.696394","892990.47932","893756.936996","894523.760115","895290.395875","896057.65029","896824.063445","900690.265651","901457.468434","902223.619719","902990.450567","903756.966986","889940.875572","890707.771037","891457.279529","903000.32154","Mapping"
"Blocked","Male","cave","12","M_cave.wav","None","726.154475909","209","899940.638127","892223.696394","892990.47932","893756.936996","894523.760115","895290.395875","896057.65029","896824.063445","900690.265651","901457.468434","902223.619719","902990.450567","903756.966986","904523.945928","890707.771037","891457.279529","903766.652764","Mapping"
"Blocked","Male","cave","12","M_greet.wav","space","550.173090625","209","899940.638127","892223.696394","892990.47932","893756.936996","894523.760115","895290.395875","896057.65029","896824.063445","900690.265651","901457.468434","902223.619719","902990.450567","903756.966986","904523.945928","905290.339605","891457.279529","904534.291791","Mapping"
"Blocked","Male","cave","12","M_dime.wav","None","721.456589148","209","899940.638127","892223.696394","892990.47932","893756.936996","894523.760115","895290.395875","896057.65029","896824.063445","900690.265651","901457.468434","902223.619719","902990.450567","903756.966986","904523.945928","905290.339605","906040.645455","905299.819165","Mapping"
"Blocked","Male","cave","12","M_reek.wav","None","735.20737639","209","899940.638127","906806.861975","892990.47932","893756.936996","894523.760115","895290.395875","896057.65029","896824.063445","900690.265651","901457.468434","902223.619719","902990.450567","903756.966986","904523.945928","905290.339605","906040.645455","906050.552292","Mapping"
"Blocked","Male","cave","12","M_done.wav","None","733.743750461","209","899940.638127","906806.861975","907573.527725","893756.936996","894523.760115","895290.395875","896057.65029","896824.063445","900690.265651","901457.468434","902223.619719","902990.450567","903756.966986","904523.945928","905290.339605","906040.645455","906816.486228","Mapping"
"Blocked","Male","cave","12","M_cave.wav","None","731.176067027","209","899940.638127","906806.861975","907573.527725","908340.183581","894523.760115","895290.395875","896057.65029","896824.063445","900690.265651","901457.468434","902223.619719","902990.450567","903756.966986","904523.945928","905290.339605","906040.645455","907583.419412","Mapping"
"Blocked","Male","cave","12","M_tile.wav","space","574.520789261","209","899940.638127","906806.861975","907573.527725","908340.183581","909106.893233","895290.395875","896057.65029","896824.063445","900690.265651","901457.468434","902223.619719","902990.450567","903756.966986","904523.945928","905290.339605","906040.645455","908349.926247","Mapping"
"Blocked","Male","cave","12","M_priest.wav","None","725.974537112","209","899940.638127","906806.861975","907573.527725","908340.183581","909106.893233","909873.467158","896057.65029","896824.063445","900690.265651","901457.468434","902223.619719","902990.450567","903756.966986","904523.945928","905290.339605","906040.645455","909117.052046","Mapping"
"Blocked","Male","cave","12","M_reek.wav","None","724.340556742","209","899940.638127","906806.861975","907573.527725","908340.183581","909106.893233","909873.467158","910640.686637","896824.063445","900690.265651","901457.468434","902223.619719","902990.450567","903756.966986","904523.945928","905290.339605","906040.645455","909883.191892","Mapping"
"Blocked","Male","cave","12","M_reek.wav","None","720.740234858","209","899940.638127","906806.861975","907573.527725","908340.183581","909106.893233","909873.467158","910640.686637","911407.452249","900690.265651","901457.468434","902223.619719","902990.450567","903756.966986","904523.945928","905290.339605","906040.645455","910651.20409","Mapping"
"Blocked","Male","ball","1","M_bluff.wav","None","718.384953419","209","914523.806491","906806.861975","907573.527725","908340.183581","909106.893233","909873.467158","910640.686637","911407.452249","900690.265651","901457.468434","902223.619719","902990.450567","903756.966986","904523.945928","905290.339605","906040.645455","911418.140057","Mapping"
"Blocked","Male","ball","1","M_tile.wav","None","720.282040158","209","914523.806491","906806.861975","907573.527725","908340.183581","909106.893233","909873.467158","910640.686637","911407.452249","915273.404952","901457.468434","902223.619719","902990.450567","903756.966986","904523.945928","905290.339605","906040.645455","914534.073205","Mapping"
"Blocked","Male","ball","1","M_done.wav","None","736.424591276","209","914523.806491","906806.861975","907573.527725","908340.183581","909106.893233","909873.467158","910640.686637","911407.452249","915273.404952","916039.873758","902223.619719","902990.450567","903756.966986","904523.945928","905290.339605","906040.645455","915282.486606","Mapping"
"Blocked","Male","ball","1","M_dime.wav","None","734.027880622","209","914523.806491","906806.861975","907573.527725","908340.183581","909106.893233","909873.467158","910640.686637","911407.452249","915273.404952","916039.873758","916806.792412","902990.450567","903756.966986","904523.945928","905290.339605","906040.645455","916049.336932","Mapping"
"Blocked","Male","ball","1","M_lash.wav","None","730.916979868","209","914523.806491","906806.861975","907573.527725","908340.183581","909106.893233","909873.467158","910640.686637","911407.452249","915273.404952","916039.873758","916806.792412","917573.266783","903756.966986","904523.945928","905290.339605","906040.645455","916816.967302","Mapping"
"Blocked","Male","ball","1","M_ball.wav","None","729.188392521","209","914523.806491","906806.861975","907573.527725","908340.183581","909106.893233","909873.467158","910640.686637","911407.452249","915273.404952","916039.873758","916806.792412","917573.266783","918340.011062","904523.945928","905290.339605","906040.645455","917583.181967","Mapping"
"Blocked","Male","ball","1","M_priest.wav","space","542.251764069","209","914523.806491","906806.861975","907573.527725","908340.183581","909106.893233","909873.467158","910640.686637","911407.452249","915273.404952","916039.873758","916806.792412","917573.266783","918340.011062","919107.066061","905290.339605","906040.645455","918350.003231","Mapping"
"Blocked","Male","ball","1","M_reek.wav","None","724.497616728","209","914523.806491","906806.861975","907573.527725","908340.183581","909106.893233","909873.467158","910640.686637","911407.452249","915273.404952","916039.873758","916806.792412","917573.266783","918340.011062","919107.066061","919873.473032","906040.645455","919116.901788","Mapping"
"Blocked","Male","ball","1","M_ball.wav","None","722.623717971","209","914523.806491","906806.861975","907573.527725","908340.183581","909106.893233","909873.467158","910640.686637","911407.452249","915273.404952","916039.873758","916806.792412","917573.266783","918340.011062","919107.066061","919873.473032","920640.273581","919883.280934","Mapping"
"Blocked","Male","ball","1","M_cave.wav","space","545.589288755","209","914523.806491","921389.67479","907573.527725","908340.183581","909106.893233","909873.467158","910640.686637","911407.452249","915273.404952","916039.873758","916806.792412","917573.266783","918340.011062","919107.066061","919873.473032","920640.273581","920650.634593","Mapping"
"Blocked","Male","ball","1","M_ball.wav","None","735.299510008","209","914523.806491","921389.67479","922156.453078","908340.183581","909106.893233","909873.467158","910640.686637","911407.452249","915273.404952","916039.873758","916806.792412","917573.266783","918340.011062","919107.066061","919873.473032","920640.273581","921399.334597","Mapping"
"Blocked","Male","ball","1","M_park.wav","space","710.209795652","209","914523.806491","921389.67479","922156.453078","922923.066269","909106.893233","909873.467158","910640.686637","911407.452249","915273.404952","916039.873758","916806.792412","917573.266783","918340.011062","919107.066061","919873.473032","920640.273581","922165.949333","Mapping"
"Blocked","Male","ball","1","M_ball.wav","None","730.971703539","209","914523.806491","921389.67479","922156.453078","922923.066269","923689.848885","909873.467158","910640.686637","911407.452249","915273.404952","916039.873758","916806.792412","917573.266783","918340.011062","919107.066061","919873.473032","920640.273581","922932.352286","Mapping"
"Blocked","Male","ball","1","M_dime.wav","space","464.272099605","209","914523.806491","921389.67479","922156.453078","922923.066269","923689.848885","924456.839267","910640.686637","911407.452249","915273.404952","916039.873758","916806.792412","917573.266783","918340.011062","919107.066061","919873.473032","920640.273581","923699.878464","Mapping"
"Blocked","Male","ball","1","M_park.wav","None","724.77710931","209","914523.806491","921389.67479","922156.453078","922923.066269","923689.848885","924456.839267","925223.580454","911407.452249","915273.404952","916039.873758","916806.792412","917573.266783","918340.011062","919107.066061","919873.473032","920640.273581","924467.237689","Mapping"
"Blocked","Male","ball","1","M_park.wav","None","723.009875306","209","914523.806491","921389.67479","922156.453078","922923.066269","923689.848885","924456.839267","925223.580454","925990.106148","915273.404952","916039.873758","916806.792412","917573.266783","918340.011062","919107.066061","919873.473032","920640.273581","925233.628274","Mapping"
"Blocked","Male","ball","2","M_greet.wav","None","721.499873413","209","929107.0438","921389.67479","922156.453078","922923.066269","923689.848885","924456.839267","925223.580454","925990.106148","915273.404952","916039.873758","916806.792412","917573.266783","918340.011062","919107.066061","919873.473032","920640.273581","925999.608587","Mapping"
"Blocked","Male","ball","2","M_romp.wav","None","719.828792266","209","929107.0438","921389.67479","922156.453078","922923.066269","923689.848885","924456.839267","925223.580454","925990.106148","929856.617837","916039.873758","916806.792412","917573.266783","918340.011062","919107.066061","919873.473032","920640.273581","929117.351326","Mapping"
"Blocked","Male","ball","2","M_reek.wav","None","735.401227983","209","929107.0438","921389.67479","922156.453078","922923.066269","923689.848885","924456.839267","925223.580454","925990.106148","929856.617837","930623.019862","916806.792412","917573.266783","918340.011062","919107.066061","919873.473032","920640.273581","929866.363594","Mapping"
"Blocked","Male","ball","2","M_depth.wav","None","733.683461673","209","929107.0438","921389.67479","922156.453078","922923.066269","923689.848885","924456.839267","925223.580454","925990.106148","929856.617837","930623.019862","931389.713127","917573.266783","918340.011062","919107.066061","919873.473032","920640.273581","930632.643496","Mapping"
"Blocked","Male","ball","2","M_tile.wav","None","731.548620737","209","929107.0438","921389.67479","922156.453078","922923.066269","923689.848885","924456.839267","925223.580454","925990.106148","929856.617837","930623.019862","931389.713127","932156.462972","918340.011062","919107.066061","919873.473032","920640.273581","931399.425185","Mapping"
"Blocked","Male","ball","2","M_ball.wav","None","728.67330999","209","929107.0438","921389.67479","922156.453078","922923.066269","923689.848885","924456.839267","925223.580454","925990.106148","929856.617837","930623.019862","931389.713127","932156.462972","932923.093167","919107.066061","919873.473032","920640.273581","932166.81069","Mapping"
"Blocked","Male","ball","2","M_depth.wav","space","447.240675567","209","929107.0438","921389.67479","922156.453078","922923.066269","923689.848885","924456.839267","925223.580454","925990.106148","929856.617837","930623.019862","931389.713127","932156.462972","932923.093167","933689.708521","919873.473032","920640.273581","932932.763486","Mapping"
"Blocked","Male","ball","2","M_ball.wav","None","724.979926919","209","929107.0438","921389.67479","922156.453078","922923.066269","923689.848885","924456.839267","925223.580454","925990.106148","929856.617837","930623.019862","931389.713127","932156.462972","932923.093167","933689.708521","934456.921816","920640.273581","933699.067503","Mapping"
"Blocked","Male","ball","2","M_jaw.wav","space","521.112664894","209","929107.0438","921389.67479","922156.453078","922923.066269","923689.848885","924456.839267","925223.580454","925990.106148","929856.617837","930623.019862","931389.713127","932156.462972","932923.093167","933689.708521","934456.921816","935223.384748","934466.895743","Mapping"
"Blocked","Male","ball","2","M_cad.wav","None","719.423157017","209","929107.0438","935972.724431","922156.453078","922923.066269","923689.848885","924456.839267","925223.580454","925990.106148","929856.617837","930623.019862","931389.713127","932156.462972","932923.093167","933689.708521","934456.921816","935223.384748","935233.727828","Mapping"
"Blocked","Male","ball","2","M_reek.wav","None","735.38051339","209","929107.0438","935972.724431","936739.636282","922923.066269","923689.848885","924456.839267","925223.580454","925990.106148","929856.617837","930623.019862","931389.713127","932156.462972","932923.093167","933689.708521","934456.921816","935223.384748","935982.542226","Mapping"
"Blocked","Male","ball","2","M_ball.wav","None","733.017502615","209","929107.0438","935972.724431","936739.636282","937506.533603","923689.848885","924456.839267","925223.580454","925990.106148","929856.617837","930623.019862","931389.713127","932156.462972","932923.093167","933689.708521","934456.921816","935223.384748","936749.351123","Mapping"
"Blocked","Male","ball","2","M_romp.wav","space","543.516282429","209","929107.0438","935972.724431","936739.636282","937506.533603","938272.969946","924456.839267","925223.580454","925990.106148","929856.617837","930623.019862","931389.713127","932156.462972","932923.093167","933689.708521","934456.921816","935223.384748","937516.362837","Mapping"
"Blocked","Male","ball","2","M_park.wav","None","728.116798215","209","929107.0438","935972.724431","936739.636282","937506.533603","938272.969946","939039.85057","925223.580454","925990.106148","929856.617837","930623.019862","931389.713127","932156.462972","932923.093167","933689.708521","934456.921816","935223.384748","938283.752979","Mapping"
"Blocked","Male","ball","2","M_ball.wav","None","726.571241394","209","929107.0438","935972.724431","936739.636282","937506.533603","938272.969946","939039.85057","939806.558986","925990.106148","929856.617837","930623.019862","931389.713127","932156.462972","932923.093167","933689.708521","934456.921816","935223.384748","939049.846758","Mapping"
"Blocked","Male","ball","2","M_cave.wav","space","571.605904348","209","929107.0438","935972.724431","936739.636282","937506.533603","938272.969946","939039.85057","939806.558986","940573.12209","929856.617837","930623.019862","931389.713127","932156.462972","932923.093167","933689.708521","934456.921816","935223.384748","939816.273826","Mapping"
"Blocked","Male","done","22","M_cling.wav","None","722.131205053","209","943690.017694","935972.724431","936739.636282","937506.533603","938272.969946","939039.85057","939806.558986","940573.12209","929856.617837","930623.019862","931389.713127","932156.462972","932923.093167","933689.708521","934456.921816","935223.384748","940582.909895","Mapping"
"Blocked","Male","done","22","M_tile.wav","None","720.703134051","209","943690.017694","935972.724431","936739.636282","937506.533603","938272.969946","939039.85057","939806.558986","940573.12209","944456.048093","930623.019862","931389.713127","932156.462972","932923.093167","933689.708521","934456.921816","935223.384748","943700.156102","Mapping"
"Blocked","Male","done","22","M_done.wav","None","720.459196396","209","943690.017694","935972.724431","936739.636282","937506.533603","938272.969946","939039.85057","939806.558986","940573.12209","944456.048093","945206.027146","931389.713127","932156.462972","932923.093167","933689.708521","934456.921816","935223.384748","944465.077805","Mapping"
"Blocked","Male","done","22","M_jolt.wav","space","548.49860855","209","943690.017694","935972.724431","936739.636282","937506.533603","938272.969946","939039.85057","939806.558986","940573.12209","944456.048093","945206.027146","945972.637553","932156.462972","932923.093167","933689.708521","934456.921816","935223.384748","945215.244217","Mapping"
"Blocked","Male","done","22","M_greet.wav","None","731.65404881","209","943690.017694","935972.724431","936739.636282","937506.533603","938272.969946","939039.85057","939806.558986","940573.12209","944456.048093","945206.027146","945972.637553","946739.286917","932923.093167","933689.708521","934456.921816","935223.384748","945982.799767","Mapping"
"Blocked","Male","done","22","M_done.wav","None","730.384892784","209","943690.017694","935972.724431","936739.636282","937506.533603","938272.969946","939039.85057","939806.558986","940573.12209","944456.048093","945206.027146","945972.637553","946739.286917","947506.316872","933689.708521","934456.921816","935223.384748","946748.760602","Mapping"
"Blocked","Male","done","22","M_cave.wav","space","567.554807902","209","943690.017694","935972.724431","936739.636282","937506.533603","938272.969946","939039.85057","939806.558986","940573.12209","944456.048093","945206.027146","945972.637553","946739.286917","947506.316872","948272.521335","934456.921816","935223.384748","947516.217526","Mapping"
"Blocked","Male","done","22","M_cave.wav","None","726.084911963","209","943690.017694","935972.724431","936739.636282","937506.533603","938272.969946","939039.85057","939806.558986","940573.12209","944456.048093","945206.027146","945972.637553","946739.286917","947506.316872","948272.521335","949039.958472","935223.384748","948281.698833","Mapping"
"Blocked","Male","done","22","M_ball.wav","None","722.051747551","209","943690.017694","935972.724431","936739.636282","937506.533603","938272.969946","939039.85057","939806.558986","940573.12209","944456.048093","945206.027146","945972.637553","946739.286917","947506.316872","948272.521335","949039.958472","949806.681418","949050.334324","Mapping"
"Blocked","Male","done","22","M_greet.wav","None","720.509282459","209","943690.017694","950573.106322","936739.636282","937506.533603","938272.969946","939039.85057","939806.558986","940573.12209","944456.048093","945206.027146","945972.637553","946739.286917","947506.316872","948272.521335","949039.958472","949806.681418","949816.816734","Mapping"
"Blocked","Male","done","22","M_depth.wav","None","719.122640643","209","943690.017694","950573.106322","951322.63862","937506.533603","938272.969946","939039.85057","939806.558986","940573.12209","944456.048093","945206.027146","945972.637553","946739.286917","947506.316872","948272.521335","949039.958472","949806.681418","950583.181658","Mapping"
"Blocked","Male","done","22","M_done.wav","None","734.627367463","209","943690.017694","950573.106322","951322.63862","952089.423092","938272.969946","939039.85057","939806.558986","940573.12209","944456.048093","945206.027146","945972.637553","946739.286917","947506.316872","948272.521335","949039.958472","949806.681418","951332.403237","Mapping"
"Blocked","Male","done","22","M_park.wav","space","624.364455842","209","943690.017694","950573.106322","951322.63862","952089.423092","952856.298461","939039.85057","939806.558986","940573.12209","944456.048093","945206.027146","945972.637553","946739.286917","947506.316872","948272.521335","949039.958472","949806.681418","952099.268403","Mapping"
"Blocked","Male","done","22","M_done.wav","None","729.044317821","209","943690.017694","950573.106322","951322.63862","952089.423092","952856.298461","953622.460876","939806.558986","940573.12209","944456.048093","945206.027146","945972.637553","946739.286917","947506.316872","948272.521335","949039.958472","949806.681418","952866.573523","Mapping"
"Blocked","Male","done","22","M_romp.wav","space","571.867464867","209","943690.017694","950573.106322","951322.63862","952089.423092","952856.298461","953622.460876","954389.544937","940573.12209","944456.048093","945206.027146","945972.637553","946739.286917","947506.316872","948272.521335","949039.958472","949806.681418","953631.760188","Mapping"
"Blocked","Male","done","22","M_bluff.wav","None","730.575034337","209","943690.017694","950573.106322","951322.63862","952089.423092","952856.298461","953622.460876","954389.544937","955156.54212","944456.048093","945206.027146","945972.637553","946739.286917","947506.316872","948272.521335","949039.958472","949806.681418","954393.796687","Mapping"
"Blocked","Male","cave","7","M_gnash.wav","None","721.897160955","209","958273.049712","950573.106322","951322.63862","952089.423092","952856.298461","953622.460876","954389.544937","955156.54212","944456.048093","945206.027146","945972.637553","946739.286917","947506.316872","948272.521335","949039.958472","949806.681418","955167.30815","Mapping"
"Blocked","Male","cave","7","M_cling.wav","None","720.526596153","209","958273.049712","950573.106322","951322.63862","952089.423092","952856.298461","953622.460876","954389.544937","955156.54212","959039.740814","945206.027146","945972.637553","946739.286917","947506.316872","948272.521335","949039.958472","949806.681418","958283.122266","Mapping"
"Blocked","Male","cave","7","M_cave.wav","None","718.630746094","209","958273.049712","950573.106322","951322.63862","952089.423092","952856.298461","953622.460876","954389.544937","955156.54212","959039.740814","959789.234775","945972.637553","946739.286917","947506.316872","948272.521335","949039.958472","949806.681418","959049.713195","Mapping"
"Blocked","Male","cave","7","M_knife.wav","space","540.456086106","209","958273.049712","950573.106322","951322.63862","952089.423092","952856.298461","953622.460876","954389.544937","955156.54212","959039.740814","959789.234775","960555.735426","946739.286917","947506.316872","948272.521335","949039.958472","949806.681418","959799.031546","Mapping"
"Blocked","Male","cave","7","M_cave.wav","None","731.892112148","209","958273.049712","950573.106322","951322.63862","952089.423092","952856.298461","953622.460876","954389.544937","955156.54212","959039.740814","959789.234775","960555.735426","961322.595645","947506.316872","948272.521335","949039.958472","949806.681418","960565.005057","Mapping"
"Blocked","Male","cave","7","M_jaw.wav","space","655.132754327","209","958273.049712","950573.106322","951322.63862","952089.423092","952856.298461","953622.460876","954389.544937","955156.54212","959039.740814","959789.234775","960555.735426","961322.595645","962089.399904","948272.521335","949039.958472","949806.681418","961332.339238","Mapping"
"Blocked","Male","cave","7","M_lash.wav","None","726.499204029","209","958273.049712","950573.106322","951322.63862","952089.423092","952856.298461","953622.460876","954389.544937","955156.54212","959039.740814","959789.234775","960555.735426","961322.595645","962089.399904","962855.682897","949039.958472","949806.681418","962099.181217","Mapping"
"Blocked","Male","cave","7","M_park.wav","None","725.364229205","209","958273.049712","950573.106322","951322.63862","952089.423092","952856.298461","953622.460876","954389.544937","955156.54212","959039.740814","959789.234775","960555.735426","961322.595645","962089.399904","962855.682897","963622.621028","949806.681418","962865.019928","Mapping"
"Blocked","Male","cave","7","M_cave.wav","None","723.075729184","209","958273.049712","950573.106322","951322.63862","952089.423092","952856.298461","953622.460876","954389.544937","955156.54212","959039.740814","959789.234775","960555.735426","961322.595645","962089.399904","962855.682897","963622.621028","964389.725185","963632.063796","Mapping"
"Blocked","Male","cave","7","M_done.wav","space","603.711067757","209","958273.049712","965139.3895","951322.63862","952089.423092","952856.298461","953622.460876","954389.544937","955156.54212","959039.740814","959789.234775","960555.735426","961322.595645","962089.399904","962855.682897","963622.621028","964389.725185","964399.726011","Mapping"
"Blocked","Male","cave","7","M_cave.wav","None","734.438462619","209","958273.049712","965139.3895","965906.109355","952089.423092","952856.298461","953622.460876","954389.544937","955156.54212","959039.740814","959789.234775","960555.735426","961322.595645","962089.399904","962855.682897","963622.621028","964389.725185","965149.864907","Mapping"
"Blocked","Male","cave","7","M_cling.wav","space","575.501177489","209","958273.049712","965139.3895","965906.109355","966672.435942","952856.298461","953622.460876","954389.544937","955156.54212","959039.740814","959789.234775","960555.735426","961322.595645","962089.399904","962855.682897","963622.621028","964389.725185","965915.915711","Mapping"
"Blocked","Male","cave","7","M_jolt.wav","None","731.175448687","209","958273.049712","965139.3895","965906.109355","966672.435942","967439.142193","953622.460876","954389.544937","955156.54212","959039.740814","959789.234775","960555.735426","961322.595645","962089.399904","962855.682897","963622.621028","964389.725185","966682.095131","Mapping"
"Blocked","Male","cave","7","M_cad.wav","None","729.200759437","209","958273.049712","965139.3895","965906.109355","966672.435942","967439.142193","968206.090527","954389.544937","955156.54212","959039.740814","959789.234775","960555.735426","961322.595645","962089.399904","962855.682897","963622.621028","964389.725185","967448.8694","Mapping"
"Blocked","Male","cave","7","M_depth.wav","None","726.831565204","209","958273.049712","965139.3895","965906.109355","966672.435942","967439.142193","968206.090527","968972.362698","955156.54212","959039.740814","959789.234775","960555.735426","961322.595645","962089.399904","962855.682897","963622.621028","964389.725185","968216.233881","Mapping"
"Blocked","Male","cave","7","M_done.wav","None","725.823969784","209","958273.049712","965139.3895","965906.109355","966672.435942","967439.142193","968206.090527","968972.362698","969739.569192","959039.740814","959789.234775","960555.735426","961322.595645","962089.399904","962855.682897","963622.621028","964389.725185","968982.088051","Mapping"
"Blocked","Male","tile","18","M_reek.wav","None","722.666693066","209","972855.957443","965139.3895","965906.109355","966672.435942","967439.142193","968206.090527","968972.362698","969739.569192","959039.740814","959789.234775","960555.735426","961322.595645","962089.399904","962855.682897","963622.621028","964389.725185","969750.03285","Mapping"
"Blocked","Male","tile","18","M_reek.wav","None","720.184032252","209","972855.957443","965139.3895","965906.109355","966672.435942","967439.142193","968206.090527","968972.362698","969739.569192","973622.817662","959789.234775","960555.735426","961322.595645","962089.399904","962855.682897","963622.621028","964389.725185","972866.264968","Mapping"
"Blocked","Male","tile","18","M_depth.wav","None","718.405358843","209","972855.957443","965139.3895","965906.109355","966672.435942","967439.142193","968206.090527","968972.362698","969739.569192","973622.817662","974372.228146","960555.735426","961322.595645","962089.399904","962855.682897","963622.621028","964389.725185","973632.866719","Mapping"
"Blocked","Male","tile","18","M_romp.wav","None","734.43382504","209","972855.957443","965139.3895","965906.109355","966672.435942","967439.142193","968206.090527","968972.362698","969739.569192","973622.817662","974372.228146","975139.120211","961322.595645","962089.399904","962855.682897","963622.621028","964389.725185","974381.625775","Mapping"
"Blocked","Male","tile","18","M_knife.wav","None","731.688057858","209","972855.957443","965139.3895","965906.109355","966672.435942","967439.142193","968206.090527","968972.362698","969739.569192","973622.817662","974372.228146","975139.120211","975905.876857","962089.399904","962855.682897","963622.621028","964389.725185","975149.164011","Mapping"
"Blocked","Male","tile","18","M_tile.wav","None","730.064280186","209","972855.957443","965139.3895","965906.109355","966672.435942","967439.142193","968206.090527","968972.362698","969739.569192","973622.817662","974372.228146","975139.120211","975905.876857","976672.030306","962855.682897","963622.621028","964389.725185","975915.845219","Mapping"
"Blocked","Male","tile","18","M_gnash.wav","space","561.789036903","209","972855.957443","965139.3895","965906.109355","966672.435942","967439.142193","968206.090527","968972.362698","969739.569192","973622.817662","974372.228146","975139.120211","975905.876857","976672.030306","977438.948341","963622.621028","964389.725185","976681.413713","Mapping"
"Blocked","Male","tile","18","M_reek.wav","None","727.035001182","209","972855.957443","965139.3895","965906.109355","966672.435942","967439.142193","968206.090527","968972.362698","969739.569192","973622.817662","974372.228146","975139.120211","975905.876857","976672.030306","977438.948341","978206.152052","964389.725185","977448.737383","Mapping"
"Blocked","Male","tile","18","M_tile.wav","None","725.068041298","209","972855.957443","965139.3895","965906.109355","966672.435942","967439.142193","968206.090527","968972.362698","969739.569192","973622.817662","974372.228146","975139.120211","975905.876857","976672.030306","977438.948341","978206.152052","978972.603854","978215.825154","Mapping"
"Blocked","Male","tile","18","M_cling.wav","space","515.603507636","209","972855.957443","979739.346896","965906.109355","966672.435942","967439.142193","968206.090527","968972.362698","969739.569192","973622.817662","974372.228146","975139.120211","975905.876857","976672.030306","977438.948341","978206.152052","978972.603854","978983.546111","Mapping"
"Blocked","Male","tile","18","M_tile.wav","None","721.267375164","209","972855.957443","979739.346896","980506.002443","966672.435942","967439.142193","968206.090527","968972.362698","969739.569192","973622.817662","974372.228146","975139.120211","975905.876857","976672.030306","977438.948341","978206.152052","978972.603854","979749.250023","Mapping"
"Blocked","Male","tile","18","M_reek.wav","space","639.272478351","209","972855.957443","979739.346896","980506.002443","981255.50908","967439.142193","968206.090527","968972.362698","969739.569192","973622.817662","974372.228146","975139.120211","975905.876857","976672.030306","977438.948341","978206.152052","978972.603854","980515.856102","Mapping"
"Blocked","Male","tile","18","M_park.wav","None","734.37971971","209","972855.957443","979739.346896","980506.002443","981255.50908","982022.132163","968206.090527","968972.362698","969739.569192","973622.817662","974372.228146","975139.120211","975905.876857","976672.030306","977438.948341","978206.152052","978972.603854","981265.153429","Mapping"
"Blocked","Male","tile","18","M_depth.wav","None","732.738937542","209","972855.957443","979739.346896","980506.002443","981255.50908","982022.132163","982788.880771","968972.362698","969739.569192","973622.817662","974372.228146","975139.120211","975905.876857","976672.030306","977438.948341","978206.152052","978972.603854","982031.842366","Mapping"
"Blocked","Male","tile","18","M_tile.wav","None","731.002620887","209","972855.957443","979739.346896","980506.002443","981255.50908","982022.132163","982788.880771","983555.384823","969739.569192","973622.817662","974372.228146","975139.120211","975905.876857","976672.030306","977438.948341","978206.152052","978972.603854","982798.50657","Mapping"
"Blocked","Male","tile","18","M_jolt.wav","space","566.338829696","209","972855.957443","979739.346896","980506.002443","981255.50908","982022.132163","982788.880771","983555.384823","984322.139615","973622.817662","974372.228146","975139.120211","975905.876857","976672.030306","977438.948341","978206.152052","978972.603854","983564.74937","Mapping"
"Blocked","Male","ball","5","M_cling.wav","None","726.18106482","209","987455.722842","979739.346896","980506.002443","981255.50908","982022.132163","982788.880771","983555.384823","984322.139615","973622.817662","974372.228146","975139.120211","975905.876857","976672.030306","977438.948341","978206.152052","978972.603854","984332.554732","Mapping"
"Blocked","Male","ball","5","M_jaw.wav","None","721.607465675","209","987455.722842","979739.346896","980506.002443","981255.50908","982022.132163","982788.880771","983555.384823","984322.139615","988222.40776","974372.228146","975139.120211","975905.876857","976672.030306","977438.948341","978206.152052","978972.603854","987464.947334","Mapping"
"Blocked","Male","ball","5","M_ball.wav","None","719.368742517","209","987455.722842","979739.346896","980506.002443","981255.50908","982022.132163","982788.880771","983555.384823","984322.139615","988222.40776","988971.93944","975139.120211","975905.876857","976672.030306","977438.948341","978206.152052","978972.603854","988232.151045","Mapping"
"Blocked","Male","ball","5","M_gnash.wav","space","469.450750737","209","987455.722842","979739.346896","980506.002443","981255.50908","982022.132163","982788.880771","983555.384823","984322.139615","988222.40776","988971.93944","989738.439473","975905.876857","976672.030306","977438.948341","978206.152052","978972.603854","988981.524119","Mapping"
"Blocked","Male","ball","5","M_romp.wav","None","732.461609179","209","987455.722842","979739.346896","980506.002443","981255.50908","982022.132163","982788.880771","983555.384823","984322.139615","988222.40776","988971.93944","989738.439473","990505.661425","976672.030306","977438.948341","978206.152052","978972.603854","989748.094334","Mapping"
"Blocked","Male","ball","5","M_romp.wav","None","729.93690084","209","987455.722842","979739.346896","980506.002443","981255.50908","982022.132163","982788.880771","983555.384823","984322.139615","988222.40776","988971.93944","989738.439473","990505.661425","991271.986156","977438.948341","978206.152052","978972.603854","990515.626386","Mapping"
"Blocked","Male","ball","5","M_ball.wav","None","729.006289504","209","987455.722842","979739.346896","980506.002443","981255.50908","982022.132163","982788.880771","983555.384823","984322.139615","988222.40776","988971.93944","989738.439473","990505.661425","991271.986156","992038.482479","978206.152052","978972.603854","991281.482102","Mapping"
"Blocked","Male","ball","5","M_bluff.wav","space","570.406003157","209","987455.722842","979739.346896","980506.002443","981255.50908","982022.132163","982788.880771","983555.384823","984322.139615","988222.40776","988971.93944","989738.439473","990505.661425","991271.986156","992038.482479","992805.634558","978972.603854","992048.573583","Mapping"
"Blocked","Male","ball","5","M_gnash.wav","None","723.976969079","209","987455.722842","979739.346896","980506.002443","981255.50908","982022.132163","982788.880771","983555.384823","984322.139615","988222.40776","988971.93944","989738.439473","990505.661425","991271.986156","992038.482479","992805.634558","993572.784782","992815.87963","Mapping"
"Blocked","Male","ball","5","M_ball.wav","None","722.332786012","209","987455.722842","994339.119716","980506.002443","981255.50908","982022.132163","982788.880771","983555.384823","984322.139615","988222.40776","988971.93944","989738.439473","990505.661425","991271.986156","992038.482479","992805.634558","993572.784782","993582.536104","Mapping"
"Blocked","Male","ball","5","M_dime.wav","space","453.480099939","209","987455.722842","994339.119716","995088.447341","981255.50908","982022.132163","982788.880771","983555.384823","984322.139615","988222.40776","988971.93944","989738.439473","990505.661425","991271.986156","992038.482479","992805.634558","993572.784782","994349.384266","Mapping"
"Blocked","Male","ball","5","M_lash.wav","None","736.024211976","209","987455.722842","994339.119716","995088.447341","995854.998388","982022.132163","982788.880771","983555.384823","984322.139615","988222.40776","988971.93944","989738.439473","990505.661425","991271.986156","992038.482479","992805.634558","993572.784782","995097.917626","Mapping"
"Blocked","Male","ball","5","M_cling.wav","None","734.49256795","209","987455.722842","994339.119716","995088.447341","995854.998388","996621.909311","982788.880771","983555.384823","984322.139615","988222.40776","988971.93944","989738.439473","990505.661425","991271.986156","992038.482479","992805.634558","993572.784782","995864.44332","Mapping"
"Blocked","Male","ball","5","M_dime.wav","None","731.990429224","209","987455.722842","994339.119716","995088.447341","995854.998388","996621.909311","997388.545071","983555.384823","984322.139615","988222.40776","988971.93944","989738.439473","990505.661425","991271.986156","992038.482479","992805.634558","993572.784782","996631.881693","Mapping"
"Blocked","Male","ball","5","M_ball.wav","None","730.771050119","209","987455.722842","994339.119716","995088.447341","995854.998388","996621.909311","997388.545071","998155.03521","984322.139615","988222.40776","988971.93944","989738.439473","990505.661425","991271.986156","992038.482479","992805.634558","993572.784782","997398.295775","Mapping"
"Blocked","Male","ball","5","M_jolt.wav","space","494.4971808","209","987455.722842","994339.119716","995088.447341","995854.998388","996621.909311","997388.545071","998155.03521","998922.195946","988222.40776","988971.93944","989738.439473","990505.661425","991271.986156","992038.482479","992805.634558","993572.784782","998164.319372","Mapping"
"Blocked","Male","cave","10","M_greet.wav","None","726.156949298","209","1002055.66262","994339.119716","995088.447341","995854.998388","996621.909311","997388.545071","998155.03521","998922.195946","988222.40776","988971.93944","989738.439473","990505.661425","991271.986156","992038.482479","992805.634558","993572.784782","998931.913569","Mapping"
"Blocked","Male","cave","10","M_cave.wav","None","720.04614101","209","1002055.66262","994339.119716","995088.447341","995854.998388","996621.909311","997388.545071","998155.03521","998922.195946","1002822.20253","988971.93944","989738.439473","990505.661425","991271.986156","992038.482479","992805.634558","993572.784782","1002065.77938","Mapping"
"Blocked","Male","cave","10","M_lash.wav","space","610.86595396","209","1002055.66262","994339.119716","995088.447341","995854.998388","996621.909311","997388.545071","998155.03521","998922.195946","1002822.20253","1003571.8282","989738.439473","990505.661425","991271.986156","992038.482479","992805.634558","993572.784782","1002831.88707","Mapping"
"Blocked","Male","cave","10","M_cave.wav","None","733.097887627","209","1002055.66262","994339.119716","995088.447341","995854.998388","996621.909311","997388.545071","998155.03521","998922.195946","1002822.20253","1003571.8282","1004338.20951","990505.661425","991271.986156","992038.482479","992805.634558","993572.784782","1003581.7573","Mapping"
"Blocked","Male","cave","10","M_park.wav","space","622.96482877","209","1002055.66262","994339.119716","995088.447341","995854.998388","996621.909311","997388.545071","998155.03521","998922.195946","1002822.20253","1003571.8282","1004338.20951","1005104.88392","991271.986156","992038.482479","992805.634558","993572.784782","1004347.74379","Mapping"
"Blocked","Male","cave","10","M_cave.wav","None","729.784787633","209","1002055.66262","994339.119716","995088.447341","995854.998388","996621.909311","997388.545071","998155.03521","998922.195946","1002822.20253","1003571.8282","1004338.20951","1005104.88392","1005871.55925","992038.482479","992805.634558","993572.784782","1005113.94826","Mapping"
"Blocked","Male","cave","10","M_jaw.wav","space","506.024394388","209","1002055.66262","994339.119716","995088.447341","995854.998388","996621.909311","997388.545071","998155.03521","998922.195946","1002822.20253","1003571.8282","1004338.20951","1005104.88392","1005871.55925","1006638.29209","992805.634558","993572.784782","1005880.66255","Mapping"
"Blocked","Male","cave","10","M_greet.wav","None","724.850074184","209","1002055.66262","994339.119716","995088.447341","995854.998388","996621.909311","997388.545071","998155.03521","998922.195946","1002822.20253","1003571.8282","1004338.20951","1005104.88392","1005871.55925","1006638.29209","1007405.54032","993572.784782","1006647.5676","Mapping"
"Blocked","Male","cave","10","M_dime.wav","None","722.188402113","209","1002055.66262","994339.119716","995088.447341","995854.998388","996621.909311","997388.545071","998155.03521","998922.195946","1002822.20253","1003571.8282","1004338.20951","1005104.88392","1005871.55925","1006638.29209","1007405.54032","1008172.03912","1007415.98914","Mapping"
"Blocked","Male","cave","10","M_gnash.wav","None","721.569128189","209","1002055.66262","1008939.11174","995088.447341","995854.998388","996621.909311","997388.545071","998155.03521","998922.195946","1002822.20253","1003571.8282","1004338.20951","1005104.88392","1005871.55925","1006638.29209","1007405.54032","1008172.03912","1008181.51249","Mapping"
"Blocked","Male","cave","10","M_cave.wav","None","718.678667938","209","1002055.66262","1008939.11174","1009688.20006","995854.998388","996621.909311","997388.545071","998155.03521","998922.195946","1002822.20253","1003571.8282","1004338.20951","1005104.88392","1005871.55925","1006638.29209","1007405.54032","1008172.03912","1008949.4171","Mapping"
"Blocked","Male","cave","10","M_ball.wav","space","368.177049881","209","1002055.66262","1008939.11174","1009688.20006","1010455.26588","996621.909311","997388.545071","998155.03521","998922.195946","1002822.20253","1003571.8282","1004338.20951","1005104.88392","1005871.55925","1006638.29209","1007405.54032","1008172.03912","1009698.42071","Mapping"
"Blocked","Male","cave","10","M_done.wav","None","732.335775712","209","1002055.66262","1008939.11174","1009688.20006","1010455.26588","1011221.62122","997388.545071","998155.03521","998922.195946","1002822.20253","1003571.8282","1004338.20951","1005104.88392","1005871.55925","1006638.29209","1007405.54032","1008172.03912","1010465.25032","Mapping"
"Blocked","Male","cave","10","M_lash.wav","None","731.486476929","209","1002055.66262","1008939.11174","1009688.20006","1010455.26588","1011221.62122","1011988.43476","998155.03521","998922.195946","1002822.20253","1003571.8282","1004338.20951","1005104.88392","1005871.55925","1006638.29209","1007405.54032","1008172.03912","1011231.05472","Mapping"
"Blocked","Male","cave","10","M_bluff.wav","None","729.432639346","209","1002055.66262","1008939.11174","1009688.20006","1010455.26588","1011221.62122","1011988.43476","1012755.19821","998922.195946","1002822.20253","1003571.8282","1004338.20951","1005104.88392","1005871.55925","1006638.29209","1007405.54032","1008172.03912","1011998.22009","Mapping"
"Blocked","Male","cave","10","M_cad.wav","None","727.897285251","209","1002055.66262","1008939.11174","1009688.20006","1010455.26588","1011221.62122","1011988.43476","1012755.19821","1013521.61043","1002822.20253","1003571.8282","1004338.20951","1005104.88392","1005871.55925","1006638.29209","1007405.54032","1008172.03912","1012764.93994","Mapping"
"Blocked","Male","ball","6","M_jaw.wav","None","726.268560829","209","1016655.48676","1008939.11174","1009688.20006","1010455.26588","1011221.62122","1011988.43476","1012755.19821","1013521.61043","1002822.20253","1003571.8282","1004338.20951","1005104.88392","1005871.55925","1006638.29209","1007405.54032","1008172.03912","1013531.66444","Mapping"
"Blocked","Male","ball","6","M_jolt.wav","None","720.031609875","209","1016655.48676","1008939.11174","1009688.20006","1010455.26588","1011221.62122","1011988.43476","1012755.19821","1013521.61043","1017421.72121","1003571.8282","1004338.20951","1005104.88392","1005871.55925","1006638.29209","1007405.54032","1008172.03912","1016665.6465","Mapping"
"Blocked","Male","ball","6","M_ball.wav","None","718.681141356","209","1016655.48676","1008939.11174","1009688.20006","1010455.26588","1011221.62122","1011988.43476","1012755.19821","1013521.61043","1017421.72121","1018171.31318","1004338.20951","1005104.88392","1005871.55925","1006638.29209","1007405.54032","1008172.03912","1017432.08531","Mapping"
"Blocked","Male","ball","6","M_bluff.wav","space","389.976852195","209","1016655.48676","1008939.11174","1009688.20006","1010455.26588","1011221.62122","1011988.43476","1012755.19821","1013521.61043","1017421.72121","1018171.31318","1018938.26924","1005104.88392","1005871.55925","1006638.29209","1007405.54032","1008172.03912","1018180.46996","Mapping"
"Blocked","Male","ball","6","M_knife.wav","None","731.820693152","209","1016655.48676","1008939.11174","1009688.20006","1010455.26588","1011221.62122","1011988.43476","1012755.19821","1013521.61043","1017421.72121","1018171.31318","1018938.26924","1019704.58315","1005871.55925","1006638.29209","1007405.54032","1008172.03912","1018948.06447","Mapping"
"Blocked","Male","ball","6","M_cling.wav","None","730.334188411","209","1016655.48676","1008939.11174","1009688.20006","1010455.26588","1011221.62122","1011988.43476","1012755.19821","1013521.61043","1017421.72121","1018171.31318","1018938.26924","1019704.58315","1020471.54045","1006638.29209","1007405.54032","1008172.03912","1019714.64612","Mapping"
"Blocked","Male","ball","6","M_depth.wav","None","729.16458617","209","1016655.48676","1008939.11174","1009688.20006","1010455.26588","1011221.62122","1011988.43476","1012755.19821","1013521.61043","1017421.72121","1018171.31318","1018938.26924","1019704.58315","1020471.54045","1021237.87941","1007405.54032","1008172.03912","1020481.35577","Mapping"
"Blocked","Male","ball","6","M_ball.wav","None","728.651358688","209","1016655.48676","1008939.11174","1009688.20006","1010455.26588","1011221.62122","1011988.43476","1012755.19821","1013521.61043","1017421.72121","1018171.31318","1018938.26924","1019704.58315","1020471.54045","1021237.87941","1022004.86175","1008172.03912","1021247.05628","Mapping"
"Blocked","Male","ball","6","M_reek.wav","space","515.408419335","209","1016655.48676","1008939.11174","1009688.20006","1010455.26588","1011221.62122","1011988.43476","1012755.19821","1013521.61043","1017421.72121","1018171.31318","1018938.26924","1019704.58315","1020471.54045","1021237.87941","1022004.86175","1022771.82029","1022014.99119","Mapping"
"Blocked","Male","ball","6","M_tile.wav","None","723.145293188","209","1016655.48676","1023538.92692","1009688.20006","1010455.26588","1011221.62122","1011988.43476","1012755.19821","1013521.61043","1017421.72121","1018171.31318","1018938.26924","1019704.58315","1020471.54045","1021237.87941","1022004.86175","1022771.82029","1022781.77659","Mapping"
"Blocked","Male","ball","6","M_ball.wav","None","720.971496397","209","1016655.48676","1023538.92692","1024305.15828","1010455.26588","1011221.62122","1011988.43476","1012755.19821","1013521.61043","1017421.72121","1018171.31318","1018938.26924","1019704.58315","1020471.54045","1021237.87941","1022004.86175","1022771.82029","1023549.13705","Mapping"
"Blocked","Male","ball","6","M_greet.wav","space","574.774311273","209","1016655.48676","1023538.92692","1024305.15828","1025054.64265","1011221.62122","1011988.43476","1012755.19821","1013521.61043","1017421.72121","1018171.31318","1018938.26924","1019704.58315","1020471.54045","1021237.87941","1022004.86175","1022771.82029","1024315.5298","Mapping"
"Blocked","Male","ball","6","M_ball.wav","None","734.798649413","209","1016655.48676","1023538.92692","1024305.15828","1025054.64265","1025821.39559","1011988.43476","1012755.19821","1013521.61043","1017421.72121","1018171.31318","1018938.26924","1019704.58315","1020471.54045","1021237.87941","1022004.86175","1022771.82029","1025064.38563","Mapping"
"Blocked","Male","ball","6","M_dime.wav","space","610.481033305","209","1016655.48676","1023538.92692","1024305.15828","1025054.64265","1025821.39559","1026588.18315","1012755.19821","1013521.61043","1017421.72121","1018171.31318","1018938.26924","1019704.58315","1020471.54045","1021237.87941","1022004.86175","1022771.82029","1025831.86481","Mapping"
"Blocked","Male","ball","6","M_jaw.wav","None","730.588019622","209","1016655.48676","1023538.92692","1024305.15828","1025054.64265","1025821.39559","1026588.18315","1027354.92249","1013521.61043","1017421.72121","1018171.31318","1018938.26924","1019704.58315","1020471.54045","1021237.87941","1022004.86175","1022771.82029","1026597.77123","Mapping"
"Blocked","Male","ball","6","M_romp.wav","None","728.853557957","209","1016655.48676","1023538.92692","1024305.15828","1025054.64265","1025821.39559","1026588.18315","1027354.92249","1028121.36841","1017421.72121","1018171.31318","1018938.26924","1019704.58315","1020471.54045","1021237.87941","1022004.86175","1022771.82029","1027364.65711","Mapping"
"Blocked","Male","ball","3","M_jaw.wav","None","727.566779067","209","1031255.09386","1023538.92692","1024305.15828","1025054.64265","1025821.39559","1026588.18315","1027354.92249","1028121.36841","1017421.72121","1018171.31318","1018938.26924","1019704.58315","1020471.54045","1021237.87941","1022004.86175","1022771.82029","1028131.33059","Mapping"
"Blocked","Male","ball","3","M_ball.wav","None","720.090971125","209","1031255.09386","1023538.92692","1024305.15828","1025054.64265","1025821.39559","1026588.18315","1027354.92249","1028121.36841","1032021.51042","1018171.31318","1018938.26924","1019704.58315","1020471.54045","1021237.87941","1022004.86175","1022771.82029","1031265.19455","Mapping"
"Blocked","Male","ball","3","M_jaw.wav","space","474.017548055","209","1031255.09386","1023538.92692","1024305.15828","1025054.64265","1025821.39559","1026588.18315","1027354.92249","1028121.36841","1032021.51042","1032771.23007","1018938.26924","1019704.58315","1020471.54045","1021237.87941","1022004.86175","1022771.82029","1032032.21461","Mapping"
"Blocked","Male","ball","3","M_ball.wav","None","733.561029076","209","1031255.09386","1023538.92692","1024305.15828","1025054.64265","1025821.39559","1026588.18315","1027354.92249","1028121.36841","1032021.51042","1032771.23007","1033537.89922","1019704.58315","1020471.54045","1021237.87941","1022004.86175","1022771.82029","1032780.90318","Mapping"
"Blocked","Male","ball","3","M_lash.wav","space","406.256676186","209","1031255.09386","1023538.92692","1024305.15828","1025054.64265","1025821.39559","1026588.18315","1027354.92249","1028121.36841","1032021.51042","1032771.23007","1033537.89922","1034304.81015","1020471.54045","1021237.87941","1022004.86175","1022771.82029","1033547.93282","Mapping"
"Blocked","Male","ball","3","M_gnash.wav","None","729.067196633","209","1031255.09386","1023538.92692","1024305.15828","1025054.64265","1025821.39559","1026588.18315","1027354.92249","1028121.36841","1032021.51042","1032771.23007","1033537.89922","1034304.81015","1035071.22516","1021237.87941","1022004.86175","1022771.82029","1034314.66752","Mapping"
"Blocked","Male","ball","3","M_knife.wav","None","728.114015656","209","1031255.09386","1023538.92692","1024305.15828","1025054.64265","1025821.39559","1026588.18315","1027354.92249","1028121.36841","1032021.51042","1032771.23007","1033537.89922","1034304.81015","1035071.22516","1035837.98644","1022004.86175","1022771.82029","1035080.86332","Mapping"
"Blocked","Male","ball","3","M_reek.wav","None","726.335342246","209","1031255.09386","1023538.92692","1024305.15828","1025054.64265","1025821.39559","1026588.18315","1027354.92249","1028121.36841","1032021.51042","1032771.23007","1033537.89922","1034304.81015","1035071.22516","1035837.98644","1036604.76009","1022771.82029","1035848.06982","Mapping"
"Blocked","Male","ball","3","M_ball.wav","None","725.065877079","209","1031255.09386","1023538.92692","1024305.15828","1025054.64265","1025821.39559","1026588.18315","1027354.92249","1028121.36841","1032021.51042","1032771.23007","1033537.89922","1034304.81015","1035071.22516","1035837.98644","1036604.76009","1037371.46171","1036614.52193","Mapping"
"Blocked","Male","ball","3","M_cad.wav","space","452.838565514","209","1031255.09386","1038138.14291","1024305.15828","1025054.64265","1025821.39559","1026588.18315","1027354.92249","1028121.36841","1032021.51042","1032771.23007","1033537.89922","1034304.81015","1035071.22516","1035837.98644","1036604.76009","1037371.46171","1037381.30887","Mapping"
"Blocked","Male","ball","3","M_dime.wav","None","720.540508948","209","1031255.09386","1038138.14291","1038905.22945","1025054.64265","1025821.39559","1026588.18315","1027354.92249","1028121.36841","1032021.51042","1032771.23007","1033537.89922","1034304.81015","1035071.22516","1035837.98644","1036604.76009","1037371.46171","1038148.39973","Mapping"
"Blocked","Male","ball","3","M_jolt.wav","None","719.04503819","209","1031255.09386","1038138.14291","1038905.22945","1039670.65232","1025821.39559","1026588.18315","1027354.92249","1028121.36841","1032021.51042","1032771.23007","1033537.89922","1034304.81015","1035071.22516","1035837.98644","1036604.76009","1037371.46171","1038915.1165","Mapping"
"Blocked","Male","ball","3","M_gnash.wav","None","721.617050032","209","1031255.09386","1038138.14291","1038905.22945","1039670.65232","1040438.36122","1026588.18315","1027354.92249","1028121.36841","1032021.51042","1032771.23007","1033537.89922","1034304.81015","1035071.22516","1035837.98644","1036604.76009","1037371.46171","1039679.98471","Mapping"
"Blocked","Male","ball","3","M_ball.wav","None","718.23840533","209","1031255.09386","1038138.14291","1038905.22945","1039670.65232","1040438.36122","1041187.78098","1027354.92249","1028121.36841","1032021.51042","1032771.23007","1033537.89922","1034304.81015","1035071.22516","1035837.98644","1036604.76009","1037371.46171","1040448.88548","Mapping"
"Blocked","Male","ball","3","M_cave.wav","space","436.562451592","209","1031255.09386","1038138.14291","1038905.22945","1039670.65232","1040438.36122","1041187.78098","1041954.74972","1028121.36841","1032021.51042","1032771.23007","1033537.89922","1034304.81015","1035071.22516","1035837.98644","1036604.76009","1037371.46171","1041197.46954","Mapping"
"Blocked","Male","ball","3","M_park.wav","None","732.580331707","209","1031255.09386","1038138.14291","1038905.22945","1039670.65232","1040438.36122","1041187.78098","1041954.74972","1042721.10042","1032021.51042","1032771.23007","1033537.89922","1034304.81015","1035071.22516","1035837.98644","1036604.76009","1037371.46171","1041964.63399","Mapping"
"Blocked","Male","cave","8","M_jolt.wav","None","731.507500692","209","1045854.83484","1038138.14291","1038905.22945","1039670.65232","1040438.36122","1041187.78098","1041954.74972","1042721.10042","1032021.51042","1032771.23007","1033537.89922","1034304.81015","1035071.22516","1035837.98644","1036604.76009","1037371.46171","1042730.95748","Mapping"
"Blocked","Male","cave","8","M_reek.wav","None","720.010586083","209","1045854.83484","1038138.14291","1038905.22945","1039670.65232","1040438.36122","1041187.78098","1041954.74972","1042721.10042","1046621.33858","1032771.23007","1033537.89922","1034304.81015","1035071.22516","1035837.98644","1036604.76009","1037371.46171","1045864.98128","Mapping"
"Blocked","Male","cave","8","M_knife.wav","None","718.456681585","209","1045854.83484","1038138.14291","1038905.22945","1039670.65232","1040438.36122","1041187.78098","1041954.74972","1042721.10042","1046621.33858","1047370.63652","1033537.89922","1034304.81015","1035071.22516","1035837.98644","1036604.76009","1037371.46171","1046631.79018","Mapping"
"Blocked","Male","cave","8","M_depth.wav","None","734.987863398","209","1045854.83484","1038138.14291","1038905.22945","1039670.65232","1040438.36122","1041187.78098","1041954.74972","1042721.10042","1046621.33858","1047370.63652","1048137.43027","1034304.81015","1035071.22516","1035837.98644","1036604.76009","1037371.46171","1047380.53749","Mapping"
"Blocked","Male","cave","8","M_knife.wav","None","733.528565877","209","1045854.83484","1038138.14291","1038905.22945","1039670.65232","1040438.36122","1041187.78098","1041954.74972","1042721.10042","1046621.33858","1047370.63652","1048137.43027","1048904.25957","1035071.22516","1035837.98644","1036604.76009","1037371.46171","1048147.09873","Mapping"
"Blocked","Male","cave","8","M_cave.wav","None","732.675557054","209","1045854.83484","1038138.14291","1038905.22945","1039670.65232","1040438.36122","1041187.78098","1041954.74972","1042721.10042","1046621.33858","1047370.63652","1048137.43027","1048904.25957","1049670.89626","1035837.98644","1036604.76009","1037371.46171","1048913.46273","Mapping"
"Blocked","Male","cave","8","M_done.wav","space","585.309388058","209","1045854.83484","1038138.14291","1038905.22945","1039670.65232","1040438.36122","1041187.78098","1041954.74972","1042721.10042","1046621.33858","1047370.63652","1048137.43027","1048904.25957","1049670.89626","1050437.81306","1036604.76009","1037371.46171","1049680.5573","Mapping"
"Blocked","Male","cave","8","M_jaw.wav","None","727.989728039","209","1045854.83484","1038138.14291","1038905.22945","1039670.65232","1040438.36122","1041187.78098","1041954.74972","1042721.10042","1046621.33858","1047370.63652","1048137.43027","1048904.25957","1049670.89626","1050437.81306","1051204.35699","1037371.46171","1050447.49142","Mapping"
"Blocked","Male","cave","8","M_jaw.wav","None","726.397795224","209","1045854.83484","1038138.14291","1038905.22945","1039670.65232","1040438.36122","1041187.78098","1041954.74972","1042721.10042","1046621.33858","1047370.63652","1048137.43027","1048904.25957","1049670.89626","1050437.81306","1051204.35699","1051970.92473","1051214.33618","Mapping"
"Blocked","Male","cave","8","M_cave.wav","None","725.128020887","209","1045854.83484","1052737.60409","1038905.22945","1039670.65232","1040438.36122","1041187.78098","1041954.74972","1042721.10042","1046621.33858","1047370.63652","1048137.43027","1048904.25957","1049670.89626","1050437.81306","1051204.35699","1051970.92473","1051980.87857","Mapping"
"Blocked","Male","cave","8","M_gnash.wav","space","534.838409105","209","1045854.83484","1052737.60409","1053504.38361","1039670.65232","1040438.36122","1041187.78098","1041954.74972","1042721.10042","1046621.33858","1047370.63652","1048137.43027","1048904.25957","1049670.89626","1050437.81306","1051204.35699","1051970.92473","1052746.98471","Mapping"
"Blocked","Male","cave","8","M_cave.wav","None","721.950338746","209","1045854.83484","1052737.60409","1053504.38361","1054271.49643","1040438.36122","1041187.78098","1041954.74972","1042721.10042","1046621.33858","1047370.63652","1048137.43027","1048904.25957","1049670.89626","1050437.81306","1051204.35699","1051970.92473","1053513.76269","Mapping"
"Blocked","Male","cave","8","M_ball.wav","space","672.386164748","209","1045854.83484","1052737.60409","1053504.38361","1054271.49643","1055020.56435","1041187.78098","1041954.74972","1042721.10042","1046621.33858","1047370.63652","1048137.43027","1048904.25957","1049670.89626","1050437.81306","1051204.35699","1051970.92473","1054281.46726","Mapping"
"Blocked","Male","cave","8","M_cave.wav","None","734.831112582","209","1045854.83484","1052737.60409","1053504.38361","1054271.49643","1055020.56435","1055787.17043","1041954.74972","1042721.10042","1046621.33858","1047370.63652","1048137.43027","1048904.25957","1049670.89626","1050437.81306","1051204.35699","1051970.92473","1055030.29557","Mapping"
"Blocked","Male","cave","8","M_tile.wav","space","589.272679324","209","1045854.83484","1052737.60409","1053504.38361","1054271.49643","1055020.56435","1055787.17043","1056553.97994","1042721.10042","1046621.33858","1047370.63652","1048137.43027","1048904.25957","1049670.89626","1050437.81306","1051204.35699","1051970.92473","1055796.53033","Mapping"
"Blocked","Male","cave","8","M_depth.wav","None","731.381976395","209","1045854.83484","1052737.60409","1053504.38361","1054271.49643","1055020.56435","1055787.17043","1056553.97994","1057320.83521","1046621.33858","1047370.63652","1048137.43027","1048904.25957","1049670.89626","1050437.81306","1051204.35699","1051970.92473","1056563.1695","Mapping"
"Blocked","Male","done","19","M_dime.wav","None","729.195503489","209","1060454.69639","1052737.60409","1053504.38361","1054271.49643","1055020.56435","1055787.17043","1056553.97994","1057320.83521","1046621.33858","1047370.63652","1048137.43027","1048904.25957","1049670.89626","1050437.81306","1051204.35699","1051970.92473","1057330.61096","Mapping"
"Blocked","Male","done","19","M_romp.wav","None","719.664621254","209","1060454.69639","1052737.60409","1053504.38361","1054271.49643","1055020.56435","1055787.17043","1056553.97994","1057320.83521","1061221.04864","1047370.63652","1048137.43027","1048904.25957","1049670.89626","1050437.81306","1051204.35699","1051970.92473","1060465.08832","Mapping"
"Blocked","Male","done","19","M_tile.wav","None","719.162524008","209","1060454.69639","1052737.60409","1053504.38361","1054271.49643","1055020.56435","1055787.17043","1056553.97994","1057320.83521","1061221.04864","1061970.63318","1048137.43027","1048904.25957","1049670.89626","1050437.81306","1051204.35699","1051970.92473","1061230.79965","Mapping"
"Blocked","Male","done","19","M_done.wav","None","734.738360625","209","1060454.69639","1052737.60409","1053504.38361","1054271.49643","1055020.56435","1055787.17043","1056553.97994","1057320.83521","1061221.04864","1061970.63318","1062737.33851","1048904.25957","1049670.89626","1050437.81306","1051204.35699","1051970.92473","1061980.50756","Mapping"
"Blocked","Male","done","19","M_greet.wav","space","654.43464127","209","1060454.69639","1052737.60409","1053504.38361","1054271.49643","1055020.56435","1055787.17043","1056553.97994","1057320.83521","1061221.04864","1061970.63318","1062737.33851","1063504.0494","1049670.89626","1050437.81306","1051204.35699","1051970.92473","1062747.22618","Mapping"
"Blocked","Male","done","19","M_tile.wav","None","731.217187073","209","1060454.69639","1052737.60409","1053504.38361","1054271.49643","1055020.56435","1055787.17043","1056553.97994","1057320.83521","1061221.04864","1061970.63318","1062737.33851","1063504.0494","1064270.43318","1050437.81306","1051204.35699","1051970.92473","1063513.18454","Mapping"
"Blocked","Male","done","19","M_tile.wav","None","729.950504465","209","1060454.69639","1052737.60409","1053504.38361","1054271.49643","1055020.56435","1055787.17043","1056553.97994","1057320.83521","1061221.04864","1061970.63318","1062737.33851","1063504.0494","1064270.43318","1065037.32122","1051204.35699","1051970.92473","1064279.854","Mapping"
"Blocked","Male","done","19","M_done.wav","None","728.264273843","209","1060454.69639","1052737.60409","1053504.38361","1054271.49643","1055020.56435","1055787.17043","1056553.97994","1057320.83521","1061221.04864","1061970.63318","1062737.33851","1063504.0494","1064270.43318","1065037.32122","1065804.04293","1051970.92473","1065047.29886","Mapping"
"Blocked","Male","done","19","M_lash.wav","space","635.912384023","209","1060454.69639","1052737.60409","1053504.38361","1054271.49643","1055020.56435","1055787.17043","1056553.97994","1057320.83521","1061221.04864","1061970.63318","1062737.33851","1063504.0494","1064270.43318","1065037.32122","1065804.04293","1066570.64561","1065813.70181","Mapping"
"Blocked","Male","done","19","M_knife.wav","None","724.663333589","209","1060454.69639","1067337.89261","1053504.38361","1054271.49643","1055020.56435","1055787.17043","1056553.97994","1057320.83521","1061221.04864","1061970.63318","1062737.33851","1063504.0494","1064270.43318","1065037.32122","1065804.04293","1066570.64561","1066580.51133","Mapping"
"Blocked","Male","done","19","M_reek.wav","None","722.474078153","209","1060454.69639","1067337.89261","1068104.53424","1054271.49643","1055020.56435","1055787.17043","1056553.97994","1057320.83521","1061221.04864","1061970.63318","1062737.33851","1063504.0494","1064270.43318","1065037.32122","1065804.04293","1066570.64561","1067348.01308","Mapping"
"Blocked","Male","done","19","M_done.wav","None","721.841818973","209","1060454.69639","1067337.89261","1068104.53424","1068870.86176","1055020.56435","1055787.17043","1056553.97994","1057320.83521","1061221.04864","1061970.63318","1062737.33851","1063504.0494","1064270.43318","1065037.32122","1065804.04293","1066570.64561","1068114.61452","Mapping"
"Blocked","Male","done","19","M_ball.wav","space","608.34711988","209","1060454.69639","1067337.89261","1068104.53424","1068870.86176","1069620.70446","1055787.17043","1056553.97994","1057320.83521","1061221.04864","1061970.63318","1062737.33851","1063504.0494","1064270.43318","1065037.32122","1065804.04293","1066570.64561","1068881.2172","Mapping"
"Blocked","Male","done","19","M_bluff.wav","None","735.519950482","209","1060454.69639","1067337.89261","1068104.53424","1068870.86176","1069620.70446","1070386.90676","1056553.97994","1057320.83521","1061221.04864","1061970.63318","1062737.33851","1063504.0494","1064270.43318","1065037.32122","1065804.04293","1066570.64561","1069630.23009","Mapping"
"Blocked","Male","done","19","M_done.wav","None","734.996829415","209","1060454.69639","1067337.89261","1068104.53424","1068870.86176","1069620.70446","1070386.90676","1071154.17911","1057320.83521","1061221.04864","1061970.63318","1062737.33851","1063504.0494","1064270.43318","1065037.32122","1065804.04293","1066570.64561","1070396.22988","Mapping"
"Blocked","Male","done","19","M_knife.wav","None","733.707886364","209","1060454.69639","1067337.89261","1068104.53424","1068870.86176","1069620.70446","1070386.90676","1071154.17911","1071920.52425","1061221.04864","1061970.63318","1062737.33851","1063504.0494","1064270.43318","1065037.32122","1065804.04293","1066570.64561","1071163.21593","Mapping"
"Blocked","Male","cave","11","M_knife.wav","space","23.0856536655","209","1075054.43458","1067337.89261","1068104.53424","1068870.86176","1069620.70446","1070386.90676","1071154.17911","1071920.52425","1061221.04864","1061970.63318","1062737.33851","1063504.0494","1064270.43318","1065037.32122","1065804.04293","1066570.64561","1071930.41006","Mapping"
"Blocked","Male","cave","11","M_cave.wav","None","719.907631428","209","1075054.43458","1067337.89261","1068104.53424","1068870.86176","1069620.70446","1070386.90676","1071154.17911","1071920.52425","1075820.70026","1061970.63318","1062737.33851","1063504.0494","1064270.43318","1065037.32122","1065804.04293","1066570.64561","1075064.5733","Mapping"
"Blocked","Male","cave","11","M_cad.wav","space","601.858811104","209","1075054.43458","1067337.89261","1068104.53424","1068870.86176","1069620.70446","1070386.90676","1071154.17911","1071920.52425","1075820.70026","1076570.43352","1062737.33851","1063504.0494","1064270.43318","1065037.32122","1065804.04293","1066570.64561","1075831.57543","Mapping"
"Blocked","Male","cave","11","M_knife.wav","None","733.816715307","209","1075054.43458","1067337.89261","1068104.53424","1068870.86176","1069620.70446","1070386.90676","1071154.17911","1071920.52425","1075820.70026","1076570.43352","1077337.12957","1063504.0494","1064270.43318","1065037.32122","1065804.04293","1066570.64561","1076579.99934","Mapping"
"Blocked","Male","cave","11","M_jaw.wav","None","732.066795026","209","1075054.43458","1067337.89261","1068104.53424","1068870.86176","1069620.70446","1070386.90676","1071154.17911","1071920.52425","1075820.70026","1076570.43352","1077337.12957","1078104.04111","1064270.43318","1065037.32122","1065804.04293","1066570.64561","1077347.16842","Mapping"
"Blocked","Male","cave","11","M_cave.wav","None","731.160299183","209","1075054.43458","1067337.89261","1068104.53424","1068870.86176","1069620.70446","1070386.90676","1071154.17911","1071920.52425","1075820.70026","1076570.43352","1077337.12957","1078104.04111","1078870.47529","1065037.32122","1065804.04293","1066570.64561","1078113.45729","Mapping"
"Blocked","Male","cave","11","M_reek.wav","space","592.828789464","209","1075054.43458","1067337.89261","1068104.53424","1068870.86176","1069620.70446","1070386.90676","1071154.17911","1071920.52425","1075820.70026","1076570.43352","1077337.12957","1078104.04111","1078870.47529","1079637.23966","1065804.04293","1066570.64561","1078880.51847","Mapping"
"Blocked","Male","cave","11","M_gnash.wav","None","726.943795104","209","1075054.43458","1067337.89261","1068104.53424","1068870.86176","1069620.70446","1070386.90676","1071154.17911","1071920.52425","1075820.70026","1076570.43352","1077337.12957","1078104.04111","1078870.47529","1079637.23966","1080403.72733","1066570.64561","1079646.92482","Mapping"
"Blocked","Male","cave","11","M_jaw.wav","None","725.486352632","209","1075054.43458","1067337.89261","1068104.53424","1068870.86176","1069620.70446","1070386.90676","1071154.17911","1071920.52425","1075820.70026","1076570.43352","1077337.12957","1078104.04111","1078870.47529","1079637.23966","1080403.72733","1081170.37731","1080413.92541","Mapping"
"Blocked","Male","cave","11","M_cave.wav","None","724.685284891","209","1075054.43458","1081937.39954","1068104.53424","1068870.86176","1069620.70446","1070386.90676","1071154.17911","1071920.52425","1075820.70026","1076570.43352","1077337.12957","1078104.04111","1078870.47529","1079637.23966","1080403.72733","1081170.37731","1081180.05041","Mapping"
"Blocked","Male","cave","11","M_jolt.wav","space","429.020480544","209","1075054.43458","1081937.39954","1082703.59225","1068870.86176","1069620.70446","1070386.90676","1071154.17911","1071920.52425","1075820.70026","1076570.43352","1077337.12957","1078104.04111","1078870.47529","1079637.23966","1080403.72733","1081170.37731","1081948.26234","Mapping"
"Blocked","Male","cave","11","M_ball.wav","None","721.087127167","209","1075054.43458","1081937.39954","1082703.59225","1083470.78298","1069620.70446","1070386.90676","1071154.17911","1071920.52425","1075820.70026","1076570.43352","1077337.12957","1078104.04111","1078870.47529","1079637.23966","1080403.72733","1081170.37731","1082713.24062","Mapping"
"Blocked","Male","cave","11","M_jaw.wav","None","718.837892142","209","1075054.43458","1081937.39954","1082703.59225","1083470.78298","1084220.68134","1070386.90676","1071154.17911","1071920.52425","1075820.70026","1076570.43352","1077337.12957","1078104.04111","1078870.47529","1079637.23966","1080403.72733","1081170.37731","1083481.17491","Mapping"
"Blocked","Male","cave","11","M_cave.wav","None","735.366600566","209","1075054.43458","1081937.39954","1082703.59225","1083470.78298","1084220.68134","1084986.97206","1071154.17911","1071920.52425","1075820.70026","1076570.43352","1077337.12957","1078104.04111","1078870.47529","1079637.23966","1080403.72733","1081170.37731","1084230.29662","Mapping"
"Blocked","Male","cave","11","M_priest.wav","space","596.389537212","209","1075054.43458","1081937.39954","1082703.59225","1083470.78298","1084220.68134","1084986.97206","1085754.01222","1071920.52425","1075820.70026","1076570.43352","1077337.12957","1078104.04111","1078870.47529","1079637.23966","1080403.72733","1081170.37731","1084996.84334","Mapping"
"Blocked","Male","cave","11","M_greet.wav","None","731.386304804","209","1075054.43458","1081937.39954","1082703.59225","1083470.78298","1084220.68134","1084986.97206","1085754.01222","1086520.28253","1075820.70026","1076570.43352","1077337.12957","1078104.04111","1078870.47529","1079637.23966","1080403.72733","1081170.37731","1085763.78858","Mapping"
"Blocked","Male","done","23","M_cad.wav","None","730.623265321","209","1089654.05405","1081937.39954","1082703.59225","1083470.78298","1084220.68134","1084986.97206","1085754.01222","1086520.28253","1075820.70026","1076570.43352","1077337.12957","1078104.04111","1078870.47529","1079637.23966","1080403.72733","1081170.37731","1086529.98872","Mapping"
"Blocked","Male","done","23","M_done.wav","None","720.139511308","209","1089654.05405","1081937.39954","1082703.59225","1083470.78298","1084220.68134","1084986.97206","1085754.01222","1086520.28253","1090420.4468","1076570.43352","1077337.12957","1078104.04111","1078870.47529","1079637.23966","1080403.72733","1081170.37731","1089664.15536","Mapping"
"Blocked","Male","done","23","M_cad.wav","space","634.902005986","209","1089654.05405","1081937.39954","1082703.59225","1083470.78298","1084220.68134","1084986.97206","1085754.01222","1086520.28253","1090420.4468","1091170.11946","1077337.12957","1078104.04111","1078870.47529","1079637.23966","1080403.72733","1081170.37731","1090430.26027","Mapping"
"Blocked","Male","done","23","M_done.wav","None","734.78009901","209","1089654.05405","1081937.39954","1082703.59225","1083470.78298","1084220.68134","1084986.97206","1085754.01222","1086520.28253","1090420.4468","1091170.11946","1091936.83963","1078104.04111","1078870.47529","1079637.23966","1080403.72733","1081170.37731","1091178.88761","Mapping"
"Blocked","Male","done","23","M_cad.wav","space","534.455961839","209","1089654.05405","1081937.39954","1082703.59225","1083470.78298","1084220.68134","1084986.97206","1085754.01222","1086520.28253","1090420.4468","1091170.11946","1091936.83963","1092703.6411","1078870.47529","1079637.23966","1080403.72733","1081170.37731","1091946.69823","Mapping"
"Blocked","Male","done","23","M_park.wav","None","730.429722898","209","1089654.05405","1081937.39954","1082703.59225","1083470.78298","1084220.68134","1084986.97206","1085754.01222","1086520.28253","1090420.4468","1091170.11946","1091936.83963","1092703.6411","1093470.18009","1079637.23966","1080403.72733","1081170.37731","1092713.04059","Mapping"
"Blocked","Male","done","23","M_jaw.wav","None","729.469430982","209","1089654.05405","1081937.39954","1082703.59225","1083470.78298","1084220.68134","1084986.97206","1085754.01222","1086520.28253","1090420.4468","1091170.11946","1091936.83963","1092703.6411","1093470.18009","1094236.83533","1080403.72733","1081170.37731","1093479.58267","Mapping"
"Blocked","Male","done","23","M_done.wav","None","728.385160561","209","1089654.05405","1081937.39954","1082703.59225","1083470.78298","1084220.68134","1084986.97206","1085754.01222","1086520.28253","1090420.4468","1091170.11946","1091936.83963","1092703.6411","1093470.18009","1094236.83533","1095003.34247","1081170.37731","1094246.26295","Mapping"
"Blocked","Male","done","23","M_tile.wav","space","556.246179767","209","1089654.05405","1081937.39954","1082703.59225","1083470.78298","1084220.68134","1084986.97206","1085754.01222","1086520.28253","1090420.4468","1091170.11946","1091936.83963","1092703.6411","1093470.18009","1094236.83533","1095003.34247","1095770.13653","1095012.85388","Mapping"
"Blocked","Male","done","23","M_lash.wav","None","724.469172827","209","1089654.05405","1096537.27624","1082703.59225","1083470.78298","1084220.68134","1084986.97206","1085754.01222","1086520.28253","1090420.4468","1091170.11946","1091936.83963","1092703.6411","1093470.18009","1094236.83533","1095003.34247","1095770.13653","1095779.91722","Mapping"
"Blocked","Male","done","23","M_cad.wav","None","723.162916023","209","1089654.05405","1096537.27624","1097303.49647","1083470.78298","1084220.68134","1084986.97206","1085754.01222","1086520.28253","1090420.4468","1091170.11946","1091936.83963","1092703.6411","1093470.18009","1094236.83533","1095003.34247","1095770.13653","1096547.06992","Mapping"
"Blocked","Male","done","23","M_gnash.wav","None","723.14189226","209","1089654.05405","1096537.27624","1097303.49647","1098070.33969","1084220.68134","1084986.97206","1085754.01222","1086520.28253","1090420.4468","1091170.11946","1091936.83963","1092703.6411","1093470.18009","1094236.83533","1095003.34247","1095770.13653","1097312.79949","Mapping"
"Blocked","Male","done","23","M_done.wav","None","721.041678713","209","1089654.05405","1096537.27624","1097303.49647","1098070.33969","1098837.24164","1084986.97206","1085754.01222","1086520.28253","1090420.4468","1091170.11946","1091936.83963","1092703.6411","1093470.18009","1094236.83533","1095003.34247","1095770.13653","1098080.64134","Mapping"
"Blocked","Male","done","23","M_romp.wav","space","457.967439725","209","1089654.05405","1096537.27624","1097303.49647","1098070.33969","1098837.24164","1099586.33059","1085754.01222","1086520.28253","1090420.4468","1091170.11946","1091936.83963","1092703.6411","1093470.18009","1094236.83533","1095003.34247","1095770.13653","1098847.05727","Mapping"
"Blocked","Male","done","23","M_ball.wav","None","735.686594824","209","1089654.05405","1096537.27624","1097303.49647","1098070.33969","1098837.24164","1099586.33059","1100353.18586","1086520.28253","1090420.4468","1091170.11946","1091936.83963","1092703.6411","1093470.18009","1094236.83533","1095003.34247","1095770.13653","1099595.53375","Mapping"
"Blocked","Male","done","23","M_jolt.wav","None","734.853063885","209","1089654.05405","1096537.27624","1097303.49647","1098070.33969","1098837.24164","1099586.33059","1100353.18586","1101119.71866","1090420.4468","1091170.11946","1091936.83963","1092703.6411","1093470.18009","1094236.83533","1095003.34247","1095770.13653","1100362.07923","Mapping"
"Blocked","Male","cave","9","M_bluff.wav","None","733.496411878","209","1104253.85748","1096537.27624","1097303.49647","1098070.33969","1098837.24164","1099586.33059","1100353.18586","1101119.71866","1090420.4468","1091170.11946","1091936.83963","1092703.6411","1093470.18009","1094236.83533","1095003.34247","1095770.13653","1101129.07332","Mapping"
"Blocked","Male","cave","9","M_cave.wav","None","718.92909825","209","1104253.85748","1096537.27624","1097303.49647","1098070.33969","1098837.24164","1099586.33059","1100353.18586","1101119.71866","1105003.05741","1091170.11946","1091936.83963","1092703.6411","1093470.18009","1094236.83533","1095003.34247","1095770.13653","1104264.08091","Mapping"
"Blocked","Male","cave","9","M_depth.wav","space","508.752538677","209","1104253.85748","1096537.27624","1097303.49647","1098070.33969","1098837.24164","1099586.33059","1100353.18586","1101119.71866","1105003.05741","1105770.01193","1091936.83963","1092703.6411","1093470.18009","1094236.83533","1095003.34247","1095770.13653","1105012.16937","Mapping"
"Blocked","Male","cave","9","M_gnash.wav","None","733.200223971","209","1104253.85748","1096537.27624","1097303.49647","1098070.33969","1098837.24164","1099586.33059","1100353.18586","1101119.71866","1105003.05741","1105770.01193","1106536.36665","1092703.6411","1093470.18009","1094236.83533","1095003.34247","1095770.13653","1105779.3941","Mapping"
"Blocked","Male","cave","9","M_done.wav","None","732.738937542","209","1104253.85748","1096537.27624","1097303.49647","1098070.33969","1098837.24164","1099586.33059","1100353.18586","1101119.71866","1105003.05741","1105770.01193","1106536.36665","1107303.48441","1093470.18009","1094236.83533","1095003.34247","1095770.13653","1106545.46036","Mapping"
"Blocked","Male","cave","9","M_bluff.wav","None","730.896265275","209","1104253.85748","1096537.27624","1097303.49647","1098070.33969","1098837.24164","1099586.33059","1100353.18586","1101119.71866","1105003.05741","1105770.01193","1106536.36665","1107303.48441","1108069.88891","1094236.83533","1095003.34247","1095770.13653","1107312.88884","Mapping"
"Blocked","Male","cave","9","M_park.wav","None","730.260296026","209","1104253.85748","1096537.27624","1097303.49647","1098070.33969","1098837.24164","1099586.33059","1100353.18586","1101119.71866","1105003.05741","1105770.01193","1106536.36665","1107303.48441","1108069.88891","1108836.59114","1095003.34247","1095770.13653","1108079.30942","Mapping"
"Blocked","Male","cave","9","M_cave.wav","None","729.10182405","209","1104253.85748","1096537.27624","1097303.49647","1098070.33969","1098837.24164","1099586.33059","1100353.18586","1101119.71866","1105003.05741","1105770.01193","1106536.36665","1107303.48441","1108069.88891","1108836.59114","1109603.56452","1095770.13653","1108846.1548","Mapping"
"Blocked","Male","cave","9","M_romp.wav","space","579.542998748","209","1104253.85748","1096537.27624","1097303.49647","1098070.33969","1098837.24164","1099586.33059","1100353.18586","1101119.71866","1105003.05741","1105770.01193","1106536.36665","1107303.48441","1108069.88891","1108836.59114","1109603.56452","1110369.76373","1109613.25834","Mapping"
"Blocked","Male","cave","9","M_cave.wav","None","725.391745626","209","1104253.85748","1111137.15974","1097303.49647","1098070.33969","1098837.24164","1099586.33059","1100353.18586","1101119.71866","1105003.05741","1105770.01193","1106536.36665","1107303.48441","1108069.88891","1108836.59114","1109603.56452","1110369.76373","1110379.37438","Mapping"
"Blocked","Male","cave","9","M_romp.wav","space","598.010532296","209","1104253.85748","1111137.15974","1111903.88362","1098070.33969","1098837.24164","1099586.33059","1100353.18586","1101119.71866","1105003.05741","1105770.01193","1106536.36665","1107303.48441","1108069.88891","1108836.59114","1109603.56452","1110369.76373","1111146.81182","Mapping"
"Blocked","Male","cave","9","M_gnash.wav","None","720.93594147","209","1104253.85748","1111137.15974","1111903.88362","1112670.23617","1098837.24164","1099586.33059","1100353.18586","1101119.71866","1105003.05741","1105770.01193","1106536.36665","1107303.48441","1108069.88891","1108836.59114","1109603.56452","1110369.76373","1111913.54219","Mapping"
"Blocked","Male","cave","9","M_cave.wav","None","720.461360645","209","1104253.85748","1111137.15974","1111903.88362","1112670.23617","1113436.99344","1099586.33059","1100353.18586","1101119.71866","1105003.05741","1105770.01193","1106536.36665","1107303.48441","1108069.88891","1108836.59114","1109603.56452","1110369.76373","1112679.91731","Mapping"
"Blocked","Male","cave","9","M_knife.wav","space","553.487427329","209","1104253.85748","1111137.15974","1111903.88362","1112670.23617","1113436.99344","1114186.403","1100353.18586","1101119.71866","1105003.05741","1105770.01193","1106536.36665","1107303.48441","1108069.88891","1108836.59114","1109603.56452","1110369.76373","1113447.27778","Mapping"
