"Condition","Talker","Target","Trial","current_stimulus","response_response","response_time_response","subject_nr","time_Audio1","time_Audio10","time_Audio11","time_Audio12","time_Audio13","time_Audio14","time_Audio15","time_Audio16","time_Audio2","time_Audio3","time_Audio4","time_Audio5","time_Audio6","time_Audio7","time_Audio8","time_Audio9","time_response","title"
"Blocked","Male","done","24","M_greet.wav","NA","NA","419","15318.5466424","NA","NA","NA","NA","NA","NA","NA","NA","NA","NA","NA","NA","NA","NA","NA","NA","Mapping"
"Blocked","Male","done","24","M_done.wav","None","721.257716049","419","15318.5466424","NA","NA","NA","NA","NA","NA","NA","16085.9435094","NA","NA","NA","NA","NA","NA","NA","15329.4485669","Mapping"
"Blocked","Male","done","24","M_priest.wav","None","726.273148148","419","15318.5466424","NA","NA","NA","NA","NA","NA","NA","16085.9435094","16852.7511562","NA","NA","NA","NA","NA","NA","16090.1681065","Mapping"
"Blocked","Male","done","24","M_done.wav","None","726.096171782","419","15318.5466424","NA","NA","NA","NA","NA","NA","NA","16085.9435094","16852.7511562","17619.6137889","NA","NA","NA","NA","NA","16856.7948709","Mapping"
"Blocked","Male","done","24","M_dime.wav","None","726.369298296","419","15318.5466424","NA","NA","NA","NA","NA","NA","NA","16085.9435094","16852.7511562","17619.6137889","18369.6291128","NA","NA","NA","NA","17622.5148191","Mapping"
"Blocked","Male","done","24","M_done.wav","None","742.758091035","419","15318.5466424","NA","NA","NA","NA","NA","NA","NA","16085.9435094","16852.7511562","17619.6137889","18369.6291128","19137.2885899","NA","NA","NA","18372.3141057","Mapping"
"Blocked","Male","done","24","M_jolt.wav","space","523.925161532","419","15318.5466424","NA","NA","NA","NA","NA","NA","NA","16085.9435094","16852.7511562","17619.6137889","18369.6291128","19137.2885899","19904.5346213","NA","NA","19140.4744649","Mapping"
"Blocked","Male","done","24","M_dime.wav","None","738.522376543","419","15318.5466424","NA","NA","NA","NA","NA","NA","NA","16085.9435094","16852.7511562","17619.6137889","18369.6291128","19137.2885899","19904.5346213","20671.3783244","NA","19908.0708434","Mapping"
"Blocked","Male","done","24","M_bluff.wav","space","674.171185724","419","15318.5466424","NA","NA","NA","NA","NA","NA","NA","16085.9435094","16852.7511562","17619.6137889","18369.6291128","19137.2885899","19904.5346213","20671.3783244","21438.5684685","20674.2180589","Mapping"
"Blocked","Male","done","24","M_done.wav","None","736.128838795","419","15318.5466424","22205.7444906","NA","NA","NA","NA","NA","NA","16085.9435094","16852.7511562","17619.6137889","18369.6291128","19137.2885899","19904.5346213","20671.3783244","21438.5684685","21441.9538551","Mapping"
"Blocked","Male","done","24","M_cad.wav","None","735.617139725","419","15318.5466424","22205.7444906","22973.0073483","NA","NA","NA","NA","NA","16085.9435094","16852.7511562","17619.6137889","18369.6291128","19137.2885899","19904.5346213","20671.3783244","21438.5684685","22208.5097088","Mapping"
"Blocked","Male","done","24","M_cad.wav","space","16.677243183","419","15318.5466424","22205.7444906","22973.0073483","23740.2581872","NA","NA","NA","NA","16085.9435094","16852.7511562","17619.6137889","18369.6291128","19137.2885899","19904.5346213","20671.3783244","21438.5684685","22975.7506322","Mapping"
"Blocked","Male","done","24","M_priest.wav","None","732.656316103","419","15318.5466424","22205.7444906","22973.0073483","23740.2581872","24507.4104722","NA","NA","NA","16085.9435094","16852.7511562","17619.6137889","18369.6291128","19137.2885899","19904.5346213","20671.3783244","21438.5684685","23743.377959","Mapping"
"Blocked","Male","done","24","M_reek.wav","None","731.59265509","419","15318.5466424","22205.7444906","22973.0073483","23740.2581872","24507.4104722","25275.0131606","NA","NA","16085.9435094","16852.7511562","17619.6137889","18369.6291128","19137.2885899","19904.5346213","20671.3783244","21438.5684685","24510.701211","Mapping"
"Blocked","Male","done","24","M_jaw.wav","None","730.193970905","419","15318.5466424","22205.7444906","22973.0073483","23740.2581872","24507.4104722","25275.0131606","26042.2495769","NA","16085.9435094","16852.7511562","17619.6137889","18369.6291128","19137.2885899","19904.5346213","20671.3783244","21438.5684685","25278.2771576","Mapping"
"Blocked","Male","done","24","M_cad.wav","None","729.380901215","419","15318.5466424","22205.7444906","22973.0073483","23740.2581872","24507.4104722","25275.0131606","26042.2495769","26809.5067257","16085.9435094","16852.7511562","17619.6137889","18369.6291128","19137.2885899","19904.5346213","20671.3783244","21438.5684685","26045.5739683","Mapping"
"Blocked","Male","tile","18","M_romp.wav","None","728.145672282","419","29945.5949411","22205.7444906","22973.0073483","23740.2581872","24507.4104722","25275.0131606","26042.2495769","26809.5067257","16085.9435094","16852.7511562","17619.6137889","18369.6291128","19137.2885899","19904.5346213","20671.3783244","21438.5684685","26812.9483001","Mapping"
"Blocked","Male","tile","18","M_jaw.wav","None","727.835888523","419","29945.5949411","22205.7444906","22973.0073483","23740.2581872","24507.4104722","25275.0131606","26042.2495769","26809.5067257","30712.3512076","16852.7511562","17619.6137889","18369.6291128","19137.2885899","19904.5346213","20671.3783244","21438.5684685","29949.6413599","Mapping"
"Blocked","Male","tile","18","M_tile.wav","None","728.105108938","419","29945.5949411","22205.7444906","22973.0073483","23740.2581872","24507.4104722","25275.0131606","26042.2495769","26809.5067257","30712.3512076","31479.9364688","17619.6137889","18369.6291128","19137.2885899","19904.5346213","20671.3783244","21438.5684685","30715.206867","Mapping"
"Blocked","Male","tile","18","M_cling.wav","space","445.140331141","419","29945.5949411","22205.7444906","22973.0073483","23740.2581872","24507.4104722","25275.0131606","26042.2495769","26809.5067257","30712.3512076","31479.9364688","32247.375101","18369.6291128","19137.2885899","19904.5346213","20671.3783244","21438.5684685","31483.2945127","Mapping"
"Blocked","Male","tile","18","M_depth.wav","None","724.832999212","419","29945.5949411","22205.7444906","22973.0073483","23740.2581872","24507.4104722","25275.0131606","26042.2495769","26809.5067257","30712.3512076","31479.9364688","32247.375101","32996.9923032","19137.2885899","19904.5346213","20671.3783244","21438.5684685","32250.6523187","Mapping"
"Blocked","Male","tile","18","M_tile.wav","None","742.194410792","419","29945.5949411","22205.7444906","22973.0073483","23740.2581872","24507.4104722","25275.0131606","26042.2495769","26809.5067257","30712.3512076","31479.9364688","32247.375101","32996.9923032","33764.1436868","19904.5346213","20671.3783244","21438.5684685","32999.6184041","Mapping"
"Blocked","Male","tile","18","M_cad.wav","space","321.359034268","419","29945.5949411","22205.7444906","22973.0073483","23740.2581872","24507.4104722","25275.0131606","26042.2495769","26809.5067257","30712.3512076","31479.9364688","32247.375101","32996.9923032","33764.1436868","34531.4444036","20671.3783244","21438.5684685","33767.0185762","Mapping"
"Blocked","Male","tile","18","M_jolt.wav","None","739.664460021","419","29945.5949411","22205.7444906","22973.0073483","23740.2581872","24507.4104722","25275.0131606","26042.2495769","26809.5067257","30712.3512076","31479.9364688","32247.375101","32996.9923032","33764.1436868","34531.4444036","35298.6474679","21438.5684685","34534.2003072","Mapping"
"Blocked","Male","tile","18","M_tile.wav","None","738.527184051","419","29945.5949411","22205.7444906","22973.0073483","23740.2581872","24507.4104722","25275.0131606","26042.2495769","26809.5067257","30712.3512076","31479.9364688","32247.375101","32996.9923032","33764.1436868","34531.4444036","35298.6474679","36065.8379125","35301.4850991","Mapping"
"Blocked","Male","tile","18","M_bluff.wav","space","464.720407388","419","29945.5949411","36833.2155494","22973.0073483","23740.2581872","24507.4104722","25275.0131606","26042.2495769","26809.5067257","30712.3512076","31479.9364688","32247.375101","32996.9923032","33764.1436868","34531.4444036","35298.6474679","36065.8379125","36068.6479006","Mapping"
"Blocked","Male","tile","18","M_knife.wav","None","735.56575949","419","29945.5949411","36833.2155494","37600.6283412","23740.2581872","24507.4104722","25275.0131606","26042.2495769","26809.5067257","30712.3512076","31479.9364688","32247.375101","32996.9923032","33764.1436868","34531.4444036","35298.6474679","36065.8379125","36836.6850674","Mapping"
"Blocked","Male","tile","18","M_bluff.wav","None","734.612971616","419","29945.5949411","36833.2155494","37600.6283412","38367.5315372","24507.4104722","25275.0131606","26042.2495769","26809.5067257","30712.3512076","31479.9364688","32247.375101","32996.9923032","33764.1436868","34531.4444036","35298.6474679","36065.8379125","37603.8881317","Mapping"
"Blocked","Male","tile","18","M_romp.wav","None","734.112089439","419","29945.5949411","36833.2155494","37600.6283412","38367.5315372","39134.7171743","25275.0131606","26042.2495769","26809.5067257","30712.3512076","31479.9364688","32247.375101","32996.9923032","33764.1436868","34531.4444036","35298.6474679","36065.8379125","38370.3908023","Mapping"
"Blocked","Male","tile","18","M_tile.wav","None","732.537330295","419","29945.5949411","36833.2155494","37600.6283412","38367.5315372","39134.7171743","39901.9187363","26042.2495769","26809.5067257","30712.3512076","31479.9364688","32247.375101","32996.9923032","33764.1436868","34531.4444036","35298.6474679","36065.8379125","39137.7251716","Mapping"
"Blocked","Male","tile","18","M_dime.wav","space","406.621680416","419","29945.5949411","36833.2155494","37600.6283412","38367.5315372","39134.7171743","39901.9187363","40669.4628332","26809.5067257","30712.3512076","31479.9364688","32247.375101","32996.9923032","33764.1436868","34531.4444036","35298.6474679","36065.8379125","39904.7993346","Mapping"
"Blocked","Male","tile","18","M_bluff.wav","None","729.6347977","419","29945.5949411","36833.2155494","37600.6283412","38367.5315372","39134.7171743","39901.9187363","40669.4628332","41436.6181229","30712.3512076","31479.9364688","32247.375101","32996.9923032","33764.1436868","34531.4444036","35298.6474679","36065.8379125","40672.4356756","Mapping"
"Blocked","Male","cave","8","M_priest.wav","None","728.532676628","419","44572.9605352","36833.2155494","37600.6283412","38367.5315372","39134.7171743","39901.9187363","40669.4628332","41436.6181229","30712.3512076","31479.9364688","32247.375101","32996.9923032","33764.1436868","34531.4444036","35298.6474679","36065.8379125","41439.8517725","Mapping"
"Blocked","Male","cave","8","M_romp.wav","None","728.693728126","419","44572.9605352","36833.2155494","37600.6283412","38367.5315372","39134.7171743","39901.9187363","40669.4628332","41436.6181229","45339.6086328","31479.9364688","32247.375101","32996.9923032","33764.1436868","34531.4444036","35298.6474679","36065.8379125","44576.3705603","Mapping"
"Blocked","Male","cave","8","M_depth.wav","None","728.452751817","419","44572.9605352","36833.2155494","37600.6283412","38367.5315372","39134.7171743","39901.9187363","40669.4628332","41436.6181229","45339.6086328","46106.7044296","32247.375101","32996.9923032","33764.1436868","34531.4444036","35298.6474679","36065.8379125","45342.4195223","Mapping"
"Blocked","Male","cave","8","M_cave.wav","None","727.51288412","419","44572.9605352","36833.2155494","37600.6283412","38367.5315372","39134.7171743","39901.9187363","40669.4628332","41436.6181229","45339.6086328","46106.7044296","46873.9862169","32996.9923032","33764.1436868","34531.4444036","35298.6474679","36065.8379125","46109.6252909","Mapping"
"Blocked","Male","cave","8","M_cling.wav","space","356.563509577","419","44572.9605352","36833.2155494","37600.6283412","38367.5315372","39134.7171743","39901.9187363","40669.4628332","41436.6181229","45339.6086328","46106.7044296","46873.9862169","47624.0490149","33764.1436868","34531.4444036","35298.6474679","36065.8379125","46876.8004115","Mapping"
"Blocked","Male","cave","8","M_depth.wav","None","741.967256067","419","44572.9605352","36833.2155494","37600.6283412","38367.5315372","39134.7171743","39901.9187363","40669.4628332","41436.6181229","45339.6086328","46106.7044296","46873.9862169","47624.0490149","48391.3999101","34531.4444036","35298.6474679","36065.8379125","47626.8049186","Mapping"
"Blocked","Male","cave","8","M_jolt.wav","None","740.438769182","419","44572.9605352","36833.2155494","37600.6283412","38367.5315372","39134.7171743","39901.9187363","40669.4628332","41436.6181229","45339.6086328","46106.7044296","46873.9862169","47624.0490149","48391.3999101","49158.6666739","35298.6474679","36065.8379125","48394.2318324","Mapping"
"Blocked","Male","cave","8","M_cave.wav","None","739.207446348","419","44572.9605352","36833.2155494","37600.6283412","38367.5315372","39134.7171743","39901.9187363","40669.4628332","41436.6181229","45339.6086328","46106.7044296","46873.9862169","47624.0490149","48391.3999101","49158.6666739","49925.7862077","36065.8379125","49161.23208","Mapping"
"Blocked","Male","cave","8","M_jaw.wav","space","475.989204742","419","44572.9605352","36833.2155494","37600.6283412","38367.5315372","39134.7171743","39901.9187363","40669.4628332","41436.6181229","45339.6086328","46106.7044296","46873.9862169","47624.0490149","48391.3999101","49158.6666739","49925.7862077","50693.0670936","49928.3954824","Mapping"
"Blocked","Male","cave","8","M_cave.wav","None","736.653157571","419","44572.9605352","51460.2322988","37600.6283412","38367.5315372","39134.7171743","39901.9187363","40669.4628332","41436.6181229","45339.6086328","46106.7044296","46873.9862169","47624.0490149","48391.3999101","49158.6666739","49925.7862077","50693.0670936","50695.8629596","Mapping"
"Blocked","Male","cave","8","M_greet.wav","space","621.228510442","419","44572.9605352","51460.2322988","52227.430856","38367.5315372","39134.7171743","39901.9187363","40669.4628332","41436.6181229","45339.6086328","46106.7044296","46873.9862169","47624.0490149","48391.3999101","49158.6666739","49925.7862077","50693.0670936","51463.17239","Mapping"
"Blocked","Male","cave","8","M_jolt.wav","None","734.206737241","419","44572.9605352","51460.2322988","52227.430856","52994.7580141","39134.7171743","39901.9187363","40669.4628332","41436.6181229","45339.6086328","46106.7044296","46873.9862169","47624.0490149","48391.3999101","49158.6666739","49925.7862077","50693.0670936","52230.3258769","Mapping"
"Blocked","Male","cave","8","M_knife.wav","None","733.085686608","419","44572.9605352","51460.2322988","52227.430856","52994.7580141","53761.9517639","39901.9187363","40669.4628332","41436.6181229","45339.6086328","46106.7044296","46873.9862169","47624.0490149","48391.3999101","49158.6666739","49925.7862077","50693.0670936","52997.6443214","Mapping"
"Blocked","Male","cave","8","M_cave.wav","None","732.298457271","419","44572.9605352","51460.2322988","52227.430856","52994.7580141","53761.9517639","54530.0928931","40669.4628332","41436.6181229","45339.6086328","46106.7044296","46873.9862169","47624.0490149","48391.3999101","49158.6666739","49925.7862077","50693.0670936","53764.9080805","Mapping"
"Blocked","Male","cave","8","M_knife.wav","space","690.388711011","419","44572.9605352","51460.2322988","52227.430856","52994.7580141","53761.9517639","54530.0928931","55297.3494409","41436.6181229","45339.6086328","46106.7044296","46873.9862169","47624.0490149","48391.3999101","49158.6666739","49925.7862077","50693.0670936","54533.9812651","Mapping"
"Blocked","Male","cave","8","M_greet.wav","None","727.560658725","419","44572.9605352","51460.2322988","52227.430856","52994.7580141","53761.9517639","54530.0928931","55297.3494409","56063.9557733","45339.6086328","46106.7044296","46873.9862169","47624.0490149","48391.3999101","49158.6666739","49925.7862077","50693.0670936","55301.0536253","Mapping"
"Blocked","Male","cave","7","M_park.wav","None","728.214780201","419","59183.2988395","51460.2322988","52227.430856","52994.7580141","53761.9517639","54530.0928931","55297.3494409","56063.9557733","45339.6086328","46106.7044296","46873.9862169","47624.0490149","48391.3999101","49158.6666739","49925.7862077","50693.0670936","56066.8655172","Mapping"
"Blocked","Male","cave","7","M_cad.wav","None","727.711794739","419","59183.2988395","51460.2322988","52227.430856","52994.7580141","53761.9517639","54530.0928931","55297.3494409","56063.9557733","59950.0548056","46106.7044296","46873.9862169","47624.0490149","48391.3999101","49158.6666739","49925.7862077","50693.0670936","59187.1526576","Mapping"
"Blocked","Male","cave","7","M_romp.wav","None","727.495757375","419","59183.2988395","51460.2322988","52227.430856","52994.7580141","53761.9517639","54530.0928931","55297.3494409","56063.9557733","59950.0548056","60717.1503019","46873.9862169","47624.0490149","48391.3999101","49158.6666739","49925.7862077","50693.0670936","59953.5351405","Mapping"
"Blocked","Male","cave","7","M_cad.wav","None","726.991870505","419","59183.2988395","51460.2322988","52227.430856","52994.7580141","53761.9517639","54530.0928931","55297.3494409","56063.9557733","59950.0548056","60717.1503019","61484.4540234","47624.0490149","48391.3999101","49158.6666739","49925.7862077","50693.0670936","60720.6712001","Mapping"
"Blocked","Male","cave","7","M_reek.wav","space","441.567451733","419","59183.2988395","51460.2322988","52227.430856","52994.7580141","53761.9517639","54530.0928931","55297.3494409","56063.9557733","59950.0548056","60717.1503019","61484.4540234","62234.6688589","48391.3999101","49158.6666739","49925.7862077","50693.0670936","61487.7633913","Mapping"
"Blocked","Male","cave","7","M_cave.wav","None","742.66073901","419","59183.2988395","51460.2322988","52227.430856","52994.7580141","53761.9517639","54530.0928931","55297.3494409","56063.9557733","59950.0548056","60717.1503019","61484.4540234","62234.6688589","63002.2222703","49158.6666739","49925.7862077","50693.0670936","62237.3848001","Mapping"
"Blocked","Male","cave","7","M_park.wav","None","740.535820738","419","59183.2988395","51460.2322988","52227.430856","52994.7580141","53761.9517639","54530.0928931","55297.3494409","56063.9557733","59950.0548056","60717.1503019","61484.4540234","62234.6688589","63002.2222703","63769.504358","49925.7862077","50693.0670936","63005.8537412","Mapping"
"Blocked","Male","cave","7","M_cave.wav","space","0.0354553669749","419","59183.2988395","51460.2322988","52227.430856","52994.7580141","53761.9517639","54530.0928931","55297.3494409","56063.9557733","59950.0548056","60717.1503019","61484.4540234","62234.6688589","63002.2222703","63769.504358","64536.4057512","50693.0670936","63772.4558671","Mapping"
"Blocked","Male","cave","7","M_reek.wav","None","739.379314738","419","59183.2988395","51460.2322988","52227.430856","52994.7580141","53761.9517639","54530.0928931","55297.3494409","56063.9557733","59950.0548056","60717.1503019","61484.4540234","62234.6688589","63002.2222703","63769.504358","64536.4057512","65303.6217357","64539.1712699","Mapping"
"Blocked","Male","cave","7","M_depth.wav","space","101.013242279","419","59183.2988395","66070.8851943","52227.430856","52994.7580141","53761.9517639","54530.0928931","55297.3494409","56063.9557733","59950.0548056","60717.1503019","61484.4540234","62234.6688589","63002.2222703","63769.504358","64536.4057512","65303.6217357","65306.3100337","Mapping"
"Blocked","Male","cave","7","M_greet.wav","None","737.365570074","419","59183.2988395","66070.8851943","66837.9993197","52994.7580141","53761.9517639","54530.0928931","55297.3494409","56063.9557733","59950.0548056","60717.1503019","61484.4540234","62234.6688589","63002.2222703","63769.504358","64536.4057512","65303.6217357","66073.5948257","Mapping"
"Blocked","Male","cave","7","M_cave.wav","None","735.637271163","419","59183.2988395","66070.8851943","66837.9993197","67605.7411253","53761.9517639","54530.0928931","55297.3494409","56063.9557733","59950.0548056","60717.1503019","61484.4540234","62234.6688589","63002.2222703","63769.504358","64536.4057512","65303.6217357","66841.4748471","Mapping"
"Blocked","Male","cave","7","M_gnash.wav","space","337.90316959","419","59183.2988395","66070.8851943","66837.9993197","67605.7411253","68372.4685469","54530.0928931","55297.3494409","56063.9557733","59950.0548056","60717.1503019","61484.4540234","62234.6688589","63002.2222703","63769.504358","64536.4057512","65303.6217357","67609.4492159","Mapping"
"Blocked","Male","cave","7","M_cave.wav","None","733.417705088","419","59183.2988395","66070.8851943","66837.9993197","67605.7411253","68372.4685469","69139.668306","55297.3494409","56063.9557733","59950.0548056","60717.1503019","61484.4540234","62234.6688589","63002.2222703","63769.504358","64536.4057512","65303.6217357","68375.6384971","Mapping"
"Blocked","Male","cave","7","M_reek.wav","space","452.606690608","419","59183.2988395","66070.8851943","66837.9993197","67605.7411253","68372.4685469","69139.668306","69907.0432387","56063.9557733","59950.0548056","60717.1503019","61484.4540234","62234.6688589","63002.2222703","63769.504358","64536.4057512","65303.6217357","69142.7958901","Mapping"
"Blocked","Male","cave","7","M_jaw.wav","None","730.779585401","419","59183.2988395","66070.8851943","66837.9993197","67605.7411253","68372.4685469","69139.668306","69907.0432387","70675.2297388","59950.0548056","60717.1503019","61484.4540234","62234.6688589","63002.2222703","63769.504358","64536.4057512","65303.6217357","69910.2204002","Mapping"
"Blocked","Male","done","21","M_bluff.wav","None","728.264057152","419","73810.8495226","66070.8851943","66837.9993197","67605.7411253","68372.4685469","69139.668306","69907.0432387","70675.2297388","59950.0548056","60717.1503019","61484.4540234","62234.6688589","63002.2222703","63769.504358","64536.4057512","65303.6217357","70679.0709372","Mapping"
"Blocked","Male","done","21","M_jolt.wav","None","727.969897792","419","73810.8495226","66070.8851943","66837.9993197","67605.7411253","68372.4685469","69139.668306","69907.0432387","70675.2297388","74577.3005125","60717.1503019","61484.4540234","62234.6688589","63002.2222703","63769.504358","64536.4057512","65303.6217357","73814.364111","Mapping"
"Blocked","Male","done","21","M_done.wav","None","728.473484193","419","73810.8495226","66070.8851943","66837.9993197","67605.7411253","68372.4685469","69139.668306","69907.0432387","70675.2297388","74577.3005125","75344.9155201","61484.4540234","62234.6688589","63002.2222703","63769.504358","64536.4057512","65303.6217357","74580.3505755","Mapping"
"Blocked","Male","done","21","M_park.wav","space","437.944093497","419","73810.8495226","66070.8851943","66837.9993197","67605.7411253","68372.4685469","69139.668306","69907.0432387","70675.2297388","74577.3005125","75344.9155201","76111.755918","62234.6688589","63002.2222703","63769.504358","64536.4057512","65303.6217357","75348.4274042","Mapping"
"Blocked","Male","done","21","M_done.wav","None","726.555889677","419","73810.8495226","66070.8851943","66837.9993197","67605.7411253","68372.4685469","69139.668306","69907.0432387","70675.2297388","74577.3005125","75344.9155201","76111.755918","76861.961439","63002.2222703","63769.504358","64536.4057512","65303.6217357","76114.5695117","Mapping"
"Blocked","Male","done","21","M_romp.wav","space","460.812504808","419","73810.8495226","66070.8851943","66837.9993197","67605.7411253","68372.4685469","69139.668306","69907.0432387","70675.2297388","74577.3005125","75344.9155201","76111.755918","76861.961439","77629.1993577","63769.504358","64536.4057512","65303.6217357","76864.5385634","Mapping"
"Blocked","Male","done","21","M_bluff.wav","None","740.776496577","419","73810.8495226","66070.8851943","66837.9993197","67605.7411253","68372.4685469","69139.668306","69907.0432387","70675.2297388","74577.3005125","75344.9155201","76111.755918","76861.961439","77629.1993577","78396.4174455","64536.4057512","65303.6217357","77632.0006322","Mapping"
"Blocked","Male","done","21","M_done.wav","None","739.555089227","419","73810.8495226","66070.8851943","66837.9993197","67605.7411253","68372.4685469","69139.668306","69907.0432387","70675.2297388","74577.3005125","75344.9155201","76111.755918","76861.961439","77629.1993577","78396.4174455","79163.6054863","65303.6217357","78399.218119","Mapping"
"Blocked","Male","done","21","M_park.wav","space","509.793793989","419","73810.8495226","66070.8851943","66837.9993197","67605.7411253","68372.4685469","69139.668306","69907.0432387","70675.2297388","74577.3005125","75344.9155201","76111.755918","76861.961439","77629.1993577","78396.4174455","79163.6054863","79930.8202689","79166.5563945","Mapping"
"Blocked","Male","done","21","M_cad.wav","None","737.434077055","419","73810.8495226","80698.518807","66837.9993197","67605.7411253","68372.4685469","69139.668306","69907.0432387","70675.2297388","74577.3005125","75344.9155201","76111.755918","76861.961439","77629.1993577","78396.4174455","79163.6054863","79930.8202689","79933.7017687","Mapping"
"Blocked","Male","done","21","M_cling.wav","None","735.971392927","419","73810.8495226","80698.518807","81465.700538","67605.7411253","68372.4685469","69139.668306","69907.0432387","70675.2297388","74577.3005125","75344.9155201","76111.755918","76861.961439","77629.1993577","78396.4174455","79163.6054863","79930.8202689","80701.6623159","Mapping"
"Blocked","Male","done","21","M_bluff.wav","None","734.973835141","419","73810.8495226","80698.518807","81465.700538","82232.5469453","68372.4685469","69139.668306","69907.0432387","70675.2297388","74577.3005125","75344.9155201","76111.755918","76861.961439","77629.1993577","78396.4174455","79163.6054863","79930.8202689","81469.0507697","Mapping"
"Blocked","Male","done","21","M_dime.wav","None","735.122266932","419","73810.8495226","80698.518807","81465.700538","82232.5469453","82999.7094463","69139.668306","69907.0432387","70675.2297388","74577.3005125","75344.9155201","76111.755918","76861.961439","77629.1993577","78396.4174455","79163.6054863","79930.8202689","82235.4236376","Mapping"
"Blocked","Male","done","21","M_done.wav","space","303.945641514","419","73810.8495226","80698.518807","81465.700538","82232.5469453","82999.7094463","83767.005656","69907.0432387","70675.2297388","74577.3005125","75344.9155201","76111.755918","76861.961439","77629.1993577","78396.4174455","79163.6054863","79930.8202689","83002.3941387","Mapping"
"Blocked","Male","done","21","M_jolt.wav","space","666.671474174","419","73810.8495226","80698.518807","81465.700538","82232.5469453","82999.7094463","83767.005656","84534.1735654","70675.2297388","74577.3005125","75344.9155201","76111.755918","76861.961439","77629.1993577","78396.4174455","79163.6054863","79930.8202689","83769.6512875","Mapping"
"Blocked","Male","done","21","M_jolt.wav","None","731.786457732","419","73810.8495226","80698.518807","81465.700538","82232.5469453","82999.7094463","83767.005656","84534.1735654","85301.6828079","74577.3005125","75344.9155201","76111.755918","76861.961439","77629.1993577","78396.4174455","79163.6054863","79930.8202689","84537.0018821","Mapping"
"Blocked","Male","done","19","M_jolt.wav","None","730.486327449","419","88437.6649576","80698.518807","81465.700538","82232.5469453","82999.7094463","83767.005656","84534.1735654","85301.6828079","74577.3005125","75344.9155201","76111.755918","76861.961439","77629.1993577","78396.4174455","79163.6054863","79930.8202689","85304.6649648","Mapping"
"Blocked","Male","done","19","M_gnash.wav","None","729.881783393","419","88437.6649576","80698.518807","81465.700538","82232.5469453","82999.7094463","83767.005656","84534.1735654","85301.6828079","89204.9800969","75344.9155201","76111.755918","76861.961439","77629.1993577","78396.4174455","79163.6054863","79930.8202689","88441.0605602","Mapping"
"Blocked","Male","done","19","M_romp.wav","None","728.927493173","419","88437.6649576","80698.518807","81465.700538","82232.5469453","82999.7094463","83767.005656","84534.1735654","85301.6828079","89204.9800969","89972.487837","76111.755918","76861.961439","77629.1993577","78396.4174455","79163.6054863","79930.8202689","89208.463737","Mapping"
"Blocked","Male","done","19","M_jolt.wav","None","728.215982077","419","88437.6649576","80698.518807","81465.700538","82232.5469453","82999.7094463","83767.005656","84534.1735654","85301.6828079","89204.9800969","89972.487837","90739.1010802","76861.961439","77629.1993577","78396.4174455","79163.6054863","79930.8202689","89975.7265947","Mapping"
"Blocked","Male","done","19","M_knife.wav","None","728.068151225","419","88437.6649576","80698.518807","81465.700538","82232.5469453","82999.7094463","83767.005656","84534.1735654","85301.6828079","89204.9800969","89972.487837","90739.1010802","91506.1229616","77629.1993577","78396.4174455","79163.6054863","79930.8202689","90742.323913","Mapping"
"Blocked","Male","done","19","M_done.wav","None","728.301615803","419","88437.6649576","80698.518807","81465.700538","82232.5469453","82999.7094463","83767.005656","84534.1735654","85301.6828079","89204.9800969","89972.487837","90739.1010802","91506.1229616","92273.4981948","78396.4174455","79163.6054863","79930.8202689","91508.9221328","Mapping"
"Blocked","Male","done","19","M_cad.wav","space","583.986252933","419","88437.6649576","80698.518807","81465.700538","82232.5469453","82999.7094463","83767.005656","84534.1735654","85301.6828079","89204.9800969","89972.487837","90739.1010802","91506.1229616","92273.4981948","93023.5823262","79163.6054863","79930.8202689","92276.3520514","Mapping"
"Blocked","Male","done","19","M_done.wav","None","743.530597381","419","88437.6649576","80698.518807","81465.700538","82232.5469453","82999.7094463","83767.005656","84534.1735654","85301.6828079","89204.9800969","89972.487837","90739.1010802","91506.1229616","92273.4981948","93023.5823262","93790.8331651","79930.8202689","93026.106568","Mapping"
"Blocked","Male","done","19","M_dime.wav","space","551.582451156","419","88437.6649576","80698.518807","81465.700538","82232.5469453","82999.7094463","83767.005656","84534.1735654","85301.6828079","89204.9800969","89972.487837","90739.1010802","91506.1229616","92273.4981948","93023.5823262","93790.8331651","94558.010389","93793.7645427","Mapping"
"Blocked","Male","done","19","M_gnash.wav","space","564.552204723","419","88437.6649576","95325.2729462","81465.700538","82232.5469453","82999.7094463","83767.005656","84534.1735654","85301.6828079","89204.9800969","89972.487837","90739.1010802","91506.1229616","92273.4981948","93023.5823262","93790.8331651","94558.010389","94560.7885274","Mapping"
"Blocked","Male","done","19","M_done.wav","None","739.327033095","419","88437.6649576","95325.2729462","96092.5463203","82232.5469453","82999.7094463","83767.005656","84534.1735654","85301.6828079","89204.9800969","89972.487837","90739.1010802","91506.1229616","92273.4981948","93023.5823262","93790.8331651","94558.010389","95328.6829713","Mapping"
"Blocked","Male","done","19","M_gnash.wav","space","551.621512153","419","88437.6649576","95325.2729462","96092.5463203","96859.7151311","82999.7094463","83767.005656","84534.1735654","85301.6828079","89204.9800969","89972.487837","90739.1010802","91506.1229616","92273.4981948","93023.5823262","93790.8331651","94558.010389","96095.6934349","Mapping"
"Blocked","Male","done","19","M_priest.wav","space","518.80035864","419","88437.6649576","95325.2729462","96092.5463203","96859.7151311","97626.9004678","83767.005656","84534.1735654","85301.6828079","89204.9800969","89972.487837","90739.1010802","91506.1229616","92273.4981948","93023.5823262","93790.8331651","94558.010389","96862.5539643","Mapping"
"Blocked","Male","done","19","M_done.wav","None","736.512838448","419","88437.6649576","95325.2729462","96092.5463203","96859.7151311","97626.9004678","98394.2600765","84534.1735654","85301.6828079","89204.9800969","89972.487837","90739.1010802","91506.1229616","92273.4981948","93023.5823262","93790.8331651","94558.010389","97629.620916","Mapping"
"Blocked","Male","done","19","M_reek.wav","space","536.401244183","419","88437.6649576","95325.2729462","96092.5463203","96859.7151311","97626.9004678","98394.2600765","99161.4333944","85301.6828079","89204.9800969","89972.487837","90739.1010802","91506.1229616","92273.4981948","93023.5823262","93790.8331651","94558.010389","98396.9162244","Mapping"
"Blocked","Male","done","19","M_reek.wav","None","733.475094708","419","88437.6649576","95325.2729462","96092.5463203","96859.7151311","97626.9004678","98394.2600765","99161.4333944","99929.013848","89204.9800969","89972.487837","90739.1010802","91506.1229616","92273.4981948","93023.5823262","93790.8331651","94558.010389","99164.5711944","Mapping"
"Blocked","Male","tile","13","M_depth.wav","None","732.305668532","419","103065.128505","95325.2729462","96092.5463203","96859.7151311","97626.9004678","98394.2600765","99161.4333944","99929.013848","89204.9800969","89972.487837","90739.1010802","91506.1229616","92273.4981948","93023.5823262","93790.8331651","94558.010389","99932.3223145","Mapping"
"Blocked","Male","tile","13","M_reek.wav","None","728.713559094","419","103065.128505","95325.2729462","96092.5463203","96859.7151311","97626.9004678","98394.2600765","99161.4333944","99929.013848","103831.67925","89972.487837","90739.1010802","91506.1229616","92273.4981948","93023.5823262","93790.8331651","94558.010389","103068.463412","Mapping"
"Blocked","Male","tile","13","M_jolt.wav","None","728.50503346","419","103065.128505","95325.2729462","96092.5463203","96859.7151311","97626.9004678","98394.2600765","99161.4333944","99929.013848","103831.67925","104598.942108","90739.1010802","91506.1229616","92273.4981948","93023.5823262","93790.8331651","94558.010389","103834.827867","Mapping"
"Blocked","Male","tile","13","M_tile.wav","None","728.454855102","419","103065.128505","95325.2729462","96092.5463203","96859.7151311","97626.9004678","98394.2600765","99161.4333944","99929.013848","103831.67925","104598.942108","105366.240421","91506.1229616","92273.4981948","93023.5823262","93790.8331651","94558.010389","104601.811289","Mapping"
"Blocked","Male","tile","13","M_reek.wav","space","541.880300277","419","103065.128505","95325.2729462","96092.5463203","96859.7151311","97626.9004678","98394.2600765","99161.4333944","99929.013848","103831.67925","104598.942108","105366.240421","106133.507185","92273.4981948","93023.5823262","93790.8331651","94558.010389","105369.429","Mapping"
"Blocked","Male","tile","13","M_greet.wav","None","727.29895004","419","103065.128505","95325.2729462","96092.5463203","96859.7151311","97626.9004678","98394.2600765","99161.4333944","99929.013848","103831.67925","104598.942108","105366.240421","106133.507185","106900.618906","93023.5823262","93790.8331651","94558.010389","106136.338807","Mapping"
"Blocked","Male","tile","13","M_gnash.wav","None","726.674274547","419","103065.128505","95325.2729462","96092.5463203","96859.7151311","97626.9004678","98394.2600765","99161.4333944","99929.013848","103831.67925","104598.942108","105366.240421","106133.507185","106900.618906","107667.812356","93790.8331651","94558.010389","106903.66957","Mapping"
"Blocked","Male","tile","13","M_lash.wav","None","726.248810142","419","103065.128505","95325.2729462","96092.5463203","96859.7151311","97626.9004678","98394.2600765","99161.4333944","99929.013848","103831.67925","104598.942108","105366.240421","106133.507185","106900.618906","107667.812356","108435.190293","94558.010389","107671.086569","Mapping"
"Blocked","Male","tile","13","M_tile.wav","None","725.722087612","419","103065.128505","95325.2729462","96092.5463203","96859.7151311","97626.9004678","98394.2600765","99161.4333944","99929.013848","103831.67925","104598.942108","105366.240421","106133.507185","106900.618906","107667.812356","108435.190293","109185.287345","108438.320281","Mapping"
"Blocked","Male","tile","13","M_jaw.wav","space","371.400679301","419","103065.128505","109952.539386","96092.5463203","96859.7151311","97626.9004678","98394.2600765","99161.4333944","99929.013848","103831.67925","104598.942108","105366.240421","106133.507185","106900.618906","107667.812356","108435.190293","109185.287345","109187.942291","Mapping"
"Blocked","Male","tile","13","M_tile.wav","None","741.629528672","419","103065.128505","109952.539386","110719.769192","96859.7151311","97626.9004678","98394.2600765","99161.4333944","99929.013848","103831.67925","104598.942108","105366.240421","106133.507185","106900.618906","107667.812356","108435.190293","109185.287345","109955.339759","Mapping"
"Blocked","Male","tile","13","M_greet.wav","space","585.793274778","419","103065.128505","109952.539386","110719.769192","111486.950923","97626.9004678","98394.2600765","99161.4333944","99929.013848","103831.67925","104598.942108","105366.240421","106133.507185","106900.618906","107667.812356","108435.190293","109185.287345","110722.511274","Mapping"
"Blocked","Male","tile","13","M_tile.wav","None","738.925005288","419","103065.128505","109952.539386","110719.769192","111486.950923","112254.239921","98394.2600765","99161.4333944","99929.013848","103831.67925","104598.942108","105366.240421","106133.507185","106900.618906","107667.812356","108435.190293","109185.287345","111490.225737","Mapping"
"Blocked","Male","tile","13","M_cad.wav","space","474.978426311","419","103065.128505","109952.539386","110719.769192","111486.950923","112254.239921","113021.423755","99161.4333944","99929.013848","103831.67925","104598.942108","105366.240421","106133.507185","106900.618906","107667.812356","108435.190293","109185.287345","112257.355186","Mapping"
"Blocked","Male","tile","13","M_park.wav","None","737.380293066","419","103065.128505","109952.539386","110719.769192","111486.950923","112254.239921","113021.423755","113788.691721","99929.013848","103831.67925","104598.942108","105366.240421","106133.507185","106900.618906","107667.812356","108435.190293","109185.287345","113024.527903","Mapping"
"Blocked","Male","tile","13","M_romp.wav","None","736.854772412","419","103065.128505","109952.539386","110719.769192","111486.950923","112254.239921","113021.423755","113788.691721","114555.773696","103831.67925","104598.942108","105366.240421","106133.507185","106900.618906","107667.812356","108435.190293","109185.287345","113791.666667","Mapping"
"Blocked","Male","ball","3","M_cling.wav","None","736.645645841","419","117692.370906","109952.539386","110719.769192","111486.950923","112254.239921","113021.423755","113788.691721","114555.773696","103831.67925","104598.942108","105366.240421","106133.507185","106900.618906","107667.812356","108435.190293","109185.287345","114558.473412","Mapping"
"Blocked","Male","ball","3","M_ball.wav","None","727.7150999","419","117692.370906","109952.539386","110719.769192","111486.950923","112254.239921","113021.423755","113788.691721","114555.773696","118458.999474","104598.942108","105366.240421","106133.507185","106900.618906","107667.812356","108435.190293","109185.287345","117696.508067","Mapping"
"Blocked","Male","ball","3","M_romp.wav","space","378.301856179","419","117692.370906","109952.539386","110719.769192","111486.950923","112254.239921","113021.423755","113788.691721","114555.773696","118458.999474","119226.295683","105366.240421","106133.507185","106900.618906","107667.812356","108435.190293","109185.287345","118462.053142","Mapping"
"Blocked","Male","ball","3","M_ball.wav","None","727.721710223","419","117692.370906","109952.539386","110719.769192","111486.950923","112254.239921","113021.423755","113788.691721","114555.773696","118458.999474","119226.295683","119993.508062","106133.507185","106900.618906","107667.812356","108435.190293","109185.287345","119228.94462","Mapping"
"Blocked","Male","ball","3","M_dime.wav","space","517.938913407","419","117692.370906","109952.539386","110719.769192","111486.950923","112254.239921","113021.423755","113788.691721","114555.773696","118458.999474","119226.295683","119993.508062","120743.595799","106900.618906","107667.812356","108435.190293","109185.287345","119996.366726","Mapping"
"Blocked","Male","ball","3","M_park.wav","None","742.939874909","419","117692.370906","109952.539386","110719.769192","111486.950923","112254.239921","113021.423755","113788.691721","114555.773696","118458.999474","119226.295683","119993.508062","120743.595799","121510.978544","107667.812356","108435.190293","109185.287345","120746.295515","Mapping"
"Blocked","Male","ball","3","M_ball.wav","None","741.877115303","419","117692.370906","109952.539386","110719.769192","111486.950923","112254.239921","113021.423755","113788.691721","114555.773696","118458.999474","119226.295683","119993.508062","120743.595799","121510.978544","122278.142247","108435.190293","109185.287345","121513.764795","Mapping"
"Blocked","Male","ball","3","M_gnash.wav","None","740.863933118","419","117692.370906","109952.539386","110719.769192","111486.950923","112254.239921","113021.423755","113788.691721","114555.773696","118458.999474","119226.295683","119993.508062","120743.595799","121510.978544","122278.142247","123045.346814","109185.287345","122281.009324","Mapping"
"Blocked","Male","ball","3","M_gnash.wav","None","740.330600265","419","117692.370906","109952.539386","110719.769192","111486.950923","112254.239921","113021.423755","113788.691721","114555.773696","118458.999474","119226.295683","119993.508062","120743.595799","121510.978544","122278.142247","123045.346814","123812.60907","123048.249647","Mapping"
"Blocked","Male","ball","3","M_jaw.wav","None","739.653943598","419","117692.370906","124579.771271","110719.769192","111486.950923","112254.239921","113021.423755","113788.691721","114555.773696","118458.999474","119226.295683","119993.508062","120743.595799","121510.978544","122278.142247","123045.346814","123812.60907","123815.718025","Mapping"
"Blocked","Male","ball","3","M_bluff.wav","space","374.246423214","419","117692.370906","124579.771271","125346.94519","111486.950923","112254.239921","113021.423755","113788.691721","114555.773696","118458.999474","119226.295683","119993.508062","120743.595799","121510.978544","122278.142247","123045.346814","123812.60907","124582.996207","Mapping"
"Blocked","Male","ball","3","M_cad.wav","None","737.810264509","419","117692.370906","124579.771271","125346.94519","126114.210451","112254.239921","113021.423755","113788.691721","114555.773696","118458.999474","119226.295683","119993.508062","120743.595799","121510.978544","122278.142247","123045.346814","123812.60907","125349.598633","Mapping"
"Blocked","Male","ball","3","M_cad.wav","None","737.204819045","419","117692.370906","124579.771271","125346.94519","126114.210451","126881.396389","113021.423755","113788.691721","114555.773696","118458.999474","119226.295683","119993.508062","120743.595799","121510.978544","122278.142247","123045.346814","123812.60907","126116.958843","Mapping"
"Blocked","Male","ball","3","M_jaw.wav","None","737.043166609","419","117692.370906","124579.771271","125346.94519","126114.210451","126881.396389","127648.722044","113788.691721","114555.773696","118458.999474","119226.295683","119993.508062","120743.595799","121510.978544","122278.142247","123045.346814","123812.60907","126884.108424","Mapping"
"Blocked","Male","ball","3","M_ball.wav","None","735.404707992","419","117692.370906","124579.771271","125346.94519","126114.210451","126881.396389","127648.722044","128415.910085","114555.773696","118458.999474","119226.295683","119993.508062","120743.595799","121510.978544","122278.142247","123045.346814","123812.60907","127651.961703","Mapping"
"Blocked","Male","ball","3","M_reek.wav","space","324.681622822","419","117692.370906","124579.771271","125346.94519","126114.210451","126881.396389","127648.722044","128415.910085","129183.124868","118458.999474","119226.295683","119993.508062","120743.595799","121510.978544","122278.142247","123045.346814","123812.60907","128418.653069","Mapping"
"Blocked","Male","tile","14","M_reek.wav","None","733.286400042","419","132319.672801","124579.771271","125346.94519","126114.210451","126881.396389","127648.722044","128415.910085","129183.124868","118458.999474","119226.295683","119993.508062","120743.595799","121510.978544","122278.142247","123045.346814","123812.60907","129186.189053","Mapping"
"Blocked","Male","tile","14","M_jaw.wav","None","728.693427657","419","132319.672801","124579.771271","125346.94519","126114.210451","126881.396389","127648.722044","128415.910085","129183.124868","133086.311584","119226.295683","119993.508062","120743.595799","121510.978544","122278.142247","123045.346814","123812.60907","132323.276929","Mapping"
"Blocked","Male","tile","14","M_cling.wav","None","729.672055882","419","132319.672801","124579.771271","125346.94519","126114.210451","126881.396389","127648.722044","128415.910085","129183.124868","133086.311584","133853.396865","119993.508062","120743.595799","121510.978544","122278.142247","123045.346814","123812.60907","133089.199394","Mapping"
"Blocked","Male","tile","14","M_tile.wav","None","728.762535575","419","132319.672801","124579.771271","125346.94519","126114.210451","126881.396389","127648.722044","128415.910085","129183.124868","133086.311584","133853.396865","134620.724323","120743.595799","121510.978544","122278.142247","123045.346814","123812.60907","133856.961631","Mapping"
"Blocked","Male","tile","14","M_reek.wav","space","421.480483924","419","132319.672801","124579.771271","125346.94519","126114.210451","126881.396389","127648.722044","128415.910085","129183.124868","133086.311584","133853.396865","134620.724323","135387.972758","121510.978544","122278.142247","123045.346814","123812.60907","134623.81555","Mapping"
"Blocked","Male","tile","14","M_cling.wav","None","727.186574555","419","132319.672801","124579.771271","125346.94519","126114.210451","126881.396389","127648.722044","128415.910085","129183.124868","133086.311584","133853.396865","134620.724323","135387.972758","136155.295109","122278.142247","123045.346814","123812.60907","135390.894521","Mapping"
"Blocked","Male","tile","14","M_tile.wav","None","726.46334516","419","132319.672801","124579.771271","125346.94519","126114.210451","126881.396389","127648.722044","128415.910085","129183.124868","133086.311584","133853.396865","134620.724323","135387.972758","136155.295109","136922.402924","123045.346814","123812.60907","136158.681397","Mapping"
"Blocked","Male","tile","14","M_dime.wav","space","439.565124899","419","132319.672801","124579.771271","125346.94519","126114.210451","126881.396389","127648.722044","128415.910085","129183.124868","133086.311584","133853.396865","134620.724323","135387.972758","136155.295109","136922.402924","137672.597628","123812.60907","136925.731823","Mapping"
"Blocked","Male","tile","14","M_tile.wav","None","742.221453021","419","132319.672801","124579.771271","125346.94519","126114.210451","126881.396389","127648.722044","128415.910085","129183.124868","133086.311584","133853.396865","134620.724323","135387.972758","136155.295109","136922.402924","137672.597628","138439.927491","137675.611936","Mapping"
"Blocked","Male","tile","14","M_romp.wav","space","632.668575247","419","132319.672801","139207.026593","125346.94519","126114.210451","126881.396389","127648.722044","128415.910085","129183.124868","133086.311584","133853.396865","134620.724323","135387.972758","136155.295109","136922.402924","137672.597628","138439.927491","138442.623901","Mapping"
"Blocked","Male","tile","14","M_gnash.wav","None","740.490750356","419","132319.672801","139207.026593","139974.665337","126114.210451","126881.396389","127648.722044","128415.910085","129183.124868","133086.311584","133853.396865","134620.724323","135387.972758","136155.295109","136922.402924","137672.597628","138439.927491","139210.140055","Mapping"
"Blocked","Male","tile","14","M_romp.wav","None","739.834826064","419","132319.672801","139207.026593","139974.665337","140741.871707","126881.396389","127648.722044","128415.910085","129183.124868","133086.311584","133853.396865","134620.724323","135387.972758","136155.295109","136922.402924","137672.597628","138439.927491","139977.668828","Mapping"
"Blocked","Male","tile","14","M_tile.wav","None","739.488685531","419","132319.672801","139207.026593","139974.665337","140741.871707","141509.033006","127648.722044","128415.910085","129183.124868","133086.311584","133853.396865","134620.724323","135387.972758","136155.295109","136922.402924","137672.597628","138439.927491","140744.897432","Mapping"
"Blocked","Male","tile","14","M_priest.wav","None","739.082751625","419","132319.672801","139207.026593","139974.665337","140741.871707","141509.033006","142276.275432","128415.910085","129183.124868","133086.311584","133853.396865","134620.724323","135387.972758","136155.295109","136922.402924","137672.597628","138439.927491","141512.18643","Mapping"
"Blocked","Male","tile","14","M_cling.wav","space","34.9454708473","419","132319.672801","139207.026593","139974.665337","140741.871707","141509.033006","142276.275432","143043.117032","129183.124868","133086.311584","133853.396865","134620.724323","135387.972758","136155.295109","136922.402924","137672.597628","138439.927491","142279.371166","Mapping"
"Blocked","Male","tile","14","M_priest.wav","None","738.522076074","419","132319.672801","139207.026593","139974.665337","140741.871707","141509.033006","142276.275432","143043.117032","143810.315889","133086.311584","133853.396865","134620.724323","135387.972758","136155.295109","136922.402924","137672.597628","138439.927491","143045.771076","Mapping"
"Blocked","Male","ball","1","M_cad.wav","None","737.656424272","419","146946.639973","139207.026593","139974.665337","140741.871707","141509.033006","142276.275432","143043.117032","143810.315889","133086.311584","133853.396865","134620.724323","135387.972758","136155.295109","136922.402924","137672.597628","138439.927491","143813.349727","Mapping"
"Blocked","Male","ball","1","M_ball.wav","space","0.0345539594709","419","146946.639973","139207.026593","139974.665337","140741.871707","141509.033006","142276.275432","143043.117032","143810.315889","147713.484878","133853.396865","134620.724323","135387.972758","136155.295109","136922.402924","137672.597628","138439.927491","146950.690598","Mapping"
"Blocked","Male","ball","1","M_bluff.wav","space","325.490786412","419","146946.639973","139207.026593","139974.665337","140741.871707","141509.033006","142276.275432","143043.117032","143810.315889","147713.484878","148480.725801","134620.724323","135387.972758","136155.295109","136922.402924","137672.597628","138439.927491","147716.793945","Mapping"
"Blocked","Male","ball","1","M_gnash.wav","None","725.575458636","419","146946.639973","139207.026593","139974.665337","140741.871707","141509.033006","142276.275432","143043.117032","143810.315889","147713.484878","148480.725801","149230.920205","135387.972758","136155.295109","136922.402924","137672.597628","138439.927491","148484.006925","Mapping"
"Blocked","Male","ball","1","M_ball.wav","None","742.608156898","419","146946.639973","139207.026593","139974.665337","140741.871707","141509.033006","142276.275432","143043.117032","143810.315889","147713.484878","148480.725801","149230.920205","149998.162931","136155.295109","136922.402924","137672.597628","138439.927491","149233.643958","Mapping"
"Blocked","Male","ball","1","M_romp.wav","None","742.484063113","419","146946.639973","139207.026593","139974.665337","140741.871707","141509.033006","142276.275432","143043.117032","143810.315889","147713.484878","148480.725801","149230.920205","149998.162931","150765.394841","136922.402924","137672.597628","138439.927491","150000.999361","Mapping"
"Blocked","Male","ball","1","M_park.wav","space","442.068033441","419","146946.639973","139207.026593","139974.665337","140741.871707","141509.033006","142276.275432","143043.117032","143810.315889","147713.484878","148480.725801","149230.920205","149998.162931","150765.394841","151532.955764","137672.597628","138439.927491","150768.150744","Mapping"
"Blocked","Male","ball","1","M_bluff.wav","None","740.263295162","419","146946.639973","139207.026593","139974.665337","140741.871707","141509.033006","142276.275432","143043.117032","143810.315889","147713.484878","148480.725801","149230.920205","149998.162931","150765.394841","151532.955764","152300.291936","138439.927491","151535.901864","Mapping"
"Blocked","Male","ball","1","M_jaw.wav","None","739.522037614","419","146946.639973","139207.026593","139974.665337","140741.871707","141509.033006","142276.275432","143043.117032","143810.315889","147713.484878","148480.725801","149230.920205","149998.162931","150765.394841","151532.955764","152300.291936","153067.028071","152303.193868","Mapping"
"Blocked","Male","ball","1","M_depth.wav","None","739.655746414","419","146946.639973","153834.223023","139974.665337","140741.871707","141509.033006","142276.275432","143043.117032","143810.315889","147713.484878","148480.725801","149230.920205","149998.162931","150765.394841","151532.955764","152300.291936","153067.028071","153070.083242","Mapping"
"Blocked","Male","ball","1","M_jaw.wav","None","739.205042594","419","146946.639973","153834.223023","154601.470857","140741.871707","141509.033006","142276.275432","143043.117032","143810.315889","147713.484878","148480.725801","149230.920205","149998.162931","150765.394841","151532.955764","152300.291936","153067.028071","153837.37825","Mapping"
"Blocked","Male","ball","1","M_ball.wav","None","738.934319834","419","146946.639973","153834.223023","154601.470857","155368.754447","141509.033006","142276.275432","143043.117032","143810.315889","147713.484878","148480.725801","149230.920205","149998.162931","150765.394841","151532.955764","152300.291936","153067.028071","154604.158554","Mapping"
"Blocked","Male","ball","1","M_jaw.wav","space","491.70284316","419","146946.639973","153834.223023","154601.470857","155368.754447","156136.358638","142276.275432","143043.117032","143810.315889","147713.484878","148480.725801","149230.920205","149998.162931","150765.394841","151532.955764","152300.291936","153067.028071","155371.579759","Mapping"
"Blocked","Male","ball","1","M_depth.wav","None","736.135148648","419","146946.639973","153834.223023","154601.470857","155368.754447","156136.358638","156903.533157","143043.117032","143810.315889","147713.484878","148480.725801","149230.920205","149998.162931","150765.394841","151532.955764","152300.291936","153067.028071","156139.583574","Mapping"
"Blocked","Male","ball","1","M_ball.wav","None","735.605421426","419","146946.639973","153834.223023","154601.470857","155368.754447","156136.358638","156903.533157","157670.623546","143810.315889","147713.484878","148480.725801","149230.920205","149998.162931","150765.394841","151532.955764","152300.291936","153067.028071","156906.751784","Mapping"
"Blocked","Male","ball","1","M_cling.wav","space","357.356447829","419","146946.639973","153834.223023","154601.470857","155368.754447","156136.358638","156903.533157","157670.623546","158438.05707","147713.484878","148480.725801","149230.920205","149998.162931","150765.394841","151532.955764","152300.291936","153067.028071","157673.927806","Mapping"
"Blocked","Male","done","22","M_dime.wav","None","733.50844679","419","161574.190356","153834.223023","154601.470857","155368.754447","156136.358638","156903.533157","157670.623546","158438.05707","147713.484878","148480.725801","149230.920205","149998.162931","150765.394841","151532.955764","152300.291936","153067.028071","158441.358325","Mapping"
"Blocked","Male","done","22","M_knife.wav","None","727.651700896","419","161574.190356","153834.223023","154601.470857","155368.754447","156136.358638","156903.533157","157670.623546","158438.05707","162340.805702","148480.725801","149230.920205","149998.162931","150765.394841","151532.955764","152300.291936","153067.028071","161577.751817","Mapping"
"Blocked","Male","done","22","M_done.wav","None","728.276676859","419","161574.190356","153834.223023","154601.470857","155368.754447","156136.358638","156903.533157","157670.623546","158438.05707","162340.805702","163107.973311","149230.920205","149998.162931","150765.394841","151532.955764","152300.291936","153067.028071","162343.865981","Mapping"
"Blocked","Male","done","22","M_knife.wav","space","727.10454646","419","161574.190356","153834.223023","154601.470857","155368.754447","156136.358638","156903.533157","157670.623546","158438.05707","162340.805702","163107.973311","163875.239774","149998.162931","150765.394841","151532.955764","152300.291936","153067.028071","163111.165797","Mapping"
"Blocked","Male","done","22","M_done.wav","None","726.42518557","419","161574.190356","153834.223023","154601.470857","155368.754447","156136.358638","156903.533157","157670.623546","158438.05707","162340.805702","163107.973311","163875.239774","164642.45636","150765.394841","151532.955764","152300.291936","153067.028071","163878.696372","Mapping"
"Blocked","Male","done","22","M_romp.wav","space","658.889622034","419","161574.190356","153834.223023","154601.470857","155368.754447","156136.358638","156903.533157","157670.623546","158438.05707","162340.805702","163107.973311","163875.239774","164642.45636","165392.636341","151532.955764","152300.291936","153067.028071","164645.398554","Mapping"
"Blocked","Male","done","22","M_dime.wav","None","742.435086631","419","161574.190356","153834.223023","154601.470857","155368.754447","156136.358638","156903.533157","157670.623546","158438.05707","162340.805702","163107.973311","163875.239774","164642.45636","165392.636341","166160.231518","152300.291936","153067.028071","165395.51724","Mapping"
"Blocked","Male","done","22","M_romp.wav","None","741.528270547","419","161574.190356","153834.223023","154601.470857","155368.754447","156136.358638","156903.533157","157670.623546","158438.05707","162340.805702","163107.973311","163875.239774","164642.45636","165392.636341","166160.231518","166927.445399","153067.028071","166163.257543","Mapping"
"Blocked","Male","done","22","M_cling.wav","None","740.349529826","419","161574.190356","153834.223023","154601.470857","155368.754447","156136.358638","156903.533157","157670.623546","158438.05707","162340.805702","163107.973311","163875.239774","164642.45636","165392.636341","166160.231518","166927.445399","167694.246435","166930.901997","Mapping"
"Blocked","Male","done","22","M_depth.wav","None","740.899688954","419","161574.190356","168461.570288","154601.470857","155368.754447","156136.358638","156903.533157","157670.623546","158438.05707","162340.805702","163107.973311","163875.239774","164642.45636","165392.636341","166160.231518","166927.445399","167694.246435","167696.973794","Mapping"
"Blocked","Male","done","22","M_done.wav","None","740.370262201","419","161574.190356","168461.570288","169228.776658","155368.754447","156136.358638","156903.533157","157670.623546","158438.05707","162340.805702","163107.973311","163875.239774","164642.45636","165392.636341","166160.231518","166927.445399","167694.246435","168464.290135","Mapping"
"Blocked","Male","done","22","M_knife.wav","None","739.819802604","419","161574.190356","168461.570288","169228.776658","169995.943666","156136.358638","156903.533157","157670.623546","158438.05707","162340.805702","163107.973311","163875.239774","164642.45636","165392.636341","166160.231518","166927.445399","167694.246435","169231.584843","Mapping"
"Blocked","Male","done","22","M_cling.wav","space","0.01802815267","419","161574.190356","168461.570288","169228.776658","169995.943666","170763.196608","156903.533157","157670.623546","158438.05707","162340.805702","163107.973311","163875.239774","164642.45636","165392.636341","166160.231518","166927.445399","167694.246435","169998.630161","Mapping"
"Blocked","Male","done","22","M_done.wav","None","737.871860698","419","161574.190356","168461.570288","169228.776658","169995.943666","170763.196608","171530.366921","157670.623546","158438.05707","162340.805702","163107.973311","163875.239774","164642.45636","165392.636341","166160.231518","166927.445399","167694.246435","170765.816699","Mapping"
"Blocked","Male","done","22","M_priest.wav","space","643.160960155","419","161574.190356","168461.570288","169228.776658","169995.943666","170763.196608","171530.366921","172297.555863","158438.05707","162340.805702","163107.973311","163875.239774","164642.45636","165392.636341","166160.231518","166927.445399","167694.246435","171533.10089","Mapping"
"Blocked","Male","done","22","M_priest.wav","None","735.975299027","419","161574.190356","168461.570288","169228.776658","169995.943666","170763.196608","171530.366921","172297.555863","173064.922683","162340.805702","163107.973311","163875.239774","164642.45636","165392.636341","166160.231518","166927.445399","167694.246435","172300.716799","Mapping"
"Blocked","Male","ball","2","M_dime.wav","None","735.578679666","419","176201.623856","168461.570288","169228.776658","169995.943666","170763.196608","171530.366921","172297.555863","173064.922683","162340.805702","163107.973311","163875.239774","164642.45636","165392.636341","166160.231518","166927.445399","167694.246435","173068.072802","Mapping"
"Blocked","Male","ball","2","M_depth.wav","space","27.3000317295","419","176201.623856","168461.570288","169228.776658","169995.943666","170763.196608","171530.366921","172297.555863","173064.922683","176968.673981","163107.973311","163875.239774","164642.45636","165392.636341","166160.231518","166927.445399","167694.246435","176204.991214","Mapping"
"Blocked","Male","ball","2","M_romp.wav","None","726.305298354","419","176201.623856","168461.570288","169228.776658","169995.943666","170763.196608","171530.366921","172297.555863","173064.922683","176968.673981","177735.704576","163875.239774","164642.45636","165392.636341","166160.231518","166927.445399","167694.246435","176972.3358","Mapping"
"Blocked","Male","ball","2","M_ball.wav","None","726.772227511","419","176201.623856","168461.570288","169228.776658","169995.943666","170763.196608","171530.366921","172297.555863","173064.922683","176968.673981","177735.704576","178502.525444","164642.45636","165392.636341","166160.231518","166927.445399","167694.246435","177739.209249","Mapping"
"Blocked","Male","ball","2","M_jolt.wav","space","382.979260413","419","176201.623856","168461.570288","169228.776658","169995.943666","170763.196608","171530.366921","172297.555863","173064.922683","176968.673981","177735.704576","178502.525444","179269.675625","165392.636341","166160.231518","166927.445399","167694.246435","178505.269629","Mapping"
"Blocked","Male","ball","2","M_ball.wav","None","726.173993308","419","176201.623856","168461.570288","169228.776658","169995.943666","170763.196608","171530.366921","172297.555863","173064.922683","176968.673981","177735.704576","178502.525444","179269.675625","180036.913544","166160.231518","166927.445399","167694.246435","179272.993407","Mapping"
"Blocked","Male","ball","2","M_romp.wav","None","725.830556998","419","176201.623856","168461.570288","169228.776658","169995.943666","170763.196608","171530.366921","172297.555863","173064.922683","176968.673981","177735.704576","178502.525444","179269.675625","180036.913544","180787.097732","166927.445399","167694.246435","180039.961203","Mapping"
"Blocked","Male","ball","2","M_ball.wav","space","106.553894562","419","176201.623856","168461.570288","169228.776658","169995.943666","170763.196608","171530.366921","172297.555863","173064.922683","176968.673981","177735.704576","178502.525444","179269.675625","180036.913544","180787.097732","181554.799275","167694.246435","180789.646312","Mapping"
"Blocked","Male","ball","2","M_jolt.wav","space","638.372081843","419","176201.623856","168461.570288","169228.776658","169995.943666","170763.196608","171530.366921","172297.555863","173064.922683","176968.673981","177735.704576","178502.525444","179269.675625","180036.913544","180787.097732","181554.799275","182321.965982","181557.864661","Mapping"
"Blocked","Male","ball","2","M_park.wav","None","739.207446348","419","176201.623856","183089.090023","169228.776658","169995.943666","170763.196608","171530.366921","172297.555863","173064.922683","176968.673981","177735.704576","178502.525444","179269.675625","180036.913544","180787.097732","181554.799275","182321.965982","182325.240496","Mapping"
"Blocked","Male","ball","2","M_gnash.wav","None","739.376009577","419","176201.623856","183089.090023","183855.907285","169995.943666","170763.196608","171530.366921","172297.555863","173064.922683","176968.673981","177735.704576","178502.525444","179269.675625","180036.913544","180787.097732","181554.799275","182321.965982","183092.225419","Mapping"
"Blocked","Male","ball","2","M_romp.wav","None","739.430394504","419","176201.623856","183089.090023","183855.907285","184623.18757","170763.196608","171530.366921","172297.555863","173064.922683","176968.673981","177735.704576","178502.525444","179269.675625","180036.913544","180787.097732","181554.799275","182321.965982","183859.23408","Mapping"
"Blocked","Male","ball","2","M_romp.wav","None","739.607070401","419","176201.623856","183089.090023","183855.907285","184623.18757","185390.383122","171530.366921","172297.555863","173064.922683","176968.673981","177735.704576","178502.525444","179269.675625","180036.913544","180787.097732","181554.799275","182321.965982","184626.118947","Mapping"
"Blocked","Male","ball","2","M_park.wav","None","739.382619899","419","176201.623856","183089.090023","183855.907285","184623.18757","185390.383122","186157.686243","172297.555863","173064.922683","176968.673981","177735.704576","178502.525444","179269.675625","180036.913544","180787.097732","181554.799275","182321.965982","185393.291664","Mapping"
"Blocked","Male","ball","2","M_ball.wav","None","739.356779547","419","176201.623856","183089.090023","183855.907285","184623.18757","185390.383122","186157.686243","186924.835824","173064.922683","176968.673981","177735.704576","178502.525444","179269.675625","180036.913544","180787.097732","181554.799275","182321.965982","186160.530785","Mapping"
"Blocked","Male","ball","2","M_gnash.wav","space","724.873863024","419","176201.623856","183089.090023","183855.907285","184623.18757","185390.383122","186157.686243","186924.835824","187692.465554","176968.673981","177735.704576","178502.525444","179269.675625","180036.913544","180787.097732","181554.799275","182321.965982","186928.405698","Mapping"
"Blocked","Male","cave","12","M_depth.wav","None","736.641138802","419","190828.381901","183089.090023","183855.907285","184623.18757","185390.383122","186157.686243","186924.835824","187692.465554","176968.673981","177735.704576","178502.525444","179269.675625","180036.913544","180787.097732","181554.799275","182321.965982","187696.015598","Mapping"
"Blocked","Male","cave","12","M_jaw.wav","None","728.358404484","419","190828.381901","183089.090023","183855.907285","184623.18757","185390.383122","186157.686243","186924.835824","187692.465554","191595.183238","177735.704576","178502.525444","179269.675625","180036.913544","180787.097732","181554.799275","182321.965982","190832.40278","Mapping"
"Blocked","Male","cave","12","M_jaw.wav","None","729.477652302","419","190828.381901","183089.090023","183855.907285","184623.18757","185390.383122","186157.686243","186924.835824","187692.465554","191595.183238","192362.431373","178502.525444","179269.675625","180036.913544","180787.097732","181554.799275","182321.965982","191598.488099","Mapping"
"Blocked","Male","cave","12","M_cave.wav","None","728.725577862","419","190828.381901","183089.090023","183855.907285","184623.18757","185390.383122","186157.686243","186924.835824","187692.465554","191595.183238","192362.431373","193129.637742","179269.675625","180036.913544","180787.097732","181554.799275","182321.965982","192365.893079","Mapping"
"Blocked","Male","cave","12","M_depth.wav","space","465.758528518","419","190828.381901","183089.090023","183855.907285","184623.18757","185390.383122","186157.686243","186924.835824","187692.465554","191595.183238","192362.431373","193129.637742","193896.87506","180036.913544","180787.097732","181554.799275","182321.965982","193132.54358","Mapping"
"Blocked","Male","cave","12","M_reek.wav","None","727.487945175","419","190828.381901","183089.090023","183855.907285","184623.18757","185390.383122","186157.686243","186924.835824","187692.465554","191595.183238","192362.431373","193129.637742","193896.87506","194664.089843","180787.097732","181554.799275","182321.965982","193899.704278","Mapping"
"Blocked","Male","cave","12","M_cave.wav","None","727.345522768","419","190828.381901","183089.090023","183855.907285","184623.18757","185390.383122","186157.686243","186924.835824","187692.465554","191595.183238","192362.431373","193129.637742","193896.87506","194664.089843","195432.021845","181554.799275","182321.965982","194666.788357","Mapping"
"Blocked","Male","cave","12","M_lash.wav","space","504.914774913","419","190828.381901","183089.090023","183855.907285","184623.18757","185390.383122","186157.686243","186924.835824","187692.465554","191595.183238","192362.431373","193129.637742","193896.87506","194664.089843","195432.021845","196181.528475","182321.965982","195435.265711","Mapping"
"Blocked","Male","cave","12","M_jolt.wav","None","742.570598246","419","190828.381901","183089.090023","183855.907285","184623.18757","185390.383122","186157.686243","186924.835824","187692.465554","191595.183238","192362.431373","193129.637742","193896.87506","194664.089843","195432.021845","196181.528475","196966.241082","196184.540378","Mapping"
"Blocked","Male","cave","12","M_priest.wav","None","724.587816334","419","190828.381901","197715.959542","183855.907285","184623.18757","185390.383122","186157.686243","186924.835824","187692.465554","191595.183238","192362.431373","193129.637742","193896.87506","194664.089843","195432.021845","196181.528475","196966.241082","196969.99845","Mapping"
"Blocked","Male","cave","12","M_cave.wav","None","742.581114669","419","190828.381901","197715.959542","198483.120241","184623.18757","185390.383122","186157.686243","186924.835824","187692.465554","191595.183238","192362.431373","193129.637742","193896.87506","194664.089843","195432.021845","196181.528475","196966.241082","197719.109662","Mapping"
"Blocked","Male","cave","12","M_jaw.wav","space","463.296483789","419","190828.381901","197715.959542","198483.120241","199250.464525","185390.383122","186157.686243","186924.835824","187692.465554","191595.183238","192362.431373","193129.637742","193896.87506","194664.089843","195432.021845","196181.528475","196966.241082","198485.951862","Mapping"
"Blocked","Male","cave","12","M_cave.wav","None","741.756627149","419","190828.381901","197715.959542","198483.120241","199250.464525","200017.651965","186157.686243","186924.835824","187692.465554","191595.183238","192362.431373","193129.637742","193896.87506","194664.089843","195432.021845","196181.528475","196966.241082","199253.185575","Mapping"
"Blocked","Male","cave","12","M_jaw.wav","space","632.408969847","419","190828.381901","197715.959542","198483.120241","199250.464525","200017.651965","200785.378747","186924.835824","187692.465554","191595.183238","192362.431373","193129.637742","193896.87506","194664.089843","195432.021845","196181.528475","196966.241082","200020.754009","Mapping"
"Blocked","Male","cave","12","M_priest.wav","None","739.190620072","419","190828.381901","197715.959542","198483.120241","199250.464525","200017.651965","200785.378747","201552.5743","187692.465554","191595.183238","192362.431373","193129.637742","193896.87506","194664.089843","195432.021845","196181.528475","196966.241082","200788.450444","Mapping"
"Blocked","Male","cave","12","M_reek.wav","None","739.082451156","419","190828.381901","197715.959542","198483.120241","199250.464525","200017.651965","200785.378747","201552.5743","202319.769252","191595.183238","192362.431373","193129.637742","193896.87506","194664.089843","195432.021845","196181.528475","196966.241082","201555.886072","Mapping"
"Blocked","Male","done","20","M_cad.wav","None","738.696949156","419","205455.85326","197715.959542","198483.120241","199250.464525","200017.651965","200785.378747","201552.5743","202319.769252","191595.183238","192362.431373","193129.637742","193896.87506","194664.089843","195432.021845","196181.528475","196966.241082","202323.151634","Mapping"
"Blocked","Male","done","20","M_knife.wav","None","727.645991981","419","205455.85326","197715.959542","198483.120241","199250.464525","200017.651965","200785.378747","201552.5743","202319.769252","206222.50286","192362.431373","193129.637742","193896.87506","194664.089843","195432.021845","196181.528475","196966.241082","205459.4006","Mapping"
"Blocked","Male","done","20","M_done.wav","None","728.674197627","419","205455.85326","197715.959542","198483.120241","199250.464525","200017.651965","200785.378747","201552.5743","202319.769252","206222.50286","206989.73507","193129.637742","193896.87506","194664.089843","195432.021845","196181.528475","196966.241082","206225.502445","Mapping"
"Blocked","Male","done","20","M_gnash.wav","space","693.736538979","419","205455.85326","197715.959542","198483.120241","199250.464525","200017.651965","200785.378747","201552.5743","202319.769252","206222.50286","206989.73507","207756.988914","193896.87506","194664.089843","195432.021845","196181.528475","196966.241082","206992.502993","Mapping"
"Blocked","Male","done","20","M_done.wav","None","726.855157013","419","205455.85326","197715.959542","198483.120241","199250.464525","200017.651965","200785.378747","201552.5743","202319.769252","206222.50286","206989.73507","207756.988914","208524.107246","194664.089843","195432.021845","196181.528475","196966.241082","207760.350563","Mapping"
"Blocked","Male","done","20","M_gnash.wav","space","634.916986366","419","205455.85326","197715.959542","198483.120241","199250.464525","200017.651965","200785.378747","201552.5743","202319.769252","206222.50286","206989.73507","207756.988914","208524.107246","209274.466307","195432.021845","196181.528475","196966.241082","208527.29883","Mapping"
"Blocked","Male","done","20","M_cling.wav","None","741.766542633","419","205455.85326","197715.959542","198483.120241","199250.464525","200017.651965","200785.378747","201552.5743","202319.769252","206222.50286","206989.73507","207756.988914","208524.107246","209274.466307","210059.045205","196181.528475","196966.241082","209278.02236","Mapping"
"Blocked","Male","done","20","M_jolt.wav","None","724.087535095","419","205455.85326","197715.959542","198483.120241","199250.464525","200017.651965","200785.378747","201552.5743","202319.769252","206222.50286","206989.73507","207756.988914","208524.107246","209274.466307","210059.045205","210825.725152","196966.241082","210063.186272","Mapping"
"Blocked","Male","done","20","M_bluff.wav","None","726.021955886","419","205455.85326","197715.959542","198483.120241","199250.464525","200017.651965","200785.378747","201552.5743","202319.769252","206222.50286","206989.73507","207756.988914","208524.107246","209274.466307","210059.045205","210825.725152","211593.018357","210828.621375","Mapping"
"Blocked","Male","done","20","M_park.wav","None","726.370500173","419","205455.85326","212360.158624","198483.120241","199250.464525","200017.651965","200785.378747","201552.5743","202319.769252","206222.50286","206989.73507","207756.988914","208524.107246","209274.466307","210059.045205","210825.725152","211593.018357","211595.729191","Mapping"
"Blocked","Male","done","20","M_priest.wav","None","726.156866563","419","205455.85326","212360.158624","213128.094232","199250.464525","200017.651965","200785.378747","201552.5743","202319.769252","206222.50286","206989.73507","207756.988914","208524.107246","209274.466307","210059.045205","210825.725152","211593.018357","212363.174734","Mapping"
"Blocked","Male","done","20","M_done.wav","None","725.21128995","419","205455.85326","212360.158624","213128.094232","213895.377221","200017.651965","200785.378747","201552.5743","202319.769252","206222.50286","206989.73507","207756.988914","208524.107246","209274.466307","210059.045205","210825.725152","211593.018357","213131.543318","Mapping"
"Blocked","Male","done","20","M_lash.wav","space","591.752180205","419","205455.85326","212360.158624","213128.094232","213895.377221","214644.833372","200785.378747","201552.5743","202319.769252","206222.50286","206989.73507","207756.988914","208524.107246","209274.466307","210059.045205","210825.725152","211593.018357","213899.475321","Mapping"
"Blocked","Male","done","20","M_done.wav","None","742.816983","419","205455.85326","212360.158624","213128.094232","213895.377221","214644.833372","215412.11606","201552.5743","202319.769252","206222.50286","206989.73507","207756.988914","208524.107246","209274.466307","210059.045205","210825.725152","211593.018357","214647.628336","Mapping"
"Blocked","Male","done","20","M_romp.wav","None","742.984344352","419","205455.85326","212360.158624","213128.094232","213895.377221","214644.833372","215412.11606","216179.285172","202319.769252","206222.50286","206989.73507","207756.988914","208524.107246","209274.466307","210059.045205","210825.725152","211593.018357","215414.964509","Mapping"
"Blocked","Male","done","20","M_cling.wav","space","97.4262408176","419","205455.85326","212360.158624","213128.094232","213895.377221","214644.833372","215412.11606","216179.285172","216946.595804","206222.50286","206989.73507","207756.988914","208524.107246","209274.466307","210059.045205","210825.725152","211593.018357","216181.810916","Mapping"
"Blocked","Male","cave","10","M_park.wav","None","741.50062738","419","220083.12631","212360.158624","213128.094232","213895.377221","214644.833372","215412.11606","216179.285172","216946.595804","206222.50286","206989.73507","207756.988914","208524.107246","209274.466307","210059.045205","210825.725152","211593.018357","216949.416008","Mapping"
"Blocked","Male","cave","10","M_bluff.wav","space","0.0486760125204","419","220083.12631","212360.158624","213128.094232","213895.377221","214644.833372","215412.11606","216179.285172","216946.595804","220850.232323","206989.73507","207756.988914","208524.107246","209274.466307","210059.045205","210825.725152","211593.018357","220086.43087","Mapping"
"Blocked","Male","cave","10","M_gnash.wav","None","727.317579132","419","220083.12631","212360.158624","213128.094232","213895.377221","214644.833372","215412.11606","216179.285172","216946.595804","220850.232323","221617.664645","207756.988914","208524.107246","209274.466307","210059.045205","210825.725152","211593.018357","220853.825634","Mapping"
"Blocked","Male","cave","10","M_cling.wav","None","727.502968636","419","220083.12631","212360.158624","213128.094232","213895.377221","214644.833372","215412.11606","216179.285172","216946.595804","220850.232323","221617.664645","222383.963297","208524.107246","209274.466307","210059.045205","210825.725152","211593.018357","221621.193055","Mapping"
"Blocked","Male","cave","10","M_cave.wav","None","729.453013827","419","220083.12631","212360.158624","213128.094232","213895.377221","214644.833372","215412.11606","216179.285172","216946.595804","220850.232323","221617.664645","222383.963297","223151.500483","209274.466307","210059.045205","210825.725152","211593.018357","222386.818956","Mapping"
"Blocked","Male","cave","10","M_depth.wav","space","410.425019711","419","220083.12631","212360.158624","213128.094232","213895.377221","214644.833372","215412.11606","216179.285172","216946.595804","220850.232323","221617.664645","222383.963297","223151.500483","223918.646158","210059.045205","210825.725152","211593.018357","223154.796029","Mapping"
"Blocked","Male","cave","10","M_gnash.wav","None","728.713859563","419","220083.12631","212360.158624","213128.094232","213895.377221","214644.833372","215412.11606","216179.285172","216946.595804","220850.232323","221617.664645","222383.963297","223151.500483","223918.646158","224685.878668","210825.725152","211593.018357","223921.487395","Mapping"
"Blocked","Male","cave","10","M_jolt.wav","None","728.840357101","419","220083.12631","212360.158624","213128.094232","213895.377221","214644.833372","215412.11606","216179.285172","216946.595804","220850.232323","221617.664645","222383.963297","223151.500483","223918.646158","224685.878668","225453.064606","211593.018357","224688.996637","Mapping"
"Blocked","Male","cave","10","M_cling.wav","None","728.297108765","419","220083.12631","212360.158624","213128.094232","213895.377221","214644.833372","215412.11606","216179.285172","216946.595804","220850.232323","221617.664645","222383.963297","223151.500483","223918.646158","224685.878668","225453.064606","226220.097905","225456.440978","Mapping"
"Blocked","Male","cave","10","M_cave.wav","None","728.615005192","419","220083.12631","226987.555767","213128.094232","213895.377221","214644.833372","215412.11606","216179.285172","216946.595804","220850.232323","221617.664645","222383.963297","223151.500483","223918.646158","224685.878668","225453.064606","226220.097905","226223.343874","Mapping"
"Blocked","Male","cave","10","M_romp.wav","None","728.340075862","419","220083.12631","226987.555767","227754.832747","213895.377221","214644.833372","215412.11606","216179.285172","216946.595804","220850.232323","221617.664645","222383.963297","223151.500483","223918.646158","224685.878668","225453.064606","226220.097905","226990.516591","Mapping"
"Blocked","Male","cave","10","M_cave.wav","space","115.562562498","419","220083.12631","226987.555767","227754.832747","228521.955285","214644.833372","215412.11606","216179.285172","216946.595804","220850.232323","221617.664645","222383.963297","223151.500483","223918.646158","224685.878668","225453.064606","226220.097905","227757.648744","Mapping"
"Blocked","Male","cave","10","M_park.wav","space","584.291229183","419","220083.12631","226987.555767","227754.832747","228521.955285","229289.309786","215412.11606","216179.285172","216946.595804","220850.232323","221617.664645","222383.963297","223151.500483","223918.646158","224685.878668","225453.064606","226220.097905","228524.855414","Mapping"
"Blocked","Male","cave","10","M_jolt.wav","None","725.018689185","419","220083.12631","226987.555767","227754.832747","228521.955285","229289.309786","230057.093057","216179.285172","216946.595804","220850.232323","221617.664645","222383.963297","223151.500483","223918.646158","224685.878668","225453.064606","226220.097905","229293.385952","Mapping"
"Blocked","Male","cave","10","M_cave.wav","None","725.362726434","419","220083.12631","226987.555767","227754.832747","228521.955285","229289.309786","230057.093057","230823.57199","216946.595804","220850.232323","221617.664645","222383.963297","223151.500483","223918.646158","224685.878668","225453.064606","226220.097905","230060.429767","Mapping"
"Blocked","Male","cave","10","M_gnash.wav","space","605.755247394","419","220083.12631","226987.555767","227754.832747","228521.955285","229289.309786","230057.093057","230823.57199","231573.768497","220850.232323","221617.664645","222383.963297","223151.500483","223918.646158","224685.878668","225453.064606","226220.097905","230826.460701","Mapping"
"Blocked","Male","done","23","M_bluff.wav","None","742.704307046","419","234710.184524","226987.555767","227754.832747","228521.955285","229289.309786","230057.093057","230823.57199","231573.768497","220850.232323","221617.664645","222383.963297","223151.500483","223918.646158","224685.878668","225453.064606","226220.097905","231576.769283","Mapping"
"Blocked","Male","done","23","M_priest.wav","space","0.0489764816011","419","234710.184524","226987.555767","227754.832747","228521.955285","229289.309786","230057.093057","230823.57199","231573.768497","235476.895119","221617.664645","222383.963297","223151.500483","223918.646158","224685.878668","225453.064606","226220.097905","234714.097535","Mapping"
"Blocked","Male","done","23","M_done.wav","None","728.572639033","419","234710.184524","226987.555767","227754.832747","228521.955285","229289.309786","230057.093057","230823.57199","231573.768497","235476.895119","236244.052512","222383.963297","223151.500483","223918.646158","224685.878668","225453.064606","226220.097905","235479.675662","Mapping"
"Blocked","Male","done","23","M_park.wav","None","728.486404369","419","234710.184524","226987.555767","227754.832747","228521.955285","229289.309786","230057.093057","230823.57199","231573.768497","235476.895119","236244.052512","237011.397699","223151.500483","223918.646158","224685.878668","225453.064606","226220.097905","236247.213749","Mapping"
"Blocked","Male","done","23","M_jolt.wav","None","728.544394927","419","234710.184524","226987.555767","227754.832747","228521.955285","229289.309786","230057.093057","230823.57199","231573.768497","235476.895119","236244.052512","237011.397699","237778.596857","223918.646158","224685.878668","225453.064606","226220.097905","237014.527386","Mapping"
"Blocked","Male","done","23","M_bluff.wav","None","729.289859044","419","234710.184524","226987.555767","227754.832747","228521.955285","229289.309786","230057.093057","230823.57199","231573.768497","235476.895119","236244.052512","237011.397699","237778.596857","238545.835977","224685.878668","225453.064606","226220.097905","237781.451915","Mapping"
"Blocked","Male","done","23","M_bluff.wav","None","729.288957636","419","234710.184524","226987.555767","227754.832747","228521.955285","229289.309786","230057.093057","230823.57199","231573.768497","235476.895119","236244.052512","237011.397699","237778.596857","238545.835977","239313.01861","225453.064606","226220.097905","238548.499938","Mapping"
"Blocked","Male","done","23","M_cad.wav","None","729.591830603","419","234710.184524","226987.555767","227754.832747","228521.955285","229289.309786","230057.093057","230823.57199","231573.768497","235476.895119","236244.052512","237011.397699","237778.596857","238545.835977","239313.01861","240080.355082","226220.097905","239315.943978","Mapping"
"Blocked","Male","done","23","M_done.wav","None","729.808168436","419","234710.184524","226987.555767","227754.832747","228521.955285","229289.309786","230057.093057","230823.57199","231573.768497","235476.895119","236244.052512","237011.397699","237778.596857","238545.835977","239313.01861","240080.355082","240847.347217","240083.027456","Mapping"
"Blocked","Male","done","23","M_lash.wav","space","530.81852621","419","234710.184524","241614.806582","227754.832747","228521.955285","229289.309786","230057.093057","230823.57199","231573.768497","235476.895119","236244.052512","237011.397699","237778.596857","238545.835977","239313.01861","240080.355082","240847.347217","240850.414407","Mapping"
"Blocked","Male","done","23","M_jolt.wav","None","727.604226761","419","234710.184524","241614.806582","242382.015055","228521.955285","229289.309786","230057.093057","230823.57199","231573.768497","235476.895119","236244.052512","237011.397699","237778.596857","238545.835977","239313.01861","240080.355082","240847.347217","241617.60365","Mapping"
"Blocked","Male","done","23","M_done.wav","None","727.576283124","419","234710.184524","241614.806582","242382.015055","243149.112053","229289.309786","230057.093057","230823.57199","231573.768497","235476.895119","236244.052512","237011.397699","237778.596857","238545.835977","239313.01861","240080.355082","240847.347217","242384.95124","Mapping"
"Blocked","Male","done","23","M_depth.wav","space","629.312033672","419","234710.184524","241614.806582","242382.015055","243149.112053","243916.504113","230057.093057","230823.57199","231573.768497","235476.895119","236244.052512","237011.397699","237778.596857","238545.835977","239313.01861","240080.355082","240847.347217","243151.8953","Mapping"
"Blocked","Male","done","23","M_done.wav","None","725.448961098","419","234710.184524","241614.806582","242382.015055","243149.112053","243916.504113","244683.570764","230823.57199","231573.768497","235476.895119","236244.052512","237011.397699","237778.596857","238545.835977","239313.01861","240080.355082","240847.347217","243919.870269","Mapping"
"Blocked","Male","done","23","M_gnash.wav","space","590.132651148","419","234710.184524","241614.806582","242382.015055","243149.112053","243916.504113","244683.570764","245433.815046","231573.768497","235476.895119","236244.052512","237011.397699","237778.596857","238545.835977","239313.01861","240080.355082","240847.347217","244687.018949","Mapping"
"Blocked","Male","done","23","M_depth.wav","None","742.149640879","419","234710.184524","241614.806582","242382.015055","243149.112053","243916.504113","244683.570764","245433.815046","246201.003687","235476.895119","236244.052512","237011.397699","237778.596857","238545.835977","239313.01861","240080.355082","240847.347217","245436.615419","Mapping"
"Blocked","Male","tile","15","M_greet.wav","None","742.109678474","419","249337.584672","241614.806582","242382.015055","243149.112053","243916.504113","244683.570764","245433.815046","246201.003687","235476.895119","236244.052512","237011.397699","237778.596857","238545.835977","239313.01861","240080.355082","240847.347217","246204.15621","Mapping"
"Blocked","Male","tile","15","M_jolt.wav","None","728.820826603","419","249337.584672","241614.806582","242382.015055","243149.112053","243916.504113","244683.570764","245433.815046","246201.003687","250104.651624","236244.052512","237011.397699","237778.596857","238545.835977","239313.01861","240080.355082","240847.347217","249340.835749","Mapping"
"Blocked","Male","tile","15","M_knife.wav","None","728.2225924","419","249337.584672","241614.806582","242382.015055","243149.112053","243916.504113","244683.570764","245433.815046","246201.003687","250104.651624","250871.449956","237011.397699","237778.596857","238545.835977","239313.01861","240080.355082","240847.347217","250108.985291","Mapping"
"Blocked","Male","tile","15","M_tile.wav","None","729.800356236","419","249337.584672","241614.806582","242382.015055","243149.112053","243916.504113","244683.570764","245433.815046","246201.003687","250104.651624","250871.449956","251639.109433","237778.596857","238545.835977","239313.01861","240080.355082","240847.347217","250874.799287","Mapping"
"Blocked","Male","tile","15","M_jolt.wav","None","729.394722799","419","249337.584672","241614.806582","242382.015055","243149.112053","243916.504113","244683.570764","245433.815046","246201.003687","250104.651624","250871.449956","251639.109433","252405.797493","238545.835977","239313.01861","240080.355082","240847.347217","251642.480698","Mapping"
"Blocked","Male","tile","15","M_dime.wav","None","730.422327507","419","249337.584672","241614.806582","242382.015055","243149.112053","243916.504113","244683.570764","245433.815046","246201.003687","250104.651624","250871.449956","251639.109433","252405.797493","253172.710905","239313.01861","240080.355082","240847.347217","252408.799181","Mapping"
"Blocked","Male","tile","15","M_park.wav","None","731.354383004","419","249337.584672","241614.806582","242382.015055","243149.112053","243916.504113","244683.570764","245433.815046","246201.003687","250104.651624","250871.449956","251639.109433","252405.797493","253172.710905","253940.022139","240080.355082","240847.347217","253175.543729","Mapping"
"Blocked","Male","tile","15","M_tile.wav","None","731.623903888","419","249337.584672","241614.806582","242382.015055","243149.112053","243916.504113","244683.570764","245433.815046","246201.003687","250104.651624","250871.449956","251639.109433","252405.797493","253172.710905","253940.022139","254707.27478","240847.347217","253942.782549","Mapping"
"Blocked","Male","tile","15","M_depth.wav","space","395.186122649","419","249337.584672","241614.806582","242382.015055","243149.112053","243916.504113","244683.570764","245433.815046","246201.003687","250104.651624","250871.449956","251639.109433","252405.797493","253172.710905","253940.022139","254707.27478","255474.633788","254710.019567","Mapping"
"Blocked","Male","tile","15","M_tile.wav","None","730.686740414","419","249337.584672","256241.672496","242382.015055","243149.112053","243916.504113","244683.570764","245433.815046","246201.003687","250104.651624","250871.449956","251639.109433","252405.797493","253172.710905","253940.022139","254707.27478","255474.633788","255477.380077","Mapping"
"Blocked","Male","tile","15","M_knife.wav","space","526.233366024","419","249337.584672","256241.672496","257009.730395","243149.112053","243916.504113","244683.570764","245433.815046","246201.003687","250104.651624","250871.449956","251639.109433","252405.797493","253172.710905","253940.022139","254707.27478","255474.633788","256244.925075","Mapping"
"Blocked","Male","tile","15","M_jaw.wav","None","728.884526076","419","249337.584672","256241.672496","257009.730395","257776.937966","243916.504113","244683.570764","245433.815046","246201.003687","250104.651624","250871.449956","251639.109433","252405.797493","253172.710905","253940.022139","254707.27478","255474.633788","257013.164458","Mapping"
"Blocked","Male","tile","15","M_tile.wav","None","728.385747183","419","249337.584672","256241.672496","257009.730395","257776.937966","258543.58967","244683.570764","245433.815046","246201.003687","250104.651624","250871.449956","251639.109433","252405.797493","253172.710905","253940.022139","254707.27478","255474.633788","257780.862996","Mapping"
"Blocked","Male","tile","15","M_jaw.wav","space","554.399950963","419","249337.584672","256241.672496","257009.730395","257776.937966","258543.58967","259310.855232","245433.815046","246201.003687","250104.651624","250871.449956","251639.109433","252405.797493","253172.710905","253940.022139","254707.27478","255474.633788","258546.829629","Mapping"
"Blocked","Male","tile","15","M_romp.wav","None","728.490610938","419","249337.584672","256241.672496","257009.730395","257776.937966","258543.58967","259310.855232","260078.102765","246201.003687","250104.651624","250871.449956","251639.109433","252405.797493","253172.710905","253940.022139","254707.27478","255474.633788","259313.763173","Mapping"
"Blocked","Male","tile","15","M_bluff.wav","None","728.925389889","419","249337.584672","256241.672496","257009.730395","257776.937966","258543.58967","259310.855232","260078.102765","260845.207576","250104.651624","250871.449956","251639.109433","252405.797493","253172.710905","253940.022139","254707.27478","255474.633788","260080.779345","Mapping"
"Blocked","Male","tile","17","M_depth.wav","None","729.312995173","419","263981.661763","256241.672496","257009.730395","257776.937966","258543.58967","259310.855232","260078.102765","260845.207576","250104.651624","250871.449956","251639.109433","252405.797493","253172.710905","253940.022139","254707.27478","255474.633788","260848.090578","Mapping"
"Blocked","Male","tile","17","M_tile.wav","None","728.276676859","419","263981.661763","256241.672496","257009.730395","257776.937966","258543.58967","259310.855232","260078.102765","260845.207576","264748.04695","250871.449956","251639.109433","252405.797493","253172.710905","253940.022139","254707.27478","255474.633788","263984.871676","Mapping"
"Blocked","Male","tile","17","M_gnash.wav","None","729.851135533","419","263981.661763","256241.672496","257009.730395","257776.937966","258543.58967","259310.855232","260078.102765","260845.207576","264748.04695","265515.442615","251639.109433","252405.797493","253172.710905","253940.022139","254707.27478","255474.633788","264750.892995","Mapping"
"Blocked","Male","tile","17","M_cad.wav","None","730.208092958","419","263981.661763","256241.672496","257009.730395","257776.937966","258543.58967","259310.855232","260078.102765","260845.207576","264748.04695","265515.442615","266282.606919","252405.797493","253172.710905","253940.022139","254707.27478","255474.633788","265518.302481","Mapping"
"Blocked","Male","tile","17","M_lash.wav","None","730.271491962","419","263981.661763","256241.672496","257009.730395","257776.937966","258543.58967","259310.855232","260078.102765","260845.207576","264748.04695","265515.442615","266282.606919","267049.784744","253172.710905","253940.022139","254707.27478","255474.633788","266285.469189","Mapping"
"Blocked","Male","tile","17","M_jaw.wav","None","730.103529672","419","263981.661763","256241.672496","257009.730395","257776.937966","258543.58967","259310.855232","260078.102765","260845.207576","264748.04695","265515.442615","266282.606919","267049.784744","267816.690344","253940.022139","254707.27478","255474.633788","267052.928854","Mapping"
"Blocked","Male","tile","17","M_dime.wav","None","731.306007461","419","263981.661763","256241.672496","257009.730395","257776.937966","258543.58967","259310.855232","260078.102765","260845.207576","264748.04695","265515.442615","266282.606919","267049.784744","267816.690344","268583.822798","254707.27478","255474.633788","267819.540595","Mapping"
"Blocked","Male","tile","17","M_jaw.wav","None","732.242569997","419","263981.661763","256241.672496","257009.730395","257776.937966","258543.58967","259310.855232","260078.102765","260845.207576","264748.04695","265515.442615","266282.606919","267049.784744","267816.690344","268583.822798","269351.125918","255474.633788","268586.419753","Mapping"
"Blocked","Male","tile","17","M_tile.wav","None","732.627471059","419","263981.661763","256241.672496","257009.730395","257776.937966","258543.58967","259310.855232","260078.102765","260845.207576","264748.04695","265515.442615","266282.606919","267049.784744","267816.690344","268583.822798","269351.125918","270118.847592","269353.693127","Mapping"
"Blocked","Male","tile","17","M_dime.wav","space","524.417029633","419","263981.661763","270885.946093","257009.730395","257776.937966","258543.58967","259310.855232","260078.102765","260845.207576","264748.04695","265515.442615","266282.606919","267049.784744","267816.690344","268583.822798","269351.125918","270118.847592","270121.780773","Mapping"
"Blocked","Male","tile","17","M_tile.wav","None","730.390177301","419","263981.661763","270885.946093","271652.737815","257776.937966","258543.58967","259310.855232","260078.102765","260845.207576","264748.04695","265515.442615","266282.606919","267049.784744","267816.690344","268583.822798","269351.125918","270118.847592","270889.804118","Mapping"
"Blocked","Male","tile","17","M_knife.wav","space","524.062776432","419","263981.661763","270885.946093","271652.737815","272420.398194","258543.58967","259310.855232","260078.102765","260845.207576","264748.04695","265515.442615","266282.606919","267049.784744","267816.690344","268583.822798","269351.125918","270118.847592","271656.11569","Mapping"
"Blocked","Male","tile","17","M_greet.wav","None","730.112543748","419","263981.661763","270885.946093","271652.737815","272420.398194","273187.215155","259310.855232","260078.102765","260845.207576","264748.04695","265515.442615","266282.606919","267049.784744","267816.690344","268583.822798","269351.125918","270118.847592","272423.793496","Mapping"
"Blocked","Male","tile","17","M_jolt.wav","None","731.531960309","419","263981.661763","270885.946093","271652.737815","272420.398194","273187.215155","273954.516172","260078.102765","260845.207576","264748.04695","265515.442615","266282.606919","267049.784744","267816.690344","268583.822798","269351.125918","270118.847592","273189.894439","Mapping"
