Condition,Talker,Target,Trial,current_stimulus,response_response,response_time_response,subject_nr,time_Audio1,time_Audio10,time_Audio11,time_Audio12,time_Audio13,time_Audio14,time_Audio15,time_Audio16,time_Audio2,time_Audio3,time_Audio4,time_Audio5,time_Audio6,time_Audio7,time_Audio8,time_Audio9,time_response
Mixed,both,tile,30,F_lash.wav,NA,NA,3321,121821.1396,NA,NA,NA,NA,NA,NA,NA,NA,NA,NA,NA,NA,NA,NA,NA,NA
Mixed,both,tile,30,F_tile.wav,space,0.03431784,3321,121821.1396,NA,NA,NA,NA,NA,NA,NA,122570.5271,NA,NA,NA,NA,NA,NA,NA,121834.8942
Mixed,both,tile,30,F_jolt.wav,None,735.9371174,3321,121821.1396,NA,NA,NA,NA,NA,NA,NA,122570.5271,123337.1348,NA,NA,NA,NA,NA,NA,122580.1002
Mixed,both,tile,30,M_dime.wav,None,733.5404357,3321,121821.1396,NA,NA,NA,NA,NA,NA,NA,122570.5271,123337.1348,124103.8658,NA,NA,NA,NA,NA,123346.6504
Mixed,both,tile,30,F_jaw.wav,None,731.067389,3321,121821.1396,NA,NA,NA,NA,NA,NA,NA,122570.5271,123337.1348,124103.8658,124870.3631,NA,NA,NA,NA,124113.3255
Mixed,both,tile,30,F_lash.wav,None,728.859919,3321,121821.1396,NA,NA,NA,NA,NA,NA,NA,122570.5271,123337.1348,124103.8658,124870.3631,125637.0972,NA,NA,NA,124879.5095
Mixed,both,tile,30,M_tile.wav,None,726.741799,3321,121821.1396,NA,NA,NA,NA,NA,NA,NA,122570.5271,123337.1348,124103.8658,124870.3631,125637.0972,126404.1871,NA,NA,125646.4888
Mixed,both,tile,30,M_park.wav,space,501.1649507,3321,121821.1396,NA,NA,NA,NA,NA,NA,NA,122570.5271,123337.1348,124103.8658,124870.3631,125637.0972,126404.1871,127170.8198,NA,126414.3236
Mixed,both,tile,30,F_park.wav,None,720.0417874,3321,121821.1396,NA,NA,NA,NA,NA,NA,NA,122570.5271,123337.1348,124103.8658,124870.3631,125637.0972,126404.1871,127170.8198,127920.264,127181.3934
Mixed,both,tile,30,F_cling.wav,None,736.4698164,3321,121821.1396,128687.2473,NA,NA,NA,NA,NA,NA,122570.5271,123337.1348,124103.8658,124870.3631,125637.0972,126404.1871,127170.8198,127920.264,127929.1789
Mixed,both,tile,30,M_tile.wav,None,733.3104135,3321,121821.1396,128687.2473,129453.909,NA,NA,NA,NA,NA,122570.5271,123337.1348,124103.8658,124870.3631,125637.0972,126404.1871,127170.8198,127920.264,128696.6553
Mixed,both,tile,30,M_jaw.wav,space,660.6657903,3321,121821.1396,128687.2473,129453.909,130220.6125,NA,NA,NA,NA,122570.5271,123337.1348,124103.8658,124870.3631,125637.0972,126404.1871,127170.8198,127920.264,129462.7367
Mixed,both,tile,30,M_bluff.wav,None,727.9673468,3321,121821.1396,128687.2473,129453.909,130220.6125,130987.401,NA,NA,NA,122570.5271,123337.1348,124103.8658,124870.3631,125637.0972,126404.1871,127170.8198,127920.264,130230.3619
Mixed,both,tile,30,F_tile.wav,None,726.2888658,3321,121821.1396,128687.2473,129453.909,130220.6125,130987.401,131754.4078,NA,NA,122570.5271,123337.1348,124103.8658,124870.3631,125637.0972,126404.1871,127170.8198,127920.264,130996.3802
Mixed,both,tile,30,M_jaw.wav,space,431.0029581,3321,121821.1396,128687.2473,129453.909,130220.6125,130987.401,131754.4078,132520.7598,NA,122570.5271,123337.1348,124103.8658,124870.3631,125637.0972,126404.1871,127170.8198,127920.264,131764.3399
Mixed,both,tile,30,M_knife.wav,None,720.4399976,3321,121821.1396,128687.2473,129453.909,130220.6125,130987.401,131754.4078,132520.7598,133270.4346,122570.5271,123337.1348,124103.8658,124870.3631,125637.0972,126404.1871,127170.8198,127920.264,132530.5404
Mixed,both,cave,13,M_romp.wav,None,735.3895783,3321,137220.747,128687.2473,129453.909,130220.6125,130987.401,131754.4078,132520.7598,133270.4346,122570.5271,123337.1348,124103.8658,124870.3631,125637.0972,126404.1871,127170.8198,127920.264,133279.6475
Mixed,both,cave,13,M_cling.wav,None,726.1497393,3321,137220.747,128687.2473,129453.909,130220.6125,130987.401,131754.4078,132520.7598,133270.4346,137970.6762,123337.1348,124103.8658,124870.3631,125637.0972,126404.1871,127170.8198,127920.264,137225.4359
Mixed,both,cave,13,F_cave.wav,None,736.1671395,3321,137220.747,128687.2473,129453.909,130220.6125,130987.401,131754.4078,132520.7598,133270.4346,137970.6762,138737.1556,124103.8658,124870.3631,125637.0972,126404.1871,127170.8198,127920.264,137979.704
Mixed,both,cave,13,M_lash.wav,space,616.8611136,3321,137220.747,128687.2473,129453.909,130220.6125,130987.401,131754.4078,132520.7598,133270.4346,137970.6762,138737.1556,139504.2842,124870.3631,125637.0972,126404.1871,127170.8198,127920.264,138746.2244
Mixed,both,cave,13,F_cling.wav,None,730.7390511,3321,137220.747,128687.2473,129453.909,130220.6125,130987.401,131754.4078,132520.7598,133270.4346,137970.6762,138737.1556,139504.2842,140270.2781,125637.0972,126404.1871,127170.8198,127920.264,139513.298
Mixed,both,cave,13,M_greet.wav,None,728.4369752,3321,137220.747,128687.2473,129453.909,130220.6125,130987.401,131754.4078,132520.7598,133270.4346,137970.6762,138737.1556,139504.2842,140270.2781,141037.053,126404.1871,127170.8198,127920.264,140279.9211
Mixed,both,cave,13,F_dime.wav,None,726.5009559,3321,137220.747,128687.2473,129453.909,130220.6125,130987.401,131754.4078,132520.7598,133270.4346,137970.6762,138737.1556,139504.2842,140270.2781,141037.053,141804.2107,127170.8198,127920.264,141046.1769
Mixed,both,cave,13,M_cave.wav,None,723.2654975,3321,137220.747,128687.2473,129453.909,130220.6125,130987.401,131754.4078,132520.7598,133270.4346,137970.6762,138737.1556,139504.2842,140270.2781,141037.053,141804.2107,142570.4248,127920.264,141813.7198
Mixed,both,cave,13,F_reek.wav,equal,439.7617292,3321,137220.747,128687.2473,129453.909,130220.6125,130987.401,131754.4078,132520.7598,133270.4346,137970.6762,138737.1556,139504.2842,140270.2781,141037.053,141804.2107,142570.4248,143320.0495,142579.2383
Mixed,both,cave,13,M_jaw.wav,None,736.3214151,3321,137220.747,144087.106,129453.909,130220.6125,130987.401,131754.4078,132520.7598,133270.4346,137970.6762,138737.1556,139504.2842,140270.2781,141037.053,141804.2107,142570.4248,143320.0495,143328.9974
Mixed,both,cave,13,F_cave.wav,None,732.9539412,3321,137220.747,144087.106,144853.6995,130220.6125,130987.401,131754.4078,132520.7598,133270.4346,137970.6762,138737.1556,139504.2842,140270.2781,141037.053,141804.2107,142570.4248,143320.0495,144096.5444
Mixed,both,cave,13,F_bluff.wav,equal,499.9897974,3321,137220.747,144087.106,144853.6995,145620.1201,130987.401,131754.4078,132520.7598,133270.4346,137970.6762,138737.1556,139504.2842,140270.2781,141037.053,141804.2107,142570.4248,143320.0495,144862.9257
Mixed,both,cave,13,F_reek.wav,None,729.3314025,3321,137220.747,144087.106,144853.6995,145620.1201,146386.6826,131754.4078,132520.7598,133270.4346,137970.6762,138737.1556,139504.2842,140270.2781,141037.053,141804.2107,142570.4248,143320.0495,145629.0204
Mixed,both,cave,13,F_dime.wav,None,726.8571191,3321,137220.747,144087.106,144853.6995,145620.1201,146386.6826,147153.9908,132520.7598,133270.4346,137970.6762,138737.1556,139504.2842,140270.2781,141037.053,141804.2107,142570.4248,143320.0495,146395.6167
Mixed,both,cave,13,M_cave.wav,None,722.8434811,3321,137220.747,144087.106,144853.6995,145620.1201,146386.6826,147153.9908,147920.4594,133270.4346,137970.6762,138737.1556,139504.2842,140270.2781,141037.053,141804.2107,142570.4248,143320.0495,147163.8413
Mixed,both,cave,13,M_reek.wav,equal,456.7935662,3321,137220.747,144087.106,144853.6995,145620.1201,146386.6826,147153.9908,147920.4594,148670.1313,137970.6762,138737.1556,139504.2842,140270.2781,141037.053,141804.2107,142570.4248,143320.0495,147930.0297
Mixed,both,tile,33,F_park.wav,space,0.034627039,3321,151804.0382,144087.106,144853.6995,145620.1201,146386.6826,147153.9908,147920.4594,148670.1313,137970.6762,138737.1556,139504.2842,140270.2781,141037.053,141804.2107,142570.4248,143320.0495,148679.1442
Mixed,both,tile,33,F_gnash.wav,None,720.4433985,3321,151804.0382,144087.106,144853.6995,145620.1201,146386.6826,147153.9908,147920.4594,148670.1313,152553.1435,138737.1556,139504.2842,140270.2781,141037.053,141804.2107,142570.4248,143320.0495,151813.4413
Mixed,both,tile,33,F_tile.wav,None,736.0561476,3321,151804.0382,144087.106,144853.6995,145620.1201,146386.6826,147153.9908,147920.4594,148670.1313,152553.1435,153319.9304,139504.2842,140270.2781,141037.053,141804.2107,142570.4248,143320.0495,152562.1224
Mixed,both,tile,33,M_park.wav,space,705.3413973,3321,151804.0382,144087.106,144853.6995,145620.1201,146386.6826,147153.9908,147920.4594,148670.1313,152553.1435,153319.9304,154086.7693,140270.2781,141037.053,141804.2107,142570.4248,143320.0495,153329.3539
Mixed,both,tile,33,M_jaw.wav,None,730.4948071,3321,151804.0382,144087.106,144853.6995,145620.1201,146386.6826,147153.9908,147920.4594,148670.1313,152553.1435,153319.9304,154086.7693,154853.402,141037.053,141804.2107,142570.4248,143320.0495,154095.8827
Mixed,both,tile,33,F_bluff.wav,None,727.8863443,3321,151804.0382,144087.106,144853.6995,145620.1201,146386.6826,147153.9908,147920.4594,148670.1313,152553.1435,153319.9304,154086.7693,154853.402,155619.9871,141804.2107,142570.4248,143320.0495,154862.7955
Mixed,both,tile,33,M_tile.wav,space,100.7249407,3321,151804.0382,144087.106,144853.6995,145620.1201,146386.6826,147153.9908,147920.4594,148670.1313,152553.1435,153319.9304,154086.7693,154853.402,155619.9871,156386.6297,142570.4248,143320.0495,155629.8938
Mixed,both,tile,33,M_dime.wav,space,542.89139,3321,151804.0382,144087.106,144853.6995,145620.1201,146386.6826,147153.9908,147920.4594,148670.1313,152553.1435,153319.9304,154086.7693,154853.402,155619.9871,156386.6297,157153.3354,143320.0495,156395.7295
Mixed,both,tile,33,F_cad.wav,None,721.296397,3321,151804.0382,144087.106,144853.6995,145620.1201,146386.6826,147153.9908,147920.4594,148670.1313,152553.1435,153319.9304,154086.7693,154853.402,155619.9871,156386.6297,157153.3354,157903.0955,157162.3427
Mixed,both,tile,33,M_bluff.wav,None,735.4872759,3321,151804.0382,158669.7331,144853.6995,145620.1201,146386.6826,147153.9908,147920.4594,148670.1313,152553.1435,153319.9304,154086.7693,154853.402,155619.9871,156386.6297,157153.3354,157903.0955,157912.4175
Mixed,both,tile,33,F_cling.wav,None,733.7228457,3321,151804.0382,158669.7331,159436.367,145620.1201,146386.6826,147153.9908,147920.4594,148670.1313,152553.1435,153319.9304,154086.7693,154853.402,155619.9871,156386.6297,157153.3354,157903.0955,158678.6533
Mixed,both,tile,33,F_tile.wav,None,731.3941813,3321,151804.0382,158669.7331,159436.367,160202.9317,146386.6826,147153.9908,147920.4594,148670.1313,152553.1435,153319.9304,154086.7693,154853.402,155619.9871,156386.6297,157153.3354,157903.0955,159445.294
Mixed,both,tile,33,M_depth.wav,space,470.7714273,3321,151804.0382,158669.7331,159436.367,160202.9317,160969.7481,147153.9908,147920.4594,148670.1313,152553.1435,153319.9304,154086.7693,154853.402,155619.9871,156386.6297,157153.3354,157903.0955,160211.7189
Mixed,both,tile,33,F_jolt.wav,None,726.5652632,3321,151804.0382,158669.7331,159436.367,160202.9317,160969.7481,161736.8965,147920.4594,148670.1313,152553.1435,153319.9304,154086.7693,154853.402,155619.9871,156386.6297,157153.3354,157903.0955,160978.6389
Mixed,both,tile,33,M_tile.wav,None,723.1146228,3321,151804.0382,158669.7331,159436.367,160202.9317,160969.7481,161736.8965,162503.0478,148670.1313,152553.1435,153319.9304,154086.7693,154853.402,155619.9871,156386.6297,157153.3354,157903.0955,161746.4003
Mixed,both,tile,33,M_greet.wav,space,706.4281279,3321,151804.0382,158669.7331,159436.367,160202.9317,160969.7481,161736.8965,162503.0478,163252.6453,152553.1435,153319.9304,154086.7693,154853.402,155619.9871,156386.6297,157153.3354,157903.0955,162511.9828
Mixed,both,done,42,M_cad.wav,None,736.6271837,3321,166386.665,158669.7331,159436.367,160202.9317,160969.7481,161736.8965,162503.0478,163252.6453,152553.1435,153319.9304,154086.7693,154853.402,155619.9871,156386.6297,157153.3354,157903.0955,163261.3372
Mixed,both,done,42,F_greet.wav,None,721.0515349,3321,166386.665,158669.7331,159436.367,160202.9317,160969.7481,161736.8965,162503.0478,163252.6453,167136.6102,153319.9304,154086.7693,154853.402,155619.9871,156386.6297,157153.3354,157903.0955,166396.3843
Mixed,both,done,42,F_done.wav,None,736.2135149,3321,166386.665,158669.7331,159436.367,160202.9317,160969.7481,161736.8965,162503.0478,163252.6453,167136.6102,167902.6731,154086.7693,154853.402,155619.9871,156386.6297,157153.3354,157903.0955,167145.527
Mixed,both,done,42,F_lash.wav,None,734.5545115,3321,166386.665,158669.7331,159436.367,160202.9317,160969.7481,161736.8965,162503.0478,163252.6453,167136.6102,167902.6731,168669.5272,154853.402,155619.9871,156386.6297,157153.3354,157903.0955,167911.508
Mixed,both,done,42,F_bluff.wav,space,171.7615734,3321,166386.665,158669.7331,159436.367,160202.9317,160969.7481,161736.8965,162503.0478,163252.6453,167136.6102,167902.6731,168669.5272,169436.4076,155619.9871,156386.6297,157153.3354,157903.0955,168678.46
Mixed,both,done,42,F_done.wav,None,728.8385864,3321,166386.665,158669.7331,159436.367,160202.9317,160969.7481,161736.8965,162503.0478,163252.6453,167136.6102,167902.6731,168669.5272,169436.4076,170202.9407,156386.6297,157153.3354,157903.0955,169445.4078
Mixed,both,done,42,F_bluff.wav,space,613.6077233,3321,166386.665,158669.7331,159436.367,160202.9317,160969.7481,161736.8965,162503.0478,163252.6453,167136.6102,167902.6731,168669.5272,169436.4076,170202.9407,170969.7577,157153.3354,157903.0955,170212.5416
Mixed,both,done,42,M_depth.wav,None,723.855702,3321,166386.665,158669.7331,159436.367,160202.9317,160969.7481,161736.8965,162503.0478,163252.6453,167136.6102,167902.6731,168669.5272,169436.4076,170202.9407,170969.7577,171736.5075,157903.0955,170979.1376
Mixed,both,done,42,M_romp.wav,None,720.5800514,3321,166386.665,158669.7331,159436.367,160202.9317,160969.7481,161736.8965,162503.0478,163252.6453,167136.6102,167902.6731,168669.5272,169436.4076,170202.9407,170969.7577,171736.5075,172486.476,171746.7917
Mixed,both,done,42,M_romp.wav,None,736.3742831,3321,166386.665,173252.7658,159436.367,160202.9317,160969.7481,161736.8965,162503.0478,163252.6453,167136.6102,167902.6731,168669.5272,169436.4076,170202.9407,170969.7577,171736.5075,172486.476,172495.3541
Mixed,both,done,42,M_done.wav,None,733.8019931,3321,166386.665,173252.7658,174019.3336,160202.9317,160969.7481,161736.8965,162503.0478,163252.6453,167136.6102,167902.6731,168669.5272,169436.4076,170202.9407,170969.7577,171736.5075,172486.476,173262.3541
Mixed,both,done,42,F_park.wav,space,629.5880749,3321,166386.665,173252.7658,174019.3336,174786.0111,160969.7481,161736.8965,162503.0478,163252.6453,167136.6102,167902.6731,168669.5272,169436.4076,170202.9407,170969.7577,171736.5075,172486.476,174028.4915
Mixed,both,done,42,M_bluff.wav,None,729.3051231,3321,166386.665,173252.7658,174019.3336,174786.0111,175552.7895,161736.8965,162503.0478,163252.6453,167136.6102,167902.6731,168669.5272,169436.4076,170202.9407,170969.7577,171736.5075,172486.476,174795.1452
Mixed,both,done,42,M_done.wav,None,726.6703808,3321,166386.665,173252.7658,174019.3336,174786.0111,175552.7895,176319.5022,162503.0478,163252.6453,167136.6102,167902.6731,168669.5272,169436.4076,170202.9407,170969.7577,171736.5075,172486.476,175562.1873
Mixed,both,done,42,M_gnash.wav,space,599.9090424,3321,166386.665,173252.7658,174019.3336,174786.0111,175552.7895,176319.5022,177086.4197,163252.6453,167136.6102,167902.6731,168669.5272,169436.4076,170202.9407,170969.7577,171736.5075,172486.476,176330.1018
Mixed,both,done,42,F_romp.wav,None,720.9937202,3321,166386.665,173252.7658,174019.3336,174786.0111,175552.7895,176319.5022,177086.4197,177836.1362,167136.6102,167902.6731,168669.5272,169436.4076,170202.9407,170969.7577,171736.5075,172486.476,177096.1056
Mixed,both,tile,34,F_depth.wav,escape,60.81889092,3321,184169.3739,173252.7658,174019.3336,174786.0111,175552.7895,176319.5022,177086.4197,177836.1362,167136.6102,167902.6731,168669.5272,169436.4076,170202.9407,170969.7577,171736.5075,172486.476,177845.1818
Mixed,both,tile,34,M_jaw.wav,None,721.0153621,3321,184169.3739,173252.7658,174019.3336,174786.0111,175552.7895,176319.5022,177086.4197,177836.1362,184919.4366,167902.6731,168669.5272,169436.4076,170202.9407,170969.7577,171736.5075,172486.476,184178.9451
Mixed,both,tile,34,M_park.wav,None,736.086137,3321,184169.3739,173252.7658,174019.3336,174786.0111,175552.7895,176319.5022,177086.4197,177836.1362,184919.4366,185685.6547,168669.5272,169436.4076,170202.9407,170969.7577,171736.5075,172486.476,184928.5679
Mixed,both,tile,34,F_knife.wav,None,734.1909283,3321,184169.3739,173252.7658,174019.3336,174786.0111,175552.7895,176319.5022,177086.4197,177836.1362,184919.4366,185685.6547,186452.1316,169436.4076,170202.9407,170969.7577,171736.5075,172486.476,185694.851
Mixed,both,tile,34,M_gnash.wav,None,732.3770309,3321,184169.3739,173252.7658,174019.3336,174786.0111,175552.7895,176319.5022,177086.4197,177836.1362,184919.4366,185685.6547,186452.1316,187218.7411,170202.9407,170969.7577,171736.5075,172486.476,186461.1
Mixed,both,tile,34,M_depth.wav,None,732.8692287,3321,184169.3739,173252.7658,174019.3336,174786.0111,175552.7895,176319.5022,177086.4197,177836.1362,184919.4366,185685.6547,186452.1316,187218.7411,187985.6147,170969.7577,171736.5075,172486.476,187227.3366
Mixed,both,tile,34,M_tile.wav,None,729.8838884,3321,184169.3739,173252.7658,174019.3336,174786.0111,175552.7895,176319.5022,177086.4197,177836.1362,184919.4366,185685.6547,186452.1316,187218.7411,187985.6147,188752.1011,171736.5075,172486.476,187994.728
Mixed,both,tile,34,F_bluff.wav,space,416.6608956,3321,184169.3739,173252.7658,174019.3336,174786.0111,175552.7895,176319.5022,177086.4197,177836.1362,184919.4366,185685.6547,186452.1316,187218.7411,187985.6147,188752.1011,189518.8856,172486.476,188760.9631
Mixed,both,tile,34,M_park.wav,None,725.7394716,3321,184169.3739,173252.7658,174019.3336,174786.0111,175552.7895,176319.5022,177086.4197,177836.1362,184919.4366,185685.6547,186452.1316,187218.7411,187985.6147,188752.1011,189518.8856,190285.6547,189527.8893
Mixed,both,tile,34,F_tile.wav,None,723.6569059,3321,184169.3739,191052.2707,174019.3336,174786.0111,175552.7895,176319.5022,177086.4197,177836.1362,184919.4366,185685.6547,186452.1316,187218.7411,187985.6147,188752.1011,189518.8856,190285.6547,190294.7155
Mixed,both,tile,34,F_reek.wav,space,603.9186611,3321,184169.3739,191052.2707,191801.989,174786.0111,175552.7895,176319.5022,177086.4197,177836.1362,184919.4366,185685.6547,186452.1316,187218.7411,187985.6147,188752.1011,189518.8856,190285.6547,191061.6577
Mixed,both,tile,34,F_tile.wav,None,735.9055821,3321,184169.3739,191052.2707,191801.989,192568.7837,175552.7895,176319.5022,177086.4197,177836.1362,184919.4366,185685.6547,186452.1316,187218.7411,187985.6147,188752.1011,189518.8856,190285.6547,191811.0678
Mixed,both,tile,34,F_romp.wav,None,732.747416,3321,184169.3739,191052.2707,191801.989,192568.7837,193335.592,176319.5022,177086.4197,177836.1362,184919.4366,185685.6547,186452.1316,187218.7411,187985.6147,188752.1011,189518.8856,190285.6547,192578.6694
Mixed,both,tile,34,F_jolt.wav,space,0.034008641,3321,184169.3739,191052.2707,191801.989,192568.7837,193335.592,194102.17,177086.4197,177836.1362,184919.4366,185685.6547,186452.1316,187218.7411,187985.6147,188752.1011,189518.8856,190285.6547,193344.3978
Mixed,both,tile,34,M_tile.wav,None,729.2562743,3321,184169.3739,191052.2707,191801.989,192568.7837,193335.592,194102.17,194868.6954,177836.1362,184919.4366,185685.6547,186452.1316,187218.7411,187985.6147,188752.1011,189518.8856,190285.6547,194111.0422
Mixed,both,tile,34,M_bluff.wav,space,595.829242,3321,184169.3739,191052.2707,191801.989,192568.7837,193335.592,194102.17,194868.6954,195635.4567,184919.4366,185685.6547,186452.1316,187218.7411,187985.6147,188752.1011,189518.8856,190285.6547,194877.6097
Mixed,both,ball,6,F_park.wav,None,724.1803299,3321,198752.4931,191052.2707,191801.989,192568.7837,193335.592,194102.17,194868.6954,195635.4567,184919.4366,185685.6547,186452.1316,187218.7411,187985.6147,188752.1011,189518.8856,190285.6547,195644.5556
Mixed,both,ball,6,M_bluff.wav,None,720.1660734,3321,198752.4931,191052.2707,191801.989,192568.7837,193335.592,194102.17,194868.6954,195635.4567,199501.83,185685.6547,186452.1316,187218.7411,187985.6147,188752.1011,189518.8856,190285.6547,198762.2295
Mixed,both,ball,6,M_ball.wav,None,736.0963397,3321,198752.4931,191052.2707,191801.989,192568.7837,193335.592,194102.17,194868.6954,195635.4567,199501.83,200268.548,186452.1316,187218.7411,187985.6147,188752.1011,189518.8856,190285.6547,199510.7678
Mixed,both,ball,6,M_dime.wav,space,531.4882924,3321,198752.4931,191052.2707,191801.989,192568.7837,193335.592,194102.17,194868.6954,195635.4567,199501.83,200268.548,201035.2184,187218.7411,187985.6147,188752.1011,189518.8856,190285.6547,200277.8862
Mixed,both,ball,6,F_ball.wav,None,730.9282628,3321,198752.4931,191052.2707,191801.989,192568.7837,193335.592,194102.17,194868.6954,195635.4567,199501.83,200268.548,201035.2184,201801.9083,187985.6147,188752.1011,189518.8856,190285.6547,201044.3708
Mixed,both,ball,6,F_priest.wav,None,728.6549396,3321,198752.4931,191052.2707,191801.989,192568.7837,193335.592,194102.17,194868.6954,195635.4567,199501.83,200268.548,201035.2184,201801.9083,202568.6174,188752.1011,189518.8856,190285.6547,201811.1899
Mixed,both,ball,6,M_depth.wav,None,725.9509434,3321,198752.4931,191052.2707,191801.989,192568.7837,193335.592,194102.17,194868.6954,195635.4567,199501.83,200268.548,201035.2184,201801.9083,202568.6174,203336.1278,189518.8856,190285.6547,202578.7303
Mixed,both,ball,6,F_reek.wav,None,723.2311795,3321,198752.4931,191052.2707,191801.989,192568.7837,193335.592,194102.17,194868.6954,195635.4567,199501.83,200268.548,201035.2184,201801.9083,202568.6174,203336.1278,204101.9007,190285.6547,203346.0654
Mixed,both,ball,6,F_ball.wav,None,723.2658067,3321,198752.4931,191052.2707,191801.989,192568.7837,193335.592,194102.17,194868.6954,195635.4567,199501.83,200268.548,201035.2184,201801.9083,202568.6174,203336.1278,204101.9007,204868.7579,204110.9653
Mixed,both,ball,6,M_jolt.wav,space,490.8495111,3321,198752.4931,205617.9463,191801.989,192568.7837,193335.592,194102.17,194868.6954,195635.4567,199501.83,200268.548,201035.2184,201801.9083,202568.6174,203336.1278,204101.9007,204868.7579,204878.3016
Mixed,both,ball,6,M_ball.wav,None,736.0153373,3321,198752.4931,205617.9463,206385.1995,192568.7837,193335.592,194102.17,194868.6954,195635.4567,199501.83,200268.548,201035.2184,201801.9083,202568.6174,203336.1278,204101.9007,204868.7579,205627.0056
Mixed,both,ball,6,F_depth.wav,None,733.4235696,3321,198752.4931,205617.9463,206385.1995,207151.7138,193335.592,194102.17,194868.6954,195635.4567,199501.83,200268.548,201035.2184,201801.9083,202568.6174,203336.1278,204101.9007,204868.7579,206394.2375
Mixed,both,ball,6,F_dime.wav,space,16.07403008,3321,198752.4931,205617.9463,206385.1995,207151.7138,207918.34,194102.17,194868.6954,195635.4567,199501.83,200268.548,201035.2184,201801.9083,202568.6174,203336.1278,204101.9007,204868.7579,207160.9861
Mixed,both,ball,6,F_romp.wav,None,728.7863367,3321,198752.4931,205617.9463,206385.1995,207151.7138,207918.34,208685.0117,194868.6954,195635.4567,199501.83,200268.548,201035.2184,201801.9083,202568.6174,203336.1278,204101.9007,204868.7579,207927.3912
Mixed,both,ball,6,M_gnash.wav,None,726.7501466,3321,198752.4931,205617.9463,206385.1995,207151.7138,207918.34,208685.0117,209452.0512,195635.4567,199501.83,200268.548,201035.2184,201801.9083,202568.6174,203336.1278,204101.9007,204868.7579,208694.1621
Mixed,both,ball,6,M_reek.wav,None,723.521799,3321,198752.4931,205617.9463,206385.1995,207151.7138,207918.34,208685.0117,209452.0512,210218.7699,199501.83,200268.548,201035.2184,201801.9083,202568.6174,203336.1278,204101.9007,204868.7579,209462.0077
Mixed,both,tile,25,F_jolt.wav,None,721.860013,3321,213335.2529,205617.9463,206385.1995,207151.7138,207918.34,208685.0117,209452.0512,210218.7699,199501.83,200268.548,201035.2184,201801.9083,202568.6174,203336.1278,204101.9007,204868.7579,210228.3742
Mixed,both,tile,25,M_knife.wav,None,721.3375166,3321,213335.2529,205617.9463,206385.1995,207151.7138,207918.34,208685.0117,209452.0512,210218.7699,214101.952,200268.548,201035.2184,201801.9083,202568.6174,203336.1278,204101.9007,204868.7579,213344.8671
Mixed,both,tile,25,F_knife.wav,None,719.3344076,3321,213335.2529,205617.9463,206385.1995,207151.7138,207918.34,208685.0117,209452.0512,210218.7699,214101.952,214851.2589,201035.2184,201801.9083,202568.6174,203336.1278,204101.9007,204868.7579,214111.5258
Mixed,both,tile,25,M_gnash.wav,None,735.4826382,3321,213335.2529,205617.9463,206385.1995,207151.7138,207918.34,208685.0117,209452.0512,210218.7699,214101.952,214851.2589,215617.9296,201801.9083,202568.6174,203336.1278,204101.9007,204868.7579,214860.0891
Mixed,both,tile,25,F_tile.wav,None,733.4139853,3321,213335.2529,205617.9463,206385.1995,207151.7138,207918.34,208685.0117,209452.0512,210218.7699,214101.952,214851.2589,215617.9296,216384.4711,202568.6174,203336.1278,204101.9007,204868.7579,215626.9042
Mixed,both,tile,25,F_cling.wav,space,471.4803528,3321,213335.2529,205617.9463,206385.1995,207151.7138,207918.34,208685.0117,209452.0512,210218.7699,214101.952,214851.2589,215617.9296,216384.4711,217151.5076,203336.1278,204101.9007,204868.7579,216393.322
Mixed,both,tile,25,M_tile.wav,None,728.590014,3321,213335.2529,205617.9463,206385.1995,207151.7138,207918.34,208685.0117,209452.0512,210218.7699,214101.952,214851.2589,215617.9296,216384.4711,217151.5076,217917.9953,204101.9007,204868.7579,217160.9063
Mixed,both,tile,25,M_lash.wav,None,727.2092632,3321,213335.2529,205617.9463,206385.1995,207151.7138,207918.34,208685.0117,209452.0512,210218.7699,214101.952,214851.2589,215617.9296,216384.4711,217151.5076,217917.9953,218685.1777,204868.7579,217926.9297
Mixed,both,tile,25,M_greet.wav,space,330.5590526,3321,213335.2529,205617.9463,206385.1995,207151.7138,207918.34,208685.0117,209452.0512,210218.7699,214101.952,214851.2589,215617.9296,216384.4711,217151.5076,217917.9953,218685.1777,219451.8036,218694.1278
Mixed,both,tile,25,M_park.wav,None,721.9261753,3321,213335.2529,220218.2675,206385.1995,207151.7138,207918.34,208685.0117,209452.0512,210218.7699,214101.952,214851.2589,215617.9296,216384.4711,217151.5076,217917.9953,218685.1777,219451.8036,219461.7307
Mixed,both,tile,25,F_reek.wav,None,720.6483779,3321,213335.2529,220218.2675,220967.9496,207151.7138,207918.34,208685.0117,209452.0512,210218.7699,214101.952,214851.2589,215617.9296,216384.4711,217151.5076,217917.9953,218685.1777,219451.8036,220227.6913
Mixed,both,tile,25,M_tile.wav,None,736.2753488,3321,213335.2529,220218.2675,220967.9496,221734.4169,207918.34,208685.0117,209452.0512,210218.7699,214101.952,214851.2589,215617.9296,216384.4711,217151.5076,217917.9953,218685.1777,219451.8036,220976.8676
Mixed,both,tile,25,F_bluff.wav,space,473.270135,3321,213335.2529,220218.2675,220967.9496,221734.4169,222501.0441,208685.0117,209452.0512,210218.7699,214101.952,214851.2589,215617.9296,216384.4711,217151.5076,217917.9953,218685.1777,219451.8036,221743.313
Mixed,both,tile,25,F_tile.wav,None,732.1006333,3321,213335.2529,220218.2675,220967.9496,221734.4169,222501.0441,223267.8385,209452.0512,210218.7699,214101.952,214851.2589,215617.9296,216384.4711,217151.5076,217917.9953,218685.1777,219451.8036,222510.0369
Mixed,both,tile,25,M_jaw.wav,None,730.3862887,3321,213335.2529,220218.2675,220967.9496,221734.4169,222501.0441,223267.8385,224034.6106,210218.7699,214101.952,214851.2589,215617.9296,216384.4711,217151.5076,217917.9953,218685.1777,219451.8036,223276.7818
Mixed,both,tile,25,F_greet.wav,space,0.03926456,3321,213335.2529,220218.2675,220967.9496,221734.4169,222501.0441,223267.8385,224034.6106,224800.8998,214101.952,214851.2589,215617.9296,216384.4711,217151.5076,217917.9953,218685.1777,219451.8036,224043.6795
Mixed,both,ball,4,F_greet.wav,None,726.2959767,3321,227934.8614,220218.2675,220967.9496,221734.4169,222501.0441,223267.8385,224034.6106,224800.8998,214101.952,214851.2589,215617.9296,216384.4711,217151.5076,217917.9953,218685.1777,219451.8036,224809.619
Mixed,both,ball,4,M_dime.wav,None,720.7692631,3321,227934.8614,220218.2675,220967.9496,221734.4169,222501.0441,223267.8385,224034.6106,224800.8998,228701.7526,214851.2589,215617.9296,216384.4711,217151.5076,217917.9953,218685.1777,219451.8036,227945.0343
Mixed,both,ball,4,F_priest.wav,None,718.9720609,3321,227934.8614,220218.2675,220967.9496,221734.4169,222501.0441,223267.8385,224034.6106,224800.8998,228701.7526,229451.001,215617.9296,216384.4711,217151.5076,217917.9953,218685.1777,219451.8036,228711.5724
Mixed,both,ball,4,M_park.wav,None,740.8133383,3321,227934.8614,220218.2675,220967.9496,221734.4169,222501.0441,223267.8385,224034.6106,224800.8998,228701.7526,229451.001,230217.7134,216384.4711,217151.5076,217917.9953,218685.1777,219451.8036,229454.5054
Mixed,both,ball,4,M_ball.wav,None,738.9274045,3321,227934.8614,220218.2675,220967.9496,221734.4169,222501.0441,223267.8385,224034.6106,224800.8998,228701.7526,229451.001,230217.7134,230984.3461,217151.5076,217917.9953,218685.1777,219451.8036,230221.3372
Mixed,both,ball,4,F_dime.wav,space,439.0407461,3321,227934.8614,220218.2675,220967.9496,221734.4169,222501.0441,223267.8385,224034.6106,224800.8998,228701.7526,229451.001,230217.7134,230984.3461,231751.0546,217917.9953,218685.1777,219451.8036,230993.3563
Mixed,both,ball,4,M_knife.wav,None,729.0723184,3321,227934.8614,220218.2675,220967.9496,221734.4169,222501.0441,223267.8385,224034.6106,224800.8998,228701.7526,229451.001,230217.7134,230984.3461,231751.0546,232517.4971,218685.1777,219451.8036,231760.4604
Mixed,both,ball,4,F_depth.wav,None,727.1143482,3321,227934.8614,220218.2675,220967.9496,221734.4169,222501.0441,223267.8385,224034.6106,224800.8998,228701.7526,229451.001,230217.7134,230984.3461,231751.0546,232517.4971,233284.3169,219451.8036,232527.0316
Mixed,both,ball,4,M_cling.wav,None,725.2809732,3321,227934.8614,220218.2675,220967.9496,221734.4169,222501.0441,223267.8385,224034.6106,224800.8998,228701.7526,229451.001,230217.7134,230984.3461,231751.0546,232517.4971,233284.3169,234051.5259,233293.8708
Mixed,both,ball,4,M_ball.wav,None,722.691988,3321,227934.8614,234818.1162,220967.9496,221734.4169,222501.0441,223267.8385,224034.6106,224800.8998,228701.7526,229451.001,230217.7134,230984.3461,231751.0546,232517.4971,233284.3169,234051.5259,234061.2103
Mixed,both,ball,4,F_depth.wav,space,316.6860001,3321,227934.8614,234818.1162,235567.441,221734.4169,222501.0441,223267.8385,224034.6106,224800.8998,228701.7526,229451.001,230217.7134,230984.3461,231751.0546,232517.4971,233284.3169,234051.5259,234827.5675
Mixed,both,ball,4,F_ball.wav,None,735.9581409,3321,227934.8614,234818.1162,235567.441,236334.0366,222501.0441,223267.8385,224034.6106,224800.8998,228701.7526,229451.001,230217.7134,230984.3461,231751.0546,232517.4971,233284.3169,234051.5259,235576.7742
Mixed,both,ball,4,F_jolt.wav,None,733.6854362,3321,227934.8614,234818.1162,235567.441,236334.0366,237100.8526,223267.8385,224034.6106,224800.8998,228701.7526,229451.001,230217.7134,230984.3461,231751.0546,232517.4971,233284.3169,234051.5259,236343.8131
Mixed,both,ball,4,F_ball.wav,space,90.03107774,3321,227934.8614,234818.1162,235567.441,236334.0366,237100.8526,237867.4615,224034.6106,224800.8998,228701.7526,229451.001,230217.7134,230984.3461,231751.0546,232517.4971,233284.3169,234051.5259,237110.1311
Mixed,both,ball,4,M_cling.wav,space,635.5649391,3321,227934.8614,234818.1162,235567.441,236334.0366,237100.8526,237867.4615,238634.1134,224800.8998,228701.7526,229451.001,230217.7134,230984.3461,231751.0546,232517.4971,233284.3169,234051.5259,237876.574
Mixed,both,ball,4,M_park.wav,None,733.3073219,3321,227934.8614,234818.1162,235567.441,236334.0366,237100.8526,237867.4615,238634.1134,239401.2463,228701.7526,229451.001,230217.7134,230984.3461,231751.0546,232517.4971,233284.3169,234051.5259,238637.7331
Mixed,both,ball,12,F_priest.wav,None,725.5595349,3321,242534.2977,234818.1162,235567.441,236334.0366,237100.8526,237867.4615,238634.1134,239401.2463,228701.7526,229451.001,230217.7134,230984.3461,231751.0546,232517.4971,233284.3169,234051.5259,239410.1665
Mixed,both,ball,12,F_jolt.wav,None,720.9355963,3321,242534.2977,234818.1162,235567.441,236334.0366,237100.8526,237867.4615,238634.1134,239401.2463,243301.3156,229451.001,230217.7134,230984.3461,231751.0546,232517.4971,233284.3169,234051.5259,242544.2598
Mixed,both,ball,12,M_ball.wav,None,719.0215281,3321,242534.2977,234818.1162,235567.441,236334.0366,237100.8526,237867.4615,238634.1134,239401.2463,243301.3156,244050.8021,230217.7134,230984.3461,231751.0546,232517.4971,233284.3169,234051.5259,243310.9812
Mixed,both,ball,12,M_greet.wav,space,516.0833051,3321,242534.2977,234818.1162,235567.441,236334.0366,237100.8526,237867.4615,238634.1134,239401.2463,243301.3156,244050.8021,244817.1705,230984.3461,231751.0546,232517.4971,233284.3169,234051.5259,244059.8973
Mixed,both,ball,12,M_romp.wav,None,737.824597,3321,242534.2977,234818.1162,235567.441,236334.0366,237100.8526,237867.4615,238634.1134,239401.2463,243301.3156,244050.8021,244817.1705,245583.9237,231751.0546,232517.4971,233284.3169,234051.5259,244821.1615
Mixed,both,ball,12,F_ball.wav,None,730.7507995,3321,242534.2977,234818.1162,235567.441,236334.0366,237100.8526,237867.4615,238634.1134,239401.2463,243301.3156,244050.8021,244817.1705,245583.9237,246350.5874,232517.4971,233284.3169,234051.5259,245592.936
Mixed,both,ball,12,M_lash.wav,space,495.8361055,3321,242534.2977,234818.1162,235567.441,236334.0366,237100.8526,237867.4615,238634.1134,239401.2463,243301.3156,244050.8021,244817.1705,245583.9237,246350.5874,247117.1687,233284.3169,234051.5259,246360.0316
Mixed,both,ball,12,M_ball.wav,None,726.351318,3321,242534.2977,234818.1162,235567.441,236334.0366,237100.8526,237867.4615,238634.1134,239401.2463,243301.3156,244050.8021,244817.1705,245583.9237,246350.5874,247117.1687,247883.8552,234051.5259,247126.4568
Mixed,both,ball,12,M_greet.wav,space,658.9158911,3321,242534.2977,234818.1162,235567.441,236334.0366,237100.8526,237867.4615,238634.1134,239401.2463,243301.3156,244050.8021,244817.1705,245583.9237,246350.5874,247117.1687,247883.8552,248651.1845,247892.9093
Mixed,both,ball,12,F_gnash.wav,None,720.7998709,3321,242534.2977,249417.6159,235567.441,236334.0366,237100.8526,237867.4615,238634.1134,239401.2463,243301.3156,244050.8021,244817.1705,245583.9237,246350.5874,247117.1687,247883.8552,248651.1845,248660.9292
Mixed,both,ball,12,F_bluff.wav,None,719.1795136,3321,242534.2977,249417.6159,250166.7147,236334.0366,237100.8526,237867.4615,238634.1134,239401.2463,243301.3156,244050.8021,244817.1705,245583.9237,246350.5874,247117.1687,247883.8552,248651.1845,249427.4246
Mixed,both,ball,12,F_jolt.wav,None,735.7717117,3321,242534.2977,249417.6159,250166.7147,250933.5913,237100.8526,237867.4615,238634.1134,239401.2463,243301.3156,244050.8021,244817.1705,245583.9237,246350.5874,247117.1687,247883.8552,248651.1845,250175.6203
Mixed,both,ball,12,F_park.wav,None,733.6607026,3321,242534.2977,249417.6159,250166.7147,250933.5913,251700.1616,237867.4615,238634.1134,239401.2463,243301.3156,244050.8021,244817.1705,245583.9237,246350.5874,247117.1687,247883.8552,248651.1845,250942.6021
Mixed,both,ball,12,F_ball.wav,None,732.222137,3321,242534.2977,249417.6159,250166.7147,250933.5913,251700.1616,252466.7646,238634.1134,239401.2463,243301.3156,244050.8021,244817.1705,245583.9237,246350.5874,247117.1687,247883.8552,248651.1845,251708.9139
Mixed,both,ball,12,M_cad.wav,space,411.9012314,3321,242534.2977,249417.6159,250166.7147,250933.5913,251700.1616,252466.7646,253233.6718,239401.2463,243301.3156,244050.8021,244817.1705,245583.9237,246350.5874,247117.1687,247883.8552,248651.1845,252475.7991
Mixed,both,ball,12,M_priest.wav,None,727.5447121,3321,242534.2977,249417.6159,250166.7147,250933.5913,251700.1616,252466.7646,253233.6718,254000.1608,243301.3156,244050.8021,244817.1705,245583.9237,246350.5874,247117.1687,247883.8552,248651.1845,253242.6993
Mixed,both,ball,11,F_priest.wav,None,726.3027782,3321,257133.8197,249417.6159,250166.7147,250933.5913,251700.1616,252466.7646,253233.6718,254000.1608,243301.3156,244050.8021,244817.1705,245583.9237,246350.5874,247117.1687,247883.8552,248651.1845,254008.9372
Mixed,both,ball,11,M_ball.wav,None,721.3137106,3321,257133.8197,249417.6159,250166.7147,250933.5913,251700.1616,252466.7646,253233.6718,254000.1608,257900.756,244050.8021,244817.1705,245583.9237,246350.5874,247117.1687,247883.8552,248651.1845,257143.441
Mixed,both,ball,11,M_romp.wav,None,719.3430644,3321,257133.8197,249417.6159,250166.7147,250933.5913,251700.1616,252466.7646,253233.6718,254000.1608,257900.756,258649.7373,244817.1705,245583.9237,246350.5874,247117.1687,247883.8552,248651.1845,257910.3115
Mixed,both,ball,11,F_ball.wav,space,485.0850464,3321,257133.8197,249417.6159,250166.7147,250933.5913,251700.1616,252466.7646,253233.6718,254000.1608,257900.756,258649.7373,259416.6992,245583.9237,246350.5874,247117.1687,247883.8552,248651.1845,258658.4385
Mixed,both,ball,11,M_jaw.wav,space,693.1567192,3321,257133.8197,249417.6159,250166.7147,250933.5913,251700.1616,252466.7646,253233.6718,254000.1608,257900.756,258649.7373,259416.6992,260183.4633,246350.5874,247117.1687,247883.8552,248651.1845,259426.375
Mixed,both,ball,11,M_lash.wav,None,729.9902426,3321,257133.8197,249417.6159,250166.7147,250933.5913,251700.1616,252466.7646,253233.6718,254000.1608,257900.756,258649.7373,259416.6992,260183.4633,260950.1931,247117.1687,247883.8552,248651.1845,260192.5353
Mixed,both,ball,11,F_park.wav,None,727.8773785,3321,257133.8197,249417.6159,250166.7147,250933.5913,251700.1616,252466.7646,253233.6718,254000.1608,257900.756,258649.7373,259416.6992,260183.4633,260950.1931,261716.6289,247883.8552,248651.1845,260959.641
Mixed,both,ball,11,F_jolt.wav,None,726.7210846,3321,257133.8197,249417.6159,250166.7147,250933.5913,251700.1616,252466.7646,253233.6718,254000.1608,257900.756,258649.7373,259416.6992,260183.4633,260950.1931,261716.6289,262483.9399,248651.1845,261725.5617
Mixed,both,ball,11,M_bluff.wav,None,723.5891978,3321,257133.8197,249417.6159,250166.7147,250933.5913,251700.1616,252466.7646,253233.6718,254000.1608,257900.756,258649.7373,259416.6992,260183.4633,260950.1931,261716.6289,262483.9399,263250.4427,262493.7792
Mixed,both,ball,11,M_ball.wav,None,722.3475733,3321,257133.8197,264017.5005,250166.7147,250933.5913,251700.1616,252466.7646,253233.6718,254000.1608,257900.756,258649.7373,259416.6992,260183.4633,260950.1931,261716.6289,262483.9399,263250.4427,263259.9716
Mixed,both,ball,11,M_reek.wav,space,436.8063783,3321,257133.8197,264017.5005,264766.2113,250933.5913,251700.1616,252466.7646,253233.6718,254000.1608,257900.756,258649.7373,259416.6992,260183.4633,260950.1931,261716.6289,262483.9399,263250.4427,264026.5558
Mixed,both,ball,11,F_depth.wav,None,735.9040363,3321,257133.8197,264017.5005,264766.2113,265532.9921,251700.1616,252466.7646,253233.6718,254000.1608,257900.756,258649.7373,259416.6992,260183.4633,260950.1931,261716.6289,262483.9399,263250.4427,264775.389
Mixed,both,ball,11,F_bluff.wav,None,734.467944,3321,257133.8197,264017.5005,264766.2113,265532.9921,266300.0632,252466.7646,253233.6718,254000.1608,257900.756,258649.7373,259416.6992,260183.4633,260950.1931,261716.6289,262483.9399,263250.4427,265541.8368
Mixed,both,ball,11,F_depth.wav,None,731.3567717,3321,257133.8197,264017.5005,264766.2113,265532.9921,266300.0632,267066.4959,253233.6718,254000.1608,257900.756,258649.7373,259416.6992,260183.4633,260950.1931,261716.6289,262483.9399,263250.4427,266309.658
Mixed,both,ball,11,F_ball.wav,None,730.1179296,3321,257133.8197,264017.5005,264766.2113,265532.9921,266300.0632,267066.4959,267833.2887,254000.1608,257900.756,258649.7373,259416.6992,260183.4633,260950.1931,261716.6289,262483.9399,263250.4427,267075.8807
Mixed,both,ball,11,M_lash.wav,None,728.9084586,3321,257133.8197,264017.5005,264766.2113,265532.9921,266300.0632,267066.4959,267833.2887,268599.9802,257900.756,258649.7373,259416.6992,260183.4633,260950.1931,261716.6289,262483.9399,263250.4427,267842.3616
Mixed,both,done,46,M_park.wav,None,726.9180256,3321,271733.7463,264017.5005,264766.2113,265532.9921,266300.0632,267066.4959,267833.2887,268599.9802,257900.756,258649.7373,259416.6992,260183.4633,260950.1931,261716.6289,262483.9399,263250.4427,268609.4587
Mixed,both,done,46,F_done.wav,None,719.9793351,3321,271733.7463,264017.5005,264766.2113,265532.9921,266300.0632,267066.4959,267833.2887,268599.9802,272482.8745,258649.7373,259416.6992,260183.4633,260950.1931,261716.6289,262483.9399,263250.4427,271743.2579
Mixed,both,done,46,F_cling.wav,None,735.8811577,3321,271733.7463,264017.5005,264766.2113,265532.9921,266300.0632,267066.4959,267833.2887,268599.9802,272482.8745,273249.8238,259416.6992,260183.4633,260950.1931,261716.6289,262483.9399,263250.4427,272492.3341
Mixed,both,done,46,M_park.wav,space,19.67770944,3321,271733.7463,264017.5005,264766.2113,265532.9921,266300.0632,267066.4959,267833.2887,268599.9802,272482.8745,273249.8238,274016.3631,260183.4633,260950.1931,261716.6289,262483.9399,263250.4427,273259.4015
Mixed,both,done,46,M_done.wav,None,731.9766565,3321,271733.7463,264017.5005,264766.2113,265532.9921,266300.0632,267066.4959,267833.2887,268599.9802,272482.8745,273249.8238,274016.3631,274783.075,260950.1931,261716.6289,262483.9399,263250.4427,274025.2588
Mixed,both,done,46,F_reek.wav,None,730.010957,3321,271733.7463,264017.5005,264766.2113,265532.9921,266300.0632,267066.4959,267833.2887,268599.9802,272482.8745,273249.8238,274016.3631,274783.075,275549.5042,261716.6289,262483.9399,263250.4427,274792.0993
Mixed,both,done,46,M_cad.wav,space,72.73953839,3321,271733.7463,264017.5005,264766.2113,265532.9921,266300.0632,267066.4959,267833.2887,268599.9802,272482.8745,273249.8238,274016.3631,274783.075,275549.5042,276316.1536,262483.9399,263250.4427,275558.2667
Mixed,both,done,46,F_done.wav,None,726.2032258,3321,271733.7463,264017.5005,264766.2113,265532.9921,266300.0632,267066.4959,267833.2887,268599.9802,272482.8745,273249.8238,274016.3631,274783.075,275549.5042,276316.1536,277083.4111,263250.4427,276325.0085
Mixed,both,done,46,F_greet.wav,space,530.0271574,3321,271733.7463,264017.5005,264766.2113,265532.9921,266300.0632,267066.4959,267833.2887,268599.9802,272482.8745,273249.8238,274016.3631,274783.075,275549.5042,276316.1536,277083.4111,277850.2708,277092.9363
Mixed,both,done,46,F_reek.wav,None,720.4211383,3321,271733.7463,278616.5152,264766.2113,265532.9921,266300.0632,267066.4959,267833.2887,268599.9802,272482.8745,273249.8238,274016.3631,274783.075,275549.5042,276316.1536,277083.4111,277850.2708,277859.9292
Mixed,both,done,46,F_greet.wav,None,720.0832161,3321,271733.7463,278616.5152,279365.813,265532.9921,266300.0632,267066.4959,267833.2887,268599.9802,272482.8745,273249.8238,274016.3631,274783.075,275549.5042,276316.1536,277083.4111,277850.2708,278626.0388
Mixed,both,done,46,M_jaw.wav,None,735.3731922,3321,271733.7463,278616.5152,279365.813,280132.736,266300.0632,267066.4959,267833.2887,268599.9802,272482.8745,273249.8238,274016.3631,274783.075,275549.5042,276316.1536,277083.4111,277850.2708,279375.7086
Mixed,both,done,46,M_done.wav,None,734.5022619,3321,271733.7463,278616.5152,279365.813,280132.736,280899.6189,267066.4959,267833.2887,268599.9802,272482.8745,273249.8238,274016.3631,274783.075,275549.5042,276316.1536,277083.4111,277850.2708,280141.8661
Mixed,both,done,46,M_lash.wav,space,433.7938309,3321,271733.7463,278616.5152,279365.813,280132.736,280899.6189,281666.0877,267833.2887,268599.9802,272482.8745,273249.8238,274016.3631,274783.075,275549.5042,276316.1536,277083.4111,277850.2708,280909.0538
Mixed,both,done,46,F_knife.wav,None,730.4546151,3321,271733.7463,278616.5152,279365.813,280132.736,280899.6189,281666.0877,282432.3735,268599.9802,272482.8745,273249.8238,274016.3631,274783.075,275549.5042,276316.1536,277083.4111,277850.2708,281675.002
Mixed,both,done,46,M_lash.wav,None,731.6334784,3321,271733.7463,278616.5152,279365.813,280132.736,280899.6189,281666.0877,282432.3735,283199.4752,272482.8745,273249.8238,274016.3631,274783.075,275549.5042,276316.1536,277083.4111,277850.2708,282441.0343
Mixed,both,cave,14,M_lash.wav,None,729.5060832,3321,286333.1706,278616.5152,279365.813,280132.736,280899.6189,281666.0877,282432.3735,283199.4752,272482.8745,273249.8238,274016.3631,274783.075,275549.5042,276316.1536,277083.4111,277850.2708,283209.0316
Mixed,both,cave,14,F_knife.wav,None,720.8623231,3321,286333.1706,278616.5152,279365.813,280132.736,280899.6189,281666.0877,282432.3735,283199.4752,287099.7133,273249.8238,274016.3631,274783.075,275549.5042,276316.1536,277083.4111,277850.2708,286343.0529
Mixed,both,cave,14,M_cave.wav,None,719.6955176,3321,286333.1706,278616.5152,279365.813,280132.736,280899.6189,281666.0877,282432.3735,283199.4752,287099.7133,287848.9689,274016.3631,274783.075,275549.5042,276316.1536,277083.4111,277850.2708,287109.344
Mixed,both,cave,14,M_depth.wav,space,460.7923642,3321,286333.1706,278616.5152,279365.813,280132.736,280899.6189,281666.0877,282432.3735,283199.4752,287099.7133,287848.9689,288615.8208,274783.075,275549.5042,276316.1536,277083.4111,277850.2708,287857.864
Mixed,both,cave,14,M_greet.wav,None,732.8179065,3321,286333.1706,278616.5152,279365.813,280132.736,280899.6189,281666.0877,282432.3735,283199.4752,287099.7133,287848.9689,288615.8208,289383.1002,275549.5042,276316.1536,277083.4111,277850.2708,288625.4087
Mixed,both,cave,14,F_lash.wav,None,730.9294995,3321,286333.1706,278616.5152,279365.813,280132.736,280899.6189,281666.0877,282432.3735,283199.4752,287099.7133,287848.9689,288615.8208,289383.1002,290149.2608,276316.1536,277083.4111,277850.2708,289392.2433
Mixed,both,cave,14,F_cad.wav,None,729.7320861,3321,286333.1706,278616.5152,279365.813,280132.736,280899.6189,281666.0877,282432.3735,283199.4752,287099.7133,287848.9689,288615.8208,289383.1002,290149.2608,290915.8286,277083.4111,277850.2708,290158.3656
Mixed,both,cave,14,F_knife.wav,None,728.2728062,3321,286333.1706,278616.5152,279365.813,280132.736,280899.6189,281666.0877,282432.3735,283199.4752,287099.7133,287848.9689,288615.8208,289383.1002,290149.2608,290915.8286,291682.555,277850.2708,290924.7723
Mixed,both,cave,14,M_jolt.wav,None,726.0362742,3321,286333.1706,278616.5152,279365.813,280132.736,280899.6189,281666.0877,282432.3735,283199.4752,287099.7133,287848.9689,288615.8208,289383.1002,290149.2608,290915.8286,291682.555,292449.1744,291692.2518
Mixed,both,cave,14,M_dime.wav,None,725.1770922,3321,286333.1706,293216.3222,279365.813,280132.736,280899.6189,281666.0877,282432.3735,283199.4752,287099.7133,287848.9689,288615.8208,289383.1002,290149.2608,290915.8286,291682.555,292449.1744,292458.4031
Mixed,both,cave,14,M_cave.wav,None,723.1065843,3321,286333.1706,293216.3222,293983.0835,280132.736,280899.6189,281666.0877,282432.3735,283199.4752,287099.7133,287848.9689,288615.8208,289383.1002,290149.2608,290915.8286,291682.555,292449.1744,293225.891
Mixed,both,cave,14,F_jolt.wav,space,397.8986369,3321,286333.1706,293216.3222,293983.0835,294732.8386,280899.6189,281666.0877,282432.3735,283199.4752,287099.7133,287848.9689,288615.8208,289383.1002,290149.2608,290915.8286,291682.555,292449.1744,293992.6074
Mixed,both,cave,14,F_cave.wav,None,735.6981294,3321,286333.1706,293216.3222,293983.0835,294732.8386,295498.7865,281666.0877,282432.3735,283199.4752,287099.7133,287848.9689,288615.8208,289383.1002,290149.2608,290915.8286,291682.555,292449.1744,294742.28
Mixed,both,cave,14,M_jaw.wav,space,650.5612044,3321,286333.1706,293216.3222,293983.0835,294732.8386,295498.7865,296265.5908,282432.3735,283199.4752,287099.7133,287848.9689,288615.8208,289383.1002,290149.2608,290915.8286,291682.555,292449.1744,295507.8715
Mixed,both,cave,14,F_cave.wav,None,732.3575532,3321,286333.1706,293216.3222,293983.0835,294732.8386,295498.7865,296265.5908,297032.4285,283199.4752,287099.7133,287848.9689,288615.8208,289383.1002,290149.2608,290915.8286,291682.555,292449.1744,296274.5864
Mixed,both,cave,14,F_gnash.wav,space,508.8725456,3321,286333.1706,293216.3222,293983.0835,294732.8386,295498.7865,296265.5908,297032.4285,297799.0228,287099.7133,287848.9689,288615.8208,289383.1002,290149.2608,290915.8286,291682.555,292449.1744,297041.4952
Mixed,both,cave,16,F_lash.wav,None,727.5416204,3321,300932.4901,293216.3222,293983.0835,294732.8386,295498.7865,296265.5908,297032.4285,297799.0228,287099.7133,287848.9689,288615.8208,289383.1002,290149.2608,290915.8286,291682.555,292449.1744,297808.2172
Mixed,both,cave,16,M_cave.wav,None,721.1637634,3321,300932.4901,293216.3222,293983.0835,294732.8386,295498.7865,296265.5908,297032.4285,297799.0228,301699.2931,287848.9689,288615.8208,289383.1002,290149.2608,290915.8286,291682.555,292449.1744,300942.2165
Mixed,both,cave,16,F_jaw.wav,space,585.1026071,3321,300932.4901,293216.3222,293983.0835,294732.8386,295498.7865,296265.5908,297032.4285,297799.0228,301699.2931,302448.8359,288615.8208,289383.1002,290149.2608,290915.8286,291682.555,292449.1744,301709.147
Mixed,both,cave,16,F_cave.wav,None,734.6658126,3321,300932.4901,293216.3222,293983.0835,294732.8386,295498.7865,296265.5908,297032.4285,297799.0228,301699.2931,302448.8359,303215.4862,289383.1002,290149.2608,290915.8286,291682.555,292449.1744,302457.8432
Mixed,both,cave,16,M_priest.wav,space,581.6760819,3321,300932.4901,293216.3222,293983.0835,294732.8386,295498.7865,296265.5908,297032.4285,297799.0228,301699.2931,302448.8359,303215.4862,303982.1275,290149.2608,290915.8286,291682.555,292449.1744,303224.4852
Mixed,both,cave,16,F_cave.wav,None,730.4663636,3321,300932.4901,293216.3222,293983.0835,294732.8386,295498.7865,296265.5908,297032.4285,297799.0228,301699.2931,302448.8359,303215.4862,303982.1275,304748.951,290915.8286,291682.555,292449.1744,303991.1414
Mixed,both,cave,16,F_jolt.wav,space,415.3707313,3321,300932.4901,293216.3222,293983.0835,294732.8386,295498.7865,296265.5908,297032.4285,297799.0228,301699.2931,302448.8359,303215.4862,303982.1275,304748.951,305515.3218,291682.555,292449.1744,304758.7714
Mixed,both,cave,16,M_gnash.wav,None,726.2548571,3321,300932.4901,293216.3222,293983.0835,294732.8386,295498.7865,296265.5908,297032.4285,297799.0228,301699.2931,302448.8359,303215.4862,303982.1275,304748.951,305515.3218,306282.3781,292449.1744,305524.2695
Mixed,both,cave,16,M_depth.wav,None,723.4772785,3321,300932.4901,293216.3222,293983.0835,294732.8386,295498.7865,296265.5908,297032.4285,297799.0228,301699.2931,302448.8359,303215.4862,303982.1275,304748.951,305515.3218,306282.3781,307049.1975,306292.2415
Mixed,both,cave,16,M_cave.wav,None,722.1769117,3321,300932.4901,307815.6401,293983.0835,294732.8386,295498.7865,296265.5908,297032.4285,297799.0228,301699.2931,302448.8359,303215.4862,303982.1275,304748.951,305515.3218,306282.3781,307049.1975,307058.5397
Mixed,both,cave,16,M_gnash.wav,space,524.7854983,3321,300932.4901,307815.6401,308565.0715,294732.8386,295498.7865,296265.5908,297032.4285,297799.0228,301699.2931,302448.8359,303215.4862,303982.1275,304748.951,305515.3218,306282.3781,307049.1975,307825.2781
Mixed,both,cave,16,F_greet.wav,None,735.6155812,3321,300932.4901,307815.6401,308565.0715,309331.9642,295498.7865,296265.5908,297032.4285,297799.0228,301699.2931,302448.8359,303215.4862,303982.1275,304748.951,305515.3218,306282.3781,307049.1975,308574.085
Mixed,both,cave,16,F_bluff.wav,None,733.7852978,3321,300932.4901,307815.6401,308565.0715,309331.9642,310099.151,296265.5908,297032.4285,297799.0228,301699.2931,302448.8359,303215.4862,303982.1275,304748.951,305515.3218,306282.3781,307049.1975,309341.0179
Mixed,both,cave,16,M_dime.wav,None,731.7726046,3321,300932.4901,307815.6401,308565.0715,309331.9642,310099.151,310865.4315,297032.4285,297799.0228,301699.2931,302448.8359,303215.4862,303982.1275,304748.951,305515.3218,306282.3781,307049.1975,310108.1231
Mixed,both,cave,16,M_depth.wav,None,730.5486026,3321,300932.4901,307815.6401,308565.0715,309331.9642,310099.151,310865.4315,311632.0206,297799.0228,301699.2931,302448.8359,303215.4862,303982.1275,304748.951,305515.3218,306282.3781,307049.1975,310874.5829
Mixed,both,cave,16,F_reek.wav,None,729.3252191,3321,300932.4901,307815.6401,308565.0715,309331.9642,310099.151,310865.4315,311632.0206,312398.3191,301699.2931,302448.8359,303215.4862,303982.1275,304748.951,305515.3218,306282.3781,307049.1975,311641.3365
Mixed,both,done,43,F_dime.wav,None,728.6982235,3321,315532.3382,307815.6401,308565.0715,309331.9642,310099.151,310865.4315,311632.0206,312398.3191,301699.2931,302448.8359,303215.4862,303982.1275,304748.951,305515.3218,306282.3781,307049.1975,312407.098
Mixed,both,done,43,M_dime.wav,None,720.8873659,3321,315532.3382,307815.6401,308565.0715,309331.9642,310099.151,310865.4315,311632.0206,312398.3191,316298.9656,302448.8359,303215.4862,303982.1275,304748.951,305515.3218,306282.3781,307049.1975,315542.0758
Mixed,both,done,43,F_gnash.wav,None,719.5100159,3321,315532.3382,307815.6401,308565.0715,309331.9642,310099.151,310865.4315,311632.0206,312398.3191,316298.9656,317048.3288,303215.4862,303982.1275,304748.951,305515.3218,306282.3781,307049.1975,316308.6352
Mixed,both,done,43,M_done.wav,None,735.890742,3321,315532.3382,307815.6401,308565.0715,309331.9642,310099.151,310865.4315,311632.0206,312398.3191,316298.9656,317048.3288,317814.9228,303982.1275,304748.951,305515.3218,306282.3781,307049.1975,317057.47
Mixed,both,done,43,F_reek.wav,space,733.6288581,3321,315532.3382,307815.6401,308565.0715,309331.9642,310099.151,310865.4315,311632.0206,312398.3191,316298.9656,317048.3288,317814.9228,318581.7787,304748.951,305515.3218,306282.3781,307049.1975,317824.1246
Mixed,both,done,43,F_done.wav,None,732.2187362,3321,315532.3382,307815.6401,308565.0715,309331.9642,310099.151,310865.4315,311632.0206,312398.3191,316298.9656,317048.3288,317814.9228,318581.7787,319348.4331,305515.3218,306282.3781,307049.1975,318590.9774
Mixed,both,done,43,F_lash.wav,None,730.5390184,3321,315532.3382,307815.6401,308565.0715,309331.9642,310099.151,310865.4315,311632.0206,312398.3191,316298.9656,317048.3288,317814.9228,318581.7787,319348.4331,320115.0704,306282.3781,307049.1975,319357.8933
Mixed,both,done,43,M_park.wav,space,73.57182261,3321,315532.3382,307815.6401,308565.0715,309331.9642,310099.151,310865.4315,311632.0206,312398.3191,316298.9656,317048.3288,317814.9228,318581.7787,319348.4331,320115.0704,320881.6484,307049.1975,320124.1532
Mixed,both,done,43,M_gnash.wav,None,726.990062,3321,315532.3382,307815.6401,308565.0715,309331.9642,310099.151,310865.4315,311632.0206,312398.3191,316298.9656,317048.3288,317814.9228,318581.7787,319348.4331,320115.0704,320881.6484,321648.3302,320890.9052
Mixed,both,done,43,M_jolt.wav,None,725.2942675,3321,315532.3382,322415.4149,308565.0715,309331.9642,310099.151,310865.4315,311632.0206,312398.3191,316298.9656,317048.3288,317814.9228,318581.7787,319348.4331,320115.0704,320881.6484,321648.3302,321657.878
Mixed,both,done,43,F_dime.wav,None,723.5066496,3321,315532.3382,322415.4149,323182.1107,309331.9642,310099.151,310865.4315,311632.0206,312398.3191,316298.9656,317048.3288,317814.9228,318581.7787,319348.4331,320115.0704,320881.6484,321648.3302,322424.8227
Mixed,both,done,43,M_done.wav,None,721.7984883,3321,315532.3382,322415.4149,323182.1107,323948.7082,310099.151,310865.4315,311632.0206,312398.3191,316298.9656,317048.3288,317814.9228,318581.7787,319348.4331,320115.0704,320881.6484,321648.3302,323191.6498
Mixed,both,done,43,M_gnash.wav,None,720.5160533,3321,315532.3382,322415.4149,323182.1107,323948.7082,324715.7502,310865.4315,311632.0206,312398.3191,316298.9656,317048.3288,317814.9228,318581.7787,319348.4331,320115.0704,320881.6484,321648.3302,323958.2624
Mixed,both,done,43,F_done.wav,None,718.5775606,3321,315532.3382,322415.4149,323182.1107,323948.7082,324715.7502,325464.5584,311632.0206,312398.3191,316298.9656,317048.3288,317814.9228,318581.7787,319348.4331,320115.0704,320881.6484,321648.3302,324725.6071
Mixed,both,done,43,M_depth.wav,space,483.7831338,3321,315532.3382,322415.4149,323182.1107,323948.7082,324715.7502,325464.5584,326231.5015,312398.3191,316298.9656,317048.3288,317814.9228,318581.7787,319348.4331,320115.0704,320881.6484,321648.3302,325473.7265
Mixed,both,done,43,F_romp.wav,None,733.068643,3321,315532.3382,322415.4149,323182.1107,323948.7082,324715.7502,325464.5584,326231.5015,326998.2346,316298.9656,317048.3288,317814.9228,318581.7787,319348.4331,320115.0704,320881.6484,321648.3302,326240.5876
Mixed,both,ball,2,M_jolt.wav,None,731.2655667,3321,330131.9708,322415.4149,323182.1107,323948.7082,324715.7502,325464.5584,326231.5015,326998.2346,316298.9656,317048.3288,317814.9228,318581.7787,319348.4331,320115.0704,320881.6484,321648.3302,327007.6331
Mixed,both,ball,2,F_ball.wav,None,720.0962012,3321,330131.9708,322415.4149,323182.1107,323948.7082,324715.7502,325464.5584,326231.5015,326998.2346,330898.4861,317048.3288,317814.9228,318581.7787,319348.4331,320115.0704,320881.6484,321648.3302,330141.4951
Mixed,both,ball,2,M_park.wav,space,417.2109079,3321,330131.9708,322415.4149,323182.1107,323948.7082,324715.7502,325464.5584,326231.5015,326998.2346,330898.4861,331648.081,317814.9228,318581.7787,319348.4331,320115.0704,320881.6484,321648.3302,330908.1875
Mixed,both,ball,2,F_romp.wav,None,732.9149857,3321,330131.9708,322415.4149,323182.1107,323948.7082,324715.7502,325464.5584,326231.5015,326998.2346,330898.4861,331648.081,332414.4717,318581.7787,319348.4331,320115.0704,320881.6484,321648.3302,331657.6566
Mixed,both,ball,2,M_greet.wav,None,732.4741102,3321,330131.9708,322415.4149,323182.1107,323948.7082,324715.7502,325464.5584,326231.5015,326998.2346,330898.4861,331648.081,332414.4717,333180.977,319348.4331,320115.0704,320881.6484,321648.3302,332423.4595
Mixed,both,ball,2,M_bluff.wav,None,731.3883069,3321,330131.9708,322415.4149,323182.1107,323948.7082,324715.7502,325464.5584,326231.5015,326998.2346,330898.4861,331648.081,332414.4717,333180.977,333947.6953,320115.0704,320881.6484,321648.3302,333189.762
Mixed,both,ball,2,M_reek.wav,None,730.012812,3321,330131.9708,322415.4149,323182.1107,323948.7082,324715.7502,325464.5584,326231.5015,326998.2346,330898.4861,331648.081,332414.4717,333180.977,333947.6953,334714.5339,320881.6484,321648.3302,333956.4111
Mixed,both,ball,2,F_jaw.wav,None,727.4813324,3321,330131.9708,322415.4149,323182.1107,323948.7082,324715.7502,325464.5584,326231.5015,326998.2346,330898.4861,331648.081,332414.4717,333180.977,333947.6953,334714.5339,335481.2285,321648.3302,334724.219
Mixed,both,ball,2,F_ball.wav,None,726.9337933,3321,330131.9708,322415.4149,323182.1107,323948.7082,324715.7502,325464.5584,326231.5015,326998.2346,330898.4861,331648.081,332414.4717,333180.977,333947.6953,334714.5339,335481.2285,336247.8868,335490.2457
Mixed,both,ball,2,F_bluff.wav,space,539.717147,3321,330131.9708,337014.9196,323182.1107,323948.7082,324715.7502,325464.5584,326231.5015,326998.2346,330898.4861,331648.081,332414.4717,333180.977,333947.6953,334714.5339,335481.2285,336247.8868,336257.4841
Mixed,both,ball,2,F_cling.wav,None,727.7048619,3321,330131.9708,337014.9196,337781.62,323948.7082,324715.7502,325464.5584,326231.5015,326998.2346,330898.4861,331648.081,332414.4717,333180.977,333947.6953,334714.5339,335481.2285,336247.8868,337019.0368
Mixed,both,ball,2,F_cad.wav,None,720.995266,3321,330131.9708,337014.9196,337781.62,338548.0935,324715.7502,325464.5584,326231.5015,326998.2346,330898.4861,331648.081,332414.4717,333180.977,333947.6953,334714.5339,335481.2285,336247.8868,337791.0583
Mixed,both,ball,2,M_ball.wav,None,719.6157518,3321,330131.9708,337014.9196,337781.62,338548.0935,339297.5617,325464.5584,326231.5015,326998.2346,330898.4861,331648.081,332414.4717,333180.977,333947.6953,334714.5339,335481.2285,336247.8868,338558.0698
Mixed,both,ball,2,F_park.wav,space,682.6894776,3321,330131.9708,337014.9196,337781.62,338548.0935,339297.5617,340064.161,326231.5015,326998.2346,330898.4861,331648.081,332414.4717,333180.977,333947.6953,334714.5339,335481.2285,336247.8868,339306.3953
Mixed,both,ball,2,M_ball.wav,None,734.1729964,3321,330131.9708,337014.9196,337781.62,338548.0935,339297.5617,340064.161,340831.1023,326998.2346,330898.4861,331648.081,332414.4717,333180.977,333947.6953,334714.5339,335481.2285,336247.8868,340073.0221
Mixed,both,ball,2,M_knife.wav,None,732.4997712,3321,330131.9708,337014.9196,337781.62,338548.0935,339297.5617,340064.161,340831.1023,341597.7031,330898.4861,331648.081,332414.4717,333180.977,333947.6953,334714.5339,335481.2285,336247.8868,340840.0657
Mixed,both,done,45,M_lash.wav,space,414.3062609,3321,344731.3305,337014.9196,337781.62,338548.0935,339297.5617,340064.161,340831.1023,341597.7031,330898.4861,331648.081,332414.4717,333180.977,333947.6953,334714.5339,335481.2285,336247.8868,341606.7262
Mixed,both,done,45,F_greet.wav,None,720.9479631,3321,344731.3305,337014.9196,337781.62,338548.0935,339297.5617,340064.161,340831.1023,341597.7031,345497.8584,331648.081,332414.4717,333180.977,333947.6953,334714.5339,335481.2285,336247.8868,344741.1302
Mixed,both,done,45,M_park.wav,None,719.8213495,3321,344731.3305,337014.9196,337781.62,338548.0935,339297.5617,340064.161,340831.1023,341597.7031,345497.8584,346247.3733,332414.4717,333180.977,333947.6953,334714.5339,335481.2285,336247.8868,345507.6102
Mixed,both,done,45,M_cling.wav,None,736.4939316,3321,344731.3305,337014.9196,337781.62,338548.0935,339297.5617,340064.161,340831.1023,341597.7031,345497.8584,346247.3733,347014.0023,333180.977,333947.6953,334714.5339,335481.2285,336247.8868,346256.1481
Mixed,both,done,45,M_park.wav,None,735.0426902,3321,344731.3305,337014.9196,337781.62,338548.0935,339297.5617,340064.161,340831.1023,341597.7031,345497.8584,346247.3733,347014.0023,347780.503,333947.6953,334714.5339,335481.2285,336247.8868,347023.0254
Mixed,both,done,45,F_done.wav,None,734.0718979,3321,344731.3305,337014.9196,337781.62,338548.0935,339297.5617,340064.161,340831.1023,341597.7031,345497.8584,346247.3733,347014.0023,347780.503,348547.5212,334714.5339,335481.2285,336247.8868,347789.2985
Mixed,both,done,45,M_priest.wav,space,367.7039096,3321,344731.3305,337014.9196,337781.62,338548.0935,339297.5617,340064.161,340831.1023,341597.7031,345497.8584,346247.3733,347014.0023,347780.503,348547.5212,349313.9758,335481.2285,336247.8868,348557.1085
Mixed,both,done,45,M_knife.wav,None,729.8217453,3321,344731.3305,337014.9196,337781.62,338548.0935,339297.5617,340064.161,340831.1023,341597.7031,345497.8584,346247.3733,347014.0023,347780.503,348547.5212,349313.9758,350080.9764,336247.8868,349322.9841
Mixed,both,done,45,F_done.wav,None,727.9781677,3321,344731.3305,337014.9196,337781.62,338548.0935,339297.5617,340064.161,340831.1023,341597.7031,345497.8584,346247.3733,347014.0023,347780.503,348547.5212,349313.9758,350080.9764,350847.4385,350090.343
Mixed,both,done,45,F_greet.wav,space,492.2673623,3321,344731.3305,351613.9361,337781.62,338548.0935,339297.5617,340064.161,340831.1023,341597.7031,345497.8584,346247.3733,347014.0023,347780.503,348547.5212,349313.9758,350080.9764,350847.4385,350856.5076
Mixed,both,done,45,M_done.wav,None,724.9634562,3321,344731.3305,351613.9361,352381.2291,338548.0935,339297.5617,340064.161,340831.1023,341597.7031,345497.8584,346247.3733,347014.0023,347780.503,348547.5212,349313.9758,350080.9764,350847.4385,351623.5679
Mixed,both,done,45,F_romp.wav,space,565.9350274,3321,344731.3305,351613.9361,352381.2291,353147.7759,339297.5617,340064.161,340831.1023,341597.7031,345497.8584,346247.3733,347014.0023,347780.503,348547.5212,349313.9758,350080.9764,350847.4385,352390.7775
Mixed,both,done,45,F_jolt.wav,None,721.1164604,3321,344731.3305,351613.9361,352381.2291,353147.7759,353914.1198,340064.161,340831.1023,341597.7031,345497.8584,346247.3733,347014.0023,347780.503,348547.5212,349313.9758,350080.9764,350847.4385,353157.4498
Mixed,both,done,45,F_priest.wav,None,719.9391432,3321,344731.3305,351613.9361,352381.2291,353147.7759,353914.1198,354664.4896,340831.1023,341597.7031,345497.8584,346247.3733,347014.0023,347780.503,348547.5212,349313.9758,350080.9764,350847.4385,353924.0995
Mixed,both,done,45,M_done.wav,None,735.9686528,3321,344731.3305,351613.9361,352381.2291,353147.7759,353914.1198,354664.4896,355430.4656,341597.7031,345497.8584,346247.3733,347014.0023,347780.503,348547.5212,349313.9758,350080.9764,350847.4385,354673.5761
Mixed,both,done,45,F_romp.wav,space,676.4971223,3321,344731.3305,351613.9361,352381.2291,353147.7759,353914.1198,354664.4896,355430.4656,356197.3305,345497.8584,346247.3733,347014.0023,347780.503,348547.5212,349313.9758,350080.9764,350847.4385,355440.1309
Mixed,both,tile,29,F_dime.wav,None,732.0279785,3321,359331.1344,351613.9361,352381.2291,353147.7759,353914.1198,354664.4896,355430.4656,356197.3305,345497.8584,346247.3733,347014.0023,347780.503,348547.5212,349313.9758,350080.9764,350847.4385,356206.7404
Mixed,both,tile,29,M_park.wav,None,720.1809136,3321,359331.1344,351613.9361,352381.2291,353147.7759,353914.1198,354664.4896,355430.4656,356197.3305,360097.7535,346247.3733,347014.0023,347780.503,348547.5212,349313.9758,350080.9764,350847.4385,359340.6343
Mixed,both,tile,29,F_lash.wav,None,718.9615492,3321,359331.1344,351613.9361,352381.2291,353147.7759,353914.1198,354664.4896,355430.4656,356197.3305,360097.7535,360846.9954,347014.0023,347780.503,348547.5212,349313.9758,350080.9764,350847.4385,360107.3854
Mixed,both,tile,29,M_park.wav,None,735.938354,3321,359331.1344,351613.9361,352381.2291,353147.7759,353914.1198,354664.4896,355430.4656,356197.3305,360097.7535,360846.9954,361613.4875,347780.503,348547.5212,349313.9758,350080.9764,350847.4385,360856.0232
Mixed,both,tile,29,M_priest.wav,None,734.9610694,3321,359331.1344,351613.9361,352381.2291,353147.7759,353914.1198,354664.4896,355430.4656,356197.3305,360097.7535,360846.9954,361613.4875,362380.382,348547.5212,349313.9758,350080.9764,350847.4385,361622.6769
Mixed,both,tile,29,M_tile.wav,None,734.1176551,3321,359331.1344,351613.9361,352381.2291,353147.7759,353914.1198,354664.4896,355430.4656,356197.3305,360097.7535,360846.9954,361613.4875,362380.382,363146.8778,349313.9758,350080.9764,350847.4385,362389.4153
Mixed,both,tile,29,M_priest.wav,space,504.6876275,3321,359331.1344,351613.9361,352381.2291,353147.7759,353914.1198,354664.4896,355430.4656,356197.3305,360097.7535,360846.9954,361613.4875,362380.382,363146.8778,363913.5618,350080.9764,350847.4385,363155.7042
Mixed,both,tile,29,M_tile.wav,None,730.3980371,3321,359331.1344,351613.9361,352381.2291,353147.7759,353914.1198,354664.4896,355430.4656,356197.3305,360097.7535,360846.9954,361613.4875,362380.382,363146.8778,363913.5618,364679.9849,350847.4385,363922.5883
Mixed,both,tile,29,M_knife.wav,space,659.2445383,3321,359331.1344,351613.9361,352381.2291,353147.7759,353914.1198,354664.4896,355430.4656,356197.3305,360097.7535,360846.9954,361613.4875,362380.382,363146.8778,363913.5618,364679.9849,365446.9991,364689.072
Mixed,both,tile,29,F_tile.wav,None,726.4347937,3321,359331.1344,366213.4457,352381.2291,353147.7759,353914.1198,354664.4896,355430.4656,356197.3305,360097.7535,360846.9954,361613.4875,362380.382,363146.8778,363913.5618,364679.9849,365446.9991,365456.0383
Mixed,both,tile,29,F_cling.wav,space,662.1887591,3321,359331.1344,366213.4457,366980.7415,353147.7759,353914.1198,354664.4896,355430.4656,356197.3305,360097.7535,360846.9954,361613.4875,362380.382,363146.8778,363913.5618,364679.9849,365446.9991,366222.1194
Mixed,both,tile,29,F_jolt.wav,None,721.5687754,3321,359331.1344,366213.4457,366980.7415,367747.3078,353914.1198,354664.4896,355430.4656,356197.3305,360097.7535,360846.9954,361613.4875,362380.382,363146.8778,363913.5618,364679.9849,365446.9991,366990.6037
Mixed,both,tile,29,F_tile.wav,None,720.8029625,3321,359331.1344,366213.4457,366980.7415,367747.3078,368513.9259,354664.4896,355430.4656,356197.3305,360097.7535,360846.9954,361613.4875,362380.382,363146.8778,363913.5618,364679.9849,365446.9991,367756.8994
Mixed,both,tile,29,M_cad.wav,None,720.075796,3321,359331.1344,366213.4457,366980.7415,367747.3078,368513.9259,369280.2176,355430.4656,356197.3305,360097.7535,360846.9954,361613.4875,362380.382,363146.8778,363913.5618,364679.9849,365446.9991,368523.5652
Mixed,both,tile,29,F_bluff.wav,space,0.026588561,3321,359331.1344,366213.4457,366980.7415,367747.3078,368513.9259,369280.2176,370030.0179,356197.3305,360097.7535,360846.9954,361613.4875,362380.382,363146.8778,363913.5618,364679.9849,365446.9991,369289.6191
Mixed,both,tile,29,F_priest.wav,None,734.2756407,3321,359331.1344,366213.4457,366980.7415,367747.3078,368513.9259,369280.2176,370030.0179,370796.8642,360097.7535,360846.9954,361613.4875,362380.382,363146.8778,363913.5618,364679.9849,365446.9991,370039.1285
Mixed,both,done,44,M_dime.wav,None,733.0395812,3321,373930.5822,366213.4457,366980.7415,367747.3078,368513.9259,369280.2176,370030.0179,370796.8642,360097.7535,360846.9954,361613.4875,362380.382,363146.8778,363913.5618,364679.9849,365446.9991,370805.9618
Mixed,both,done,44,F_done.wav,None,721.1078036,3321,373930.5822,366213.4457,366980.7415,367747.3078,368513.9259,369280.2176,370030.0179,370796.8642,374697.1772,360846.9954,361613.4875,362380.382,363146.8778,363913.5618,364679.9849,365446.9991,373940.1748
Mixed,both,done,44,F_cling.wav,space,473.118642,3321,373930.5822,366213.4457,366980.7415,367747.3078,368513.9259,369280.2176,370030.0179,370796.8642,374697.1772,375446.3217,361613.4875,362380.382,363146.8778,363913.5618,364679.9849,365446.9991,374706.924
Mixed,both,done,44,F_dime.wav,None,735.4038,3321,373930.5822,366213.4457,366980.7415,367747.3078,368513.9259,369280.2176,370030.0179,370796.8642,374697.1772,375446.3217,376213.1844,362380.382,363146.8778,363913.5618,364679.9849,365446.9991,375455.2635
Mixed,both,done,44,M_done.wav,None,734.1708322,3321,373930.5822,366213.4457,366980.7415,367747.3078,368513.9259,369280.2176,370030.0179,370796.8642,374697.1772,375446.3217,376213.1844,376980.0406,363146.8778,363913.5618,364679.9849,365446.9991,376222.0443
Mixed,both,done,44,M_depth.wav,space,566.8090496,3321,373930.5822,366213.4457,366980.7415,367747.3078,368513.9259,369280.2176,370030.0179,370796.8642,374697.1772,375446.3217,376213.1844,376980.0406,377746.3289,363913.5618,364679.9849,365446.9991,376989.1077
Mixed,both,done,44,F_cling.wav,None,733.9500852,3321,373930.5822,366213.4457,366980.7415,367747.3078,368513.9259,369280.2176,370030.0179,370796.8642,374697.1772,375446.3217,376213.1844,376980.0406,377746.3289,378513.0488,364679.9849,365446.9991,377755.0231
Mixed,both,done,44,F_greet.wav,None,732.4840036,3321,373930.5822,366213.4457,366980.7415,367747.3078,368513.9259,369280.2176,370030.0179,370796.8642,374697.1772,375446.3217,376213.1844,376980.0406,377746.3289,378513.0488,379279.9023,365446.9991,378522.0197
Mixed,both,done,44,F_done.wav,None,731.1613766,3321,373930.5822,366213.4457,366980.7415,367747.3078,368513.9259,369280.2176,370030.0179,370796.8642,374697.1772,375446.3217,376213.1844,376980.0406,377746.3289,378513.0488,379279.9023,380046.5758,379288.922
Mixed,both,done,44,F_dime.wav,space,580.1688806,3321,373930.5822,380813.0409,366980.7415,367747.3078,368513.9259,369280.2176,370030.0179,370796.8642,374697.1772,375446.3217,376213.1844,376980.0406,377746.3289,378513.0488,379279.9023,380046.5758,380055.7065
Mixed,both,done,44,M_dime.wav,None,727.8934552,3321,373930.5822,380813.0409,381579.9126,367747.3078,368513.9259,369280.2176,370030.0179,370796.8642,374697.1772,375446.3217,376213.1844,376980.0406,377746.3289,378513.0488,379279.9023,380046.5758,380821.6751
Mixed,both,done,44,F_romp.wav,None,726.1519035,3321,373930.5822,380813.0409,381579.9126,382346.4637,368513.9259,369280.2176,370030.0179,370796.8642,374697.1772,375446.3217,376213.1844,376980.0406,377746.3289,378513.0488,379279.9023,380046.5758,381589.0124
Mixed,both,done,44,M_knife.wav,None,724.7090098,3321,373930.5822,380813.0409,381579.9126,382346.4637,383113.1978,369280.2176,370030.0179,370796.8642,374697.1772,375446.3217,376213.1844,376980.0406,377746.3289,378513.0488,379279.9023,380046.5758,382355.9168
Mixed,both,done,44,M_cling.wav,None,724.4032412,3321,373930.5822,380813.0409,381579.9126,382346.4637,383113.1978,383879.6372,370030.0179,370796.8642,374697.1772,375446.3217,376213.1844,376980.0406,377746.3289,378513.0488,379279.9023,380046.5758,383121.9513
Mixed,both,done,44,M_done.wav,None,723.7038998,3321,373930.5822,380813.0409,381579.9126,382346.4637,383113.1978,383879.6372,384646.7615,370796.8642,374697.1772,375446.3217,376213.1844,376980.0406,377746.3289,378513.0488,379279.9023,380046.5758,383888.733
Mixed,both,done,44,M_knife.wav,space,659.4693045,3321,373930.5822,380813.0409,381579.9126,382346.4637,383113.1978,383879.6372,384646.7615,385396.4128,374697.1772,375446.3217,376213.1844,376980.0406,377746.3289,378513.0488,379279.9023,380046.5758,384656.2645
Mixed,both,cave,23,F_knife.wav,None,736.7131327,3321,388529.445,380813.0409,381579.9126,382346.4637,383113.1978,383879.6372,384646.7615,385396.4128,374697.1772,375446.3217,376213.1844,376980.0406,377746.3289,378513.0488,379279.9023,380046.5758,385405.4186
Mixed,both,cave,23,M_cave.wav,None,722.5463693,3321,388529.445,380813.0409,381579.9126,382346.4637,383113.1978,383879.6372,384646.7615,385396.4128,389296.6234,375446.3217,376213.1844,376980.0406,377746.3289,378513.0488,379279.9023,380046.5758,388538.3444
Mixed,both,cave,23,F_reek.wav,space,433.3810897,3321,388529.445,380813.0409,381579.9126,382346.4637,383113.1978,383879.6372,384646.7615,385396.4128,389296.6234,390046.1967,376213.1844,376980.0406,377746.3289,378513.0488,379279.9023,380046.5758,389306.2212
Mixed,both,cave,23,M_cad.wav,None,735.1165815,3321,388529.445,380813.0409,381579.9126,382346.4637,383113.1978,383879.6372,384646.7615,385396.4128,389296.6234,390046.1967,390812.7339,376980.0406,377746.3289,378513.0488,379279.9023,380046.5758,390055.3126
Mixed,both,cave,23,M_romp.wav,None,733.6539008,3321,388529.445,380813.0409,381579.9126,382346.4637,383113.1978,383879.6372,384646.7615,385396.4128,389296.6234,390046.1967,390812.7339,391579.5165,377746.3289,378513.0488,379279.9023,380046.5758,390822.4307
Mixed,both,cave,23,F_cave.wav,None,733.1310953,3321,388529.445,380813.0409,381579.9126,382346.4637,383113.1978,383879.6372,384646.7615,385396.4128,389296.6234,390046.1967,390812.7339,391579.5165,392346.1715,378513.0488,379279.9023,380046.5758,391588.5208
Mixed,both,cave,23,M_greet.wav,space,552.0452796,3321,388529.445,380813.0409,381579.9126,382346.4637,383113.1978,383879.6372,384646.7615,385396.4128,389296.6234,390046.1967,390812.7339,391579.5165,392346.1715,393112.7176,379279.9023,380046.5758,392355.4466
Mixed,both,cave,23,M_cave.wav,None,729.939848,3321,388529.445,380813.0409,381579.9126,382346.4637,383113.1978,383879.6372,384646.7615,385396.4128,389296.6234,390046.1967,390812.7339,391579.5165,392346.1715,393112.7176,393879.5058,380046.5758,393121.5741
Mixed,both,cave,23,F_bluff.wav,space,714.8727829,3321,388529.445,380813.0409,381579.9126,382346.4637,383113.1978,383879.6372,384646.7615,385396.4128,389296.6234,390046.1967,390812.7339,391579.5165,392346.1715,393112.7176,393879.5058,394646.1089,393888.5651
Mixed,both,cave,23,M_dime.wav,None,726.1788014,3321,388529.445,395412.9586,381579.9126,382346.4637,383113.1978,383879.6372,384646.7615,385396.4128,389296.6234,390046.1967,390812.7339,391579.5165,392346.1715,393112.7176,393879.5058,394646.1089,394655.5809
Mixed,both,cave,23,M_reek.wav,None,725.4238096,3321,388529.445,395412.9586,396179.8553,382346.4637,383113.1978,383879.6372,384646.7615,385396.4128,389296.6234,390046.1967,390812.7339,391579.5165,392346.1715,393112.7176,393879.5058,394646.1089,395421.9721
Mixed,both,cave,23,F_cave.wav,None,723.8399343,3321,388529.445,395412.9586,396179.8553,396946.4543,383113.1978,383879.6372,384646.7615,385396.4128,389296.6234,390046.1967,390812.7339,391579.5165,392346.1715,393112.7176,393879.5058,394646.1089,396189.3437
Mixed,both,cave,23,F_park.wav,space,551.2244347,3321,388529.445,395412.9586,396179.8553,396946.4543,397712.8653,383879.6372,384646.7615,385396.4128,389296.6234,390046.1967,390812.7339,391579.5165,392346.1715,393112.7176,393879.5058,394646.1089,396956.1109
Mixed,both,cave,23,F_bluff.wav,None,720.854903,3321,388529.445,395412.9586,396179.8553,396946.4543,397712.8653,398479.4996,384646.7615,385396.4128,389296.6234,390046.1967,390812.7339,391579.5165,392346.1715,393112.7176,393879.5058,394646.1089,397722.4842
Mixed,both,cave,23,F_lash.wav,None,720.209048,3321,388529.445,395412.9586,396179.8553,396946.4543,397712.8653,398479.4996,399229.5596,385396.4128,389296.6234,390046.1967,390812.7339,391579.5165,392346.1715,393112.7176,393879.5058,394646.1089,398488.9055
Mixed,both,cave,23,M_gnash.wav,None,736.1634295,3321,388529.445,395412.9586,396179.8553,396946.4543,397712.8653,398479.4996,399229.5596,399995.8343,389296.6234,390046.1967,390812.7339,391579.5165,392346.1715,393112.7176,393879.5058,394646.1089,399238.6
Mixed,both,tile,27,F_reek.wav,None,735.5701332,3321,403129.6428,395412.9586,396179.8553,396946.4543,397712.8653,398479.4996,399229.5596,399995.8343,389296.6234,390046.1967,390812.7339,391579.5165,392346.1715,393112.7176,393879.5058,394646.1089,400004.879
Mixed,both,tile,27,M_gnash.wav,None,721.1226438,3321,403129.6428,395412.9586,396179.8553,396946.4543,397712.8653,398479.4996,399229.5596,399995.8343,403896.3877,390046.1967,390812.7339,391579.5165,392346.1715,393112.7176,393879.5058,394646.1089,403139.2308
Mixed,both,tile,27,M_jolt.wav,None,720.0059238,3321,403129.6428,395412.9586,396179.8553,396946.4543,397712.8653,398479.4996,399229.5596,399995.8343,403896.3877,404662.5502,390812.7339,391579.5165,392346.1715,393112.7176,393879.5058,394646.1089,403906.1334
Mixed,both,tile,27,M_tile.wav,None,720.478953,3321,403129.6428,395412.9586,396179.8553,396946.4543,397712.8653,398479.4996,399229.5596,399995.8343,403896.3877,404662.5502,405412.6129,391579.5165,392346.1715,393112.7176,393879.5058,394646.1089,404671.5
Mixed,both,tile,27,F_jaw.wav,space,437.5987796,3321,403129.6428,395412.9586,396179.8553,396946.4543,397712.8653,398479.4996,399229.5596,399995.8343,403896.3877,404662.5502,405412.6129,406178.7516,392346.1715,393112.7176,393879.5058,394646.1089,405421.5306
Mixed,both,tile,27,M_tile.wav,None,734.3554064,3321,403129.6428,395412.9586,396179.8553,396946.4543,397712.8653,398479.4996,399229.5596,399995.8343,403896.3877,404662.5502,405412.6129,406178.7516,406945.8542,393112.7176,393879.5058,394646.1089,406187.5722
Mixed,both,tile,27,M_romp.wav,space,591.8477575,3321,403129.6428,395412.9586,396179.8553,396946.4543,397712.8653,398479.4996,399229.5596,399995.8343,403896.3877,404662.5502,405412.6129,406178.7516,406945.8542,407712.1839,393879.5058,394646.1089,406955.2347
Mixed,both,tile,27,F_dime.wav,None,730.5708629,3321,403129.6428,395412.9586,396179.8553,396946.4543,397712.8653,398479.4996,399229.5596,399995.8343,403896.3877,404662.5502,405412.6129,406178.7516,406945.8542,407712.1839,408479.021,394646.1089,407721.1041
Mixed,both,tile,27,F_tile.wav,None,729.5286526,3321,403129.6428,395412.9586,396179.8553,396946.4543,397712.8653,398479.4996,399229.5596,399995.8343,403896.3877,404662.5502,405412.6129,406178.7516,406945.8542,407712.1839,408479.021,409245.1108,408488.0423
Mixed,both,tile,27,F_park.wav,space,685.2562026,3321,403129.6428,410012.1188,396179.8553,396946.4543,397712.8653,398479.4996,399229.5596,399995.8343,403896.3877,404662.5502,405412.6129,406178.7516,406945.8542,407712.1839,408479.021,409245.1108,409253.7462
Mixed,both,tile,27,F_reek.wav,None,729.3635561,3321,403129.6428,410012.1188,410779.0527,396946.4543,397712.8653,398479.4996,399229.5596,399995.8343,403896.3877,404662.5502,405412.6129,406178.7516,406945.8542,407712.1839,408479.021,409245.1108,410021.2335
Mixed,both,tile,27,F_dime.wav,None,728.8153986,3321,403129.6428,410012.1188,410779.0527,411545.6532,397712.8653,398479.4996,399229.5596,399995.8343,403896.3877,404662.5502,405412.6129,406178.7516,406945.8542,407712.1839,408479.021,409245.1108,410788.0065
Mixed,both,tile,27,F_tile.wav,None,727.5725373,3321,403129.6428,410012.1188,410779.0527,411545.6532,412312.0185,398479.4996,399229.5596,399995.8343,403896.3877,404662.5502,405412.6129,406178.7516,406945.8542,407712.1839,408479.021,409245.1108,411555.1939
Mixed,both,tile,27,M_reek.wav,space,498.2776169,3321,403129.6428,410012.1188,410779.0527,411545.6532,412312.0185,413079.4977,399229.5596,399995.8343,403896.3877,404662.5502,405412.6129,406178.7516,406945.8542,407712.1839,408479.021,409245.1108,412320.6542
Mixed,both,tile,27,M_jaw.wav,None,723.5171614,3321,403129.6428,410012.1188,410779.0527,411545.6532,412312.0185,413079.4977,413845.931,399995.8343,403896.3877,404662.5502,405412.6129,406178.7516,406945.8542,407712.1839,408479.021,409245.1108,413089.2081
Mixed,both,tile,27,M_cling.wav,None,723.0085776,3321,403129.6428,410012.1188,410779.0527,411545.6532,412312.0185,413079.4977,413845.931,414612.4573,403896.3877,404662.5502,405412.6129,406178.7516,406945.8542,407712.1839,408479.021,409245.1108,413855.6358
Mixed,both,ball,8,M_greet.wav,None,723.2688983,3321,417729.1221,410012.1188,410779.0527,411545.6532,412312.0185,413079.4977,413845.931,414612.4573,403896.3877,404662.5502,405412.6129,406178.7516,406945.8542,407712.1839,408479.021,409245.1108,414621.9355
Mixed,both,ball,8,M_park.wav,None,720.6932075,3321,417729.1221,410012.1188,410779.0527,411545.6532,412312.0185,413079.4977,413845.931,414612.4573,418495.6203,404662.5502,405412.6129,406178.7516,406945.8542,407712.1839,408479.021,409245.1108,417739.3077
Mixed,both,ball,8,M_ball.wav,None,721.1479957,3321,417729.1221,410012.1188,410779.0527,411545.6532,412312.0185,413079.4977,413845.931,414612.4573,418495.6203,419262.36,405412.6129,406178.7516,406945.8542,407712.1839,408479.021,409245.1108,418504.7668
Mixed,both,ball,8,M_jolt.wav,space,546.7847611,3321,417729.1221,410012.1188,410779.0527,411545.6532,412312.0185,413079.4977,413845.931,414612.4573,418495.6203,419262.36,420011.6464,406178.7516,406945.8542,407712.1839,408479.021,409245.1108,419271.9572
Mixed,both,ball,8,F_jolt.wav,None,735.1150358,3321,417729.1221,410012.1188,410779.0527,411545.6532,412312.0185,413079.4977,413845.931,414612.4573,418495.6203,419262.36,420011.6464,420778.3048,406945.8542,407712.1839,408479.021,409245.1108,420020.5295
Mixed,both,ball,8,F_knife.wav,None,734.5269955,3321,417729.1221,410012.1188,410779.0527,411545.6532,412312.0185,413079.4977,413845.931,414612.4573,418495.6203,419262.36,420011.6464,420778.3048,421544.8194,407712.1839,408479.021,409245.1108,420787.3069
Mixed,both,ball,8,F_dime.wav,None,734.7786594,3321,417729.1221,410012.1188,410779.0527,411545.6532,412312.0185,413079.4977,413845.931,414612.4573,418495.6203,419262.36,420011.6464,420778.3048,421544.8194,422311.824,408479.021,409245.1108,421553.52
Mixed,both,ball,8,F_ball.wav,None,733.4427381,3321,417729.1221,410012.1188,410779.0527,411545.6532,412312.0185,413079.4977,413845.931,414612.4573,418495.6203,419262.36,420011.6464,420778.3048,421544.8194,422311.824,423078.5875,409245.1108,422320.7445
Mixed,both,ball,8,F_park.wav,space,411.0343202,3321,417729.1221,410012.1188,410779.0527,411545.6532,412312.0185,413079.4977,413845.931,414612.4573,418495.6203,419262.36,420011.6464,420778.3048,421544.8194,422311.824,423078.5875,423844.9425,423087.5738
Mixed,both,ball,8,M_greet.wav,None,730.702569,3321,417729.1221,424611.8111,410779.0527,411545.6532,412312.0185,413079.4977,413845.931,414612.4573,418495.6203,419262.36,420011.6464,420778.3048,421544.8194,422311.824,423078.5875,423844.9425,423853.6868
Mixed,both,ball,8,M_ball.wav,None,729.956234,3321,417729.1221,424611.8111,425378.587,411545.6532,412312.0185,413079.4977,413845.931,414612.4573,418495.6203,419262.36,420011.6464,420778.3048,421544.8194,422311.824,423078.5875,423844.9425,424620.7934
Mixed,both,ball,8,F_romp.wav,None,728.5065383,3321,417729.1221,424611.8111,425378.587,426145.1928,412312.0185,413079.4977,413845.931,414612.4573,418495.6203,419262.36,420011.6464,420778.3048,421544.8194,422311.824,423078.5875,423844.9425,425388.2927
Mixed,both,ball,8,M_lash.wav,space,256.2399674,3321,417729.1221,424611.8111,425378.587,426145.1928,426911.6548,413079.4977,413845.931,414612.4573,418495.6203,419262.36,420011.6464,420778.3048,421544.8194,422311.824,423078.5875,423844.9425,426154.2991
Mixed,both,ball,8,F_ball.wav,None,726.2817548,3321,417729.1221,424611.8111,425378.587,426145.1928,426911.6548,427678.4894,413845.931,414612.4573,418495.6203,419262.36,420011.6464,420778.3048,421544.8194,422311.824,423078.5875,423844.9425,426920.3181
Mixed,both,ball,8,M_gnash.wav,space,466.8956788,3321,417729.1221,424611.8111,425378.587,426145.1928,426911.6548,427678.4894,428445.5933,414612.4573,418495.6203,419262.36,420011.6464,420778.3048,421544.8194,422311.824,423078.5875,423844.9425,427687.5808
Mixed,both,ball,8,F_cling.wav,None,721.0199996,3321,417729.1221,424611.8111,425378.587,426145.1928,426911.6548,427678.4894,428445.5933,429211.9895,418495.6203,419262.36,420011.6464,420778.3048,421544.8194,422311.824,423078.5875,423844.9425,428455.4867
Mixed,both,ball,7,F_dime.wav,None,722.0105785,3321,432328.2458,424611.8111,425378.587,426145.1928,426911.6548,427678.4894,428445.5933,429211.9895,418495.6203,419262.36,420011.6464,420778.3048,421544.8194,422311.824,423078.5875,423844.9425,429220.8076
Mixed,both,ball,7,F_cad.wav,None,722.4050788,3321,432328.2458,424611.8111,425378.587,426145.1928,426911.6548,427678.4894,428445.5933,429211.9895,433094.8665,419262.36,420011.6464,420778.3048,421544.8194,422311.824,423078.5875,423844.9425,432337.1833
Mixed,both,ball,7,M_lash.wav,None,721.816111,3321,432328.2458,424611.8111,425378.587,426145.1928,426911.6548,427678.4894,428445.5933,429211.9895,433094.8665,433861.4822,420011.6464,420778.3048,421544.8194,422311.824,423078.5875,423844.9425,433103.932
Mixed,both,ball,7,F_bluff.wav,None,721.5038498,3321,432328.2458,424611.8111,425378.587,426145.1928,426911.6548,427678.4894,428445.5933,429211.9895,433094.8665,433861.4822,434628.7876,420778.3048,421544.8194,422311.824,423078.5875,423844.9425,433870.3173
Mixed,both,ball,7,F_ball.wav,None,718.9983404,3321,432328.2458,424611.8111,425378.587,426145.1928,426911.6548,427678.4894,428445.5933,429211.9895,433094.8665,433861.4822,434628.7876,435378.4698,421544.8194,422311.824,423078.5875,423844.9425,434638.5877
Mixed,both,ball,7,F_dime.wav,None,736.3622254,3321,432328.2458,424611.8111,425378.587,426145.1928,426911.6548,427678.4894,428445.5933,429211.9895,433094.8665,433861.4822,434628.7876,435378.4698,436144.9303,422311.824,423078.5875,423844.9425,435387.4543
Mixed,both,ball,7,F_ball.wav,space,175.8908409,3321,432328.2458,424611.8111,425378.587,426145.1928,426911.6548,427678.4894,428445.5933,429211.9895,433094.8665,433861.4822,434628.7876,435378.4698,436144.9303,436911.4081,423078.5875,423844.9425,436154.3303
Mixed,both,ball,7,M_knife.wav,space,553.7945606,3321,432328.2458,424611.8111,425378.587,426145.1928,426911.6548,427678.4894,428445.5933,429211.9895,433094.8665,433861.4822,434628.7876,435378.4698,436144.9303,436911.4081,437678.1308,423844.9425,436920.3406
Mixed,both,ball,7,M_ball.wav,None,730.5878672,3321,432328.2458,424611.8111,425378.587,426145.1928,426911.6548,427678.4894,428445.5933,429211.9895,433094.8665,433861.4822,434628.7876,435378.4698,436144.9303,436911.4081,437678.1308,438444.7935,437687.1536
Mixed,both,ball,7,M_lash.wav,space,515.7515663,3321,432328.2458,439211.3232,425378.587,426145.1928,426911.6548,427678.4894,428445.5933,429211.9895,433094.8665,433861.4822,434628.7876,435378.4698,436144.9303,436911.4081,437678.1308,438444.7935,438454.3892
Mixed,both,ball,7,M_ball.wav,None,727.6890943,3321,432328.2458,439211.3232,439978.0607,426145.1928,426911.6548,427678.4894,428445.5933,429211.9895,433094.8665,433861.4822,434628.7876,435378.4698,436144.9303,436911.4081,437678.1308,438444.7935,439220.2007
Mixed,both,ball,7,M_jolt.wav,space,487.0173556,3321,432328.2458,439211.3232,439978.0607,440745.1655,426911.6548,427678.4894,428445.5933,429211.9895,433094.8665,433861.4822,434628.7876,435378.4698,436144.9303,436911.4081,437678.1308,438444.7935,439987.0832
Mixed,both,ball,7,M_bluff.wav,None,722.8731614,3321,432328.2458,439211.3232,439978.0607,440745.1655,441511.3774,427678.4894,428445.5933,429211.9895,433094.8665,433861.4822,434628.7876,435378.4698,436144.9303,436911.4081,437678.1308,438444.7935,440754.9863
Mixed,both,ball,7,F_depth.wav,None,723.2979602,3321,432328.2458,439211.3232,439978.0607,440745.1655,441511.3774,442278.4133,428445.5933,429211.9895,433094.8665,433861.4822,434628.7876,435378.4698,436144.9303,436911.4081,437678.1308,438444.7935,441520.5038
Mixed,both,ball,7,F_reek.wav,None,721.6349376,3321,432328.2458,439211.3232,439978.0607,440745.1655,441511.3774,442278.4133,443045.0423,429211.9895,433094.8665,433861.4822,434628.7876,435378.4698,436144.9303,436911.4081,437678.1308,438444.7935,442288.0922
Mixed,both,ball,7,M_knife.wav,None,721.0617375,3321,432328.2458,439211.3232,439978.0607,440745.1655,441511.3774,442278.4133,443045.0423,443811.3788,433094.8665,433861.4822,434628.7876,435378.4698,436144.9303,436911.4081,437678.1308,438444.7935,443054.702
Mixed,both,tile,28,F_cad.wav,None,721.0611191,3321,446928.4384,439211.3232,439978.0607,440745.1655,441511.3774,442278.4133,443045.0423,443811.3788,433094.8665,433861.4822,434628.7876,435378.4698,436144.9303,436911.4081,437678.1308,438444.7935,443821.1183
Mixed,both,tile,28,M_tile.wav,None,721.2135397,3321,446928.4384,439211.3232,439978.0607,440745.1655,441511.3774,442278.4133,443045.0423,443811.3788,447694.8479,433861.4822,434628.7876,435378.4698,436144.9303,436911.4081,437678.1308,438444.7935,446938.0285
Mixed,both,tile,28,M_cad.wav,space,409.0899534,3321,446928.4384,439211.3232,439978.0607,440745.1655,441511.3774,442278.4133,443045.0423,443811.3788,447694.8479,448444.0205,434628.7876,435378.4698,436144.9303,436911.4081,437678.1308,438444.7935,447704.7524
Mixed,both,tile,28,F_greet.wav,None,736.6126527,3321,446928.4384,439211.3232,439978.0607,440745.1655,441511.3774,442278.4133,443045.0423,443811.3788,447694.8479,448444.0205,449210.9887,435378.4698,436144.9303,436911.4081,437678.1308,438444.7935,448452.8217
Mixed,both,tile,28,F_tile.wav,None,735.6174361,3321,446928.4384,439211.3232,439978.0607,440745.1655,441511.3774,442278.4133,443045.0423,443811.3788,447694.8479,448444.0205,449210.9887,449977.6573,436144.9303,436911.4081,437678.1308,438444.7935,449220.0084
Mixed,both,tile,28,F_gnash.wav,space,614.9897109,3321,446928.4384,439211.3232,439978.0607,440745.1655,441511.3774,442278.4133,443045.0423,443811.3788,447694.8479,448444.0205,449210.9887,449977.6573,450744.7562,436911.4081,437678.1308,438444.7935,449986.7883
Mixed,both,tile,28,F_tile.wav,None,732.1513372,3321,446928.4384,439211.3232,439978.0607,440745.1655,441511.3774,442278.4133,443045.0423,443811.3788,447694.8479,448444.0205,449210.9887,449977.6573,450744.7562,451510.76,437678.1308,438444.7935,450753.8887
Mixed,both,tile,28,M_cling.wav,space,449.9213473,3321,446928.4384,439211.3232,439978.0607,440745.1655,441511.3774,442278.4133,443045.0423,443811.3788,447694.8479,448444.0205,449210.9887,449977.6573,450744.7562,451510.76,452277.7115,438444.7935,451519.8542
Mixed,both,tile,28,M_depth.wav,None,729.4170425,3321,446928.4384,439211.3232,439978.0607,440745.1655,441511.3774,442278.4133,443045.0423,443811.3788,447694.8479,448444.0205,449210.9887,449977.6573,450744.7562,451510.76,452277.7115,453044.3773,452286.8586
Mixed,both,tile,28,M_tile.wav,None,729.4213708,3321,446928.4384,453810.8591,439978.0607,440745.1655,441511.3774,442278.4133,443045.0423,443811.3788,447694.8479,448444.0205,449210.9887,449977.6573,450744.7562,451510.76,452277.7115,453044.3773,453053.5914
Mixed,both,tile,28,M_jolt.wav,space,573.3900309,3321,446928.4384,453810.8591,454577.6479,440745.1655,441511.3774,442278.4133,443045.0423,443811.3788,447694.8479,448444.0205,449210.9887,449977.6573,450744.7562,451510.76,452277.7115,453044.3773,453820.2869
Mixed,both,tile,28,F_gnash.wav,None,718.0120898,3321,446928.4384,453810.8591,454577.6479,455344.2392,441511.3774,442278.4133,443045.0423,443811.3788,447694.8479,448444.0205,449210.9887,449977.6573,450744.7562,451510.76,452277.7115,453044.3773,454595.2019
Mixed,both,tile,28,M_dime.wav,None,724.9300658,3321,446928.4384,453810.8591,454577.6479,455344.2392,456111.3251,442278.4133,443045.0423,443811.3788,447694.8479,448444.0205,449210.9887,449977.6573,450744.7562,451510.76,452277.7115,453044.3773,455354.3846
Mixed,both,tile,28,F_gnash.wav,None,724.7300332,3321,446928.4384,453810.8591,454577.6479,455344.2392,456111.3251,456877.6261,443045.0423,443811.3788,447694.8479,448444.0205,449210.9887,449977.6573,450744.7562,451510.76,452277.7115,453044.3773,456120.6858
Mixed,both,tile,28,F_jolt.wav,None,724.8076348,3321,446928.4384,453810.8591,454577.6479,455344.2392,456111.3251,456877.6261,457644.2446,443811.3788,447694.8479,448444.0205,449210.9887,449977.6573,450744.7562,451510.76,452277.7115,453044.3773,456886.9216
Mixed,both,tile,28,M_reek.wav,None,724.6032738,3321,446928.4384,453810.8591,454577.6479,455344.2392,456111.3251,456877.6261,457644.2446,458411.1166,447694.8479,448444.0205,449210.9887,449977.6573,450744.7562,451510.76,452277.7115,453044.3773,457653.5864
Mixed,both,cave,21,M_bluff.wav,None,723.8071624,3321,461544.5714,453810.8591,454577.6479,455344.2392,456111.3251,456877.6261,457644.2446,458411.1166,447694.8479,448444.0205,449210.9887,449977.6573,450744.7562,451510.76,452277.7115,453044.3773,458420.8956
Mixed,both,cave,21,F_park.wav,None,720.4004239,3321,461544.5714,453810.8591,454577.6479,455344.2392,456111.3251,456877.6261,457644.2446,458411.1166,462310.9923,448444.0205,449210.9887,449977.6573,450744.7562,451510.76,452277.7115,453044.3773,461555.1633
Mixed,both,cave,21,F_cave.wav,None,720.7822483,3321,461544.5714,453810.8591,454577.6479,455344.2392,456111.3251,456877.6261,457644.2446,458411.1166,462310.9923,463077.6726,449210.9887,449977.6573,450744.7562,451510.76,452277.7115,453044.3773,462320.9918
Mixed,both,cave,21,F_depth.wav,space,609.5065903,3321,461544.5714,453810.8591,454577.6479,455344.2392,456111.3251,456877.6261,457644.2446,458411.1166,462310.9923,463077.6726,463827.1146,449977.6573,450744.7562,451510.76,452277.7115,453044.3773,463087.8984
Mixed,both,cave,21,M_park.wav,None,735.5747707,3321,461544.5714,453810.8591,454577.6479,455344.2392,456111.3251,456877.6261,457644.2446,458411.1166,462310.9923,463077.6726,463827.1146,464593.7164,450744.7562,451510.76,452277.7115,453044.3773,463836.6964
Mixed,both,cave,21,F_knife.wav,None,735.2748764,3321,461544.5714,453810.8591,454577.6479,455344.2392,456111.3251,456877.6261,457644.2446,458411.1166,462310.9923,463077.6726,463827.1146,464593.7164,465360.2622,451510.76,452277.7115,453044.3773,464603.6101
Mixed,both,cave,21,F_greet.wav,None,734.9459201,3321,461544.5714,453810.8591,454577.6479,455344.2392,456111.3251,456877.6261,457644.2446,458411.1166,462310.9923,463077.6726,463827.1146,464593.7164,465360.2622,466127.2007,452277.7115,453044.3773,465370.1476
Mixed,both,cave,21,M_knife.wav,None,734.6036695,3321,461544.5714,453810.8591,454577.6479,455344.2392,456111.3251,456877.6261,457644.2446,458411.1166,462310.9923,463077.6726,463827.1146,464593.7164,465360.2622,466127.2007,466893.6327,453044.3773,466136.5184
Mixed,both,cave,21,M_cave.wav,None,733.7645836,3321,461544.5714,453810.8591,454577.6479,455344.2392,456111.3251,456877.6261,457644.2446,458411.1166,462310.9923,463077.6726,463827.1146,464593.7164,465360.2622,466127.2007,466893.6327,467660.2886,466903.464
Mixed,both,cave,21,M_romp.wav,space,427.791924,3321,461544.5714,468427.2326,454577.6479,455344.2392,456111.3251,456877.6261,457644.2446,458411.1166,462310.9923,463077.6726,463827.1146,464593.7164,465360.2622,466127.2007,466893.6327,467660.2886,467669.4991
Mixed,both,cave,21,F_cave.wav,None,730.2190281,3321,461544.5714,468427.2326,469193.8975,455344.2392,456111.3251,456877.6261,457644.2446,458411.1166,462310.9923,463077.6726,463827.1146,464593.7164,465360.2622,466127.2007,466893.6327,467660.2886,468437.0092
Mixed,both,cave,21,M_dime.wav,None,729.8059775,3321,461544.5714,468427.2326,469193.8975,469960.234,456111.3251,456877.6261,457644.2446,458411.1166,462310.9923,463077.6726,463827.1146,464593.7164,465360.2622,466127.2007,466893.6327,467660.2886,469203.654
Mixed,both,cave,21,M_cave.wav,space,143.8540819,3321,461544.5714,468427.2326,469193.8975,469960.234,470727.0909,456877.6261,457644.2446,458411.1166,462310.9923,463077.6726,463827.1146,464593.7164,465360.2622,466127.2007,466893.6327,467660.2886,469969.3267
Mixed,both,cave,21,M_dime.wav,space,504.5840557,3321,461544.5714,468427.2326,469193.8975,469960.234,470727.0909,471493.5739,457644.2446,458411.1166,462310.9923,463077.6726,463827.1146,464593.7164,465360.2622,466127.2007,466893.6327,467660.2886,470736.5771
Mixed,both,cave,21,F_depth.wav,None,725.0679554,3321,461544.5714,468427.2326,469193.8975,469960.234,470727.0909,471493.5739,472260.688,458411.1166,462310.9923,463077.6726,463827.1146,464593.7164,465360.2622,466127.2007,466893.6327,467660.2886,471502.7875
Mixed,both,cave,21,F_gnash.wav,None,723.5264365,3321,461544.5714,468427.2326,469193.8975,469960.234,470727.0909,471493.5739,472260.688,473026.8322,462310.9923,463077.6726,463827.1146,464593.7164,465360.2622,466127.2007,466893.6327,467660.2886,472270.5106
Mixed,both,done,40,F_gnash.wav,None,725.1678172,3321,499726.7736,468427.2326,469193.8975,469960.234,470727.0909,471493.5739,472260.688,473026.8322,462310.9923,463077.6726,463827.1146,464593.7164,465360.2622,466127.2007,466893.6327,467660.2886,473036.0625
Mixed,both,done,40,M_dime.wav,None,720.9501273,3321,499726.7736,468427.2326,469193.8975,469960.234,470727.0909,471493.5739,472260.688,473026.8322,500493.0267,463077.6726,463827.1146,464593.7164,465360.2622,466127.2007,466893.6327,467660.2886,499736.5267
Mixed,both,done,40,F_lash.wav,space,169.9285076,3321,499726.7736,468427.2326,469193.8975,469960.234,470727.0909,471493.5739,472260.688,473026.8322,500493.0267,501242.6953,463827.1146,464593.7164,465360.2622,466127.2007,466893.6327,467660.2886,500502.3856
Mixed,both,done,40,F_done.wav,None,735.3605164,3321,499726.7736,468427.2326,469193.8975,469960.234,470727.0909,471493.5739,472260.688,473026.8322,500493.0267,501242.6953,502009.2247,464593.7164,465360.2622,466127.2007,466893.6327,467660.2886,501252.1911
Mixed,both,done,40,M_dime.wav,None,734.7356848,3321,499726.7736,468427.2326,469193.8975,469960.234,470727.0909,471493.5739,472260.688,473026.8322,500493.0267,501242.6953,502009.2247,502776.0961,465360.2622,466127.2007,466893.6327,467660.2886,502018.9425
Mixed,both,done,40,M_done.wav,space,118.3373978,3321,499726.7736,468427.2326,469193.8975,469960.234,470727.0909,471493.5739,472260.688,473026.8322,500493.0267,501242.6953,502009.2247,502776.0961,503542.849,466127.2007,466893.6327,467660.2886,502785.8872
Mixed,both,done,40,F_cling.wav,space,655.8294522,3321,499726.7736,468427.2326,469193.8975,469960.234,470727.0909,471493.5739,472260.688,473026.8322,500493.0267,501242.6953,502009.2247,502776.0961,503542.849,504309.3463,466893.6327,467660.2886,503552.3483
Mixed,both,done,40,M_gnash.wav,None,729.5079383,3321,499726.7736,468427.2326,469193.8975,469960.234,470727.0909,471493.5739,472260.688,473026.8322,500493.0267,501242.6953,502009.2247,502776.0961,503542.849,504309.3463,505075.8399,467660.2886,504318.5135
Mixed,both,done,40,M_romp.wav,None,728.872595,3321,499726.7736,468427.2326,469193.8975,469960.234,470727.0909,471493.5739,472260.688,473026.8322,500493.0267,501242.6953,502009.2247,502776.0961,503542.849,504309.3463,505075.8399,505842.7963,505085.4609
Mixed,both,done,40,F_priest.wav,None,728.4740756,3321,499726.7736,506609.2933,469193.8975,469960.234,470727.0909,471493.5739,472260.688,473026.8322,500493.0267,501242.6953,502009.2247,502776.0961,503542.849,504309.3463,505075.8399,505842.7963,505852.1267
