"Condition","Talker","Target","Trial","current_stimulus","response_response","response_time_response","subject_nr","time_Audio1","time_Audio10","time_Audio11","time_Audio12","time_Audio13","time_Audio14","time_Audio15","time_Audio16","time_Audio2","time_Audio3","time_Audio4","time_Audio5","time_Audio6","time_Audio7","time_Audio8","time_Audio9","time_response"
"Mixed","Female","cave","19","M_greet.wav","NA","NA","404","31744.6377642","NA","NA","NA","NA","NA","NA","NA","NA","NA","NA","NA","NA","NA","NA","NA","NA"
"Mixed","Female","cave","19","M_romp.wav","None","739.06220778","404","31744.6377642","NA","NA","NA","NA","NA","NA","NA","32511.2706307","NA","NA","NA","NA","NA","NA","NA","31751.7886782"
"Mixed","Female","cave","19","F_cave.wav","None","740.675554049","404","31744.6377642","NA","NA","NA","NA","NA","NA","NA","32511.2706307","33277.9303815","NA","NA","NA","NA","NA","NA","32513.4713391"
"Mixed","Female","cave","19","F_knife.wav","None","734.311003834","404","31744.6377642","NA","NA","NA","NA","NA","NA","NA","32511.2706307","33277.9303815","34044.5389938","NA","NA","NA","NA","NA","33283.3104428"
"Mixed","Female","cave","19","F_priest.wav","space","142.434133626","404","31744.6377642","NA","NA","NA","NA","NA","NA","NA","32511.2706307","33277.9303815","34044.5389938","34811.4313517","NA","NA","NA","NA","34049.6823569"
"Mixed","Female","cave","19","F_cave.wav","None","727.782810455","404","31744.6377642","NA","NA","NA","NA","NA","NA","NA","32511.2706307","33277.9303815","34044.5389938","34811.4313517","35561.1756592","NA","NA","NA","34816.6699785"
"Mixed","Female","cave","19","M_reek.wav","None","741.399675051","404","31744.6377642","NA","NA","NA","NA","NA","NA","NA","32511.2706307","33277.9303815","34044.5389938","34811.4313517","35561.1756592","36327.7664461","NA","NA","35566.3523354"
"Mixed","Female","cave","19","F_cave.wav","space","19.0276089393","404","31744.6377642","NA","NA","NA","NA","NA","NA","NA","32511.2706307","33277.9303815","34044.5389938","34811.4313517","35561.1756592","36327.7664461","37094.4162615","NA","36332.9688377"
"Mixed","Female","cave","19","M_depth.wav","space","652.260321208","404","31744.6377642","NA","NA","NA","NA","NA","NA","NA","32511.2706307","33277.9303815","34044.5389938","34811.4313517","35561.1756592","36327.7664461","37094.4162615","37861.1230597","37099.6630704"
"Mixed","Female","cave","19","F_cave.wav","None","731.48143819","404","31744.6377642","38628.1501309","NA","NA","NA","NA","NA","NA","32511.2706307","33277.9303815","34044.5389938","34811.4313517","35561.1756592","36327.7664461","37094.4162615","37861.1230597","37866.129956"
"Mixed","Female","cave","19","M_jaw.wav","space","525.844807836","404","31744.6377642","38628.1501309","39377.7439452","NA","NA","NA","NA","NA","32511.2706307","33277.9303815","34044.5389938","34811.4313517","35561.1756592","36327.7664461","37094.4162615","37861.1230597","38634.0433304"
"Mixed","Female","cave","19","M_cad.wav","None","741.108623995","404","31744.6377642","38628.1501309","39377.7439452","40144.3657074","NA","NA","NA","NA","32511.2706307","33277.9303815","34044.5389938","34811.4313517","35561.1756592","36327.7664461","37094.4162615","37861.1230597","39383.0077029"
"Mixed","Female","cave","19","M_park.wav","None","737.955570881","404","31744.6377642","38628.1501309","39377.7439452","40144.3657074","40910.9965284","NA","NA","NA","32511.2706307","33277.9303815","34044.5389938","34811.4313517","35561.1756592","36327.7664461","37094.4162615","37861.1230597","40149.4617309"
"Mixed","Female","cave","19","F_depth.wav","None","734.60351599","404","31744.6377642","38628.1501309","39377.7439452","40144.3657074","40910.9965284","41677.641376","NA","NA","32511.2706307","33277.9303815","34044.5389938","34811.4313517","35561.1756592","36327.7664461","37094.4162615","37861.1230597","40916.0723887"
"Mixed","Female","cave","19","M_knife.wav","None","731.356660277","404","31744.6377642","38628.1501309","39377.7439452","40144.3657074","40910.9965284","41677.641376","42444.5901323","NA","32511.2706307","33277.9303815","34044.5389938","34811.4313517","35561.1756592","36327.7664461","37094.4162615","37861.1230597","41682.7105152"
"Mixed","Female","cave","19","F_priest.wav","None","727.277269964","404","31744.6377642","38628.1501309","39377.7439452","40144.3657074","40910.9965284","41677.641376","42444.5901323","43194.2724892","32511.2706307","33277.9303815","34044.5389938","34811.4313517","35561.1756592","36327.7664461","37094.4162615","37861.1230597","42450.1054914"
"Mixed","Female","ball","9","M_reek.wav","None","741.379804096","404","46310.8384374","38628.1501309","39377.7439452","40144.3657074","40910.9965284","41677.641376","42444.5901323","43194.2724892","32511.2706307","33277.9303815","34044.5389938","34811.4313517","35561.1756592","36327.7664461","37094.4162615","37861.1230597","43199.4392299"
"Mixed","Female","ball","9","M_jolt.wav","None","741.558058257","404","46310.8384374","38628.1501309","39377.7439452","40144.3657074","40910.9965284","41677.641376","42444.5901323","43194.2724892","47077.5279947","33277.9303815","34044.5389938","34811.4313517","35561.1756592","36327.7664461","37094.4162615","37861.1230597","46316.164438"
"Mixed","Female","ball","9","F_ball.wav","None","738.447377034","404","46310.8384374","38628.1501309","39377.7439452","40144.3657074","40910.9965284","41677.641376","42444.5901323","43194.2724892","47077.5279947","47844.1707967","34044.5389938","34811.4313517","35561.1756592","36327.7664461","37094.4162615","37861.1230597","47082.683631"
"Mixed","Female","ball","9","M_cling.wav","space","446.055323078","404","46310.8384374","38628.1501309","39377.7439452","40144.3657074","40910.9965284","41677.641376","42444.5901323","43194.2724892","47077.5279947","47844.1707967","48610.8144754","34811.4313517","35561.1756592","36327.7664461","37094.4162615","37861.1230597","47849.2145128"
"Mixed","Female","ball","9","F_ball.wav","None","731.953081167","404","46310.8384374","38628.1501309","39377.7439452","40144.3657074","40910.9965284","41677.641376","42444.5901323","43194.2724892","47077.5279947","47844.1707967","48610.8144754","49377.5686132","35561.1756592","36327.7664461","37094.4162615","37861.1230597","48615.6296755"
"Mixed","Female","ball","9","F_bluff.wav","space","624.510823826","404","46310.8384374","38628.1501309","39377.7439452","40144.3657074","40910.9965284","41677.641376","42444.5901323","43194.2724892","47077.5279947","47844.1707967","48610.8144754","49377.5686132","50127.3850991","36327.7664461","37094.4162615","37861.1230597","49382.688891"
"Mixed","Female","ball","9","F_greet.wav","None","741.384479615","404","46310.8384374","38628.1501309","39377.7439452","40144.3657074","40910.9965284","41677.641376","42444.5901323","43194.2724892","47077.5279947","47844.1707967","48610.8144754","49377.5686132","50127.3850991","50894.0305311","37094.4162615","37861.1230597","50132.7604849"
"Mixed","Female","ball","9","M_cling.wav","None","738.46403357","404","46310.8384374","38628.1501309","39377.7439452","40144.3657074","40910.9965284","41677.641376","42444.5901323","43194.2724892","47077.5279947","47844.1707967","48610.8144754","49377.5686132","50127.3850991","50894.0305311","51660.6654432","37861.1230597","50899.2317538"
"Mixed","Female","ball","9","F_gnash.wav","None","735.706061811","404","46310.8384374","38628.1501309","39377.7439452","40144.3657074","40910.9965284","41677.641376","42444.5901323","43194.2724892","47077.5279947","47844.1707967","48610.8144754","49377.5686132","50127.3850991","50894.0305311","51660.6654432","52427.403509","51665.442947"
"Mixed","Female","ball","9","M_depth.wav","None","731.768398167","404","46310.8384374","53193.9706261","39377.7439452","40144.3657074","40910.9965284","41677.641376","42444.5901323","43194.2724892","47077.5279947","47844.1707967","48610.8144754","49377.5686132","50127.3850991","50894.0305311","51660.6654432","52427.403509","52432.6853843"
"Mixed","Female","ball","9","M_bluff.wav","None","728.720836451","404","46310.8384374","53193.9706261","53943.9855293","40144.3657074","40910.9965284","41677.641376","42444.5901323","43194.2724892","47077.5279947","47844.1707967","48610.8144754","49377.5686132","50127.3850991","50894.0305311","51660.6654432","52427.403509","53199.1607443"
"Mixed","Female","ball","9","F_cling.wav","None","742.287146998","404","46310.8384374","53193.9706261","53943.9855293","54710.5850828","40910.9965284","41677.641376","42444.5901323","43194.2724892","47077.5279947","47844.1707967","48610.8144754","49377.5686132","50127.3850991","50894.0305311","51660.6654432","52427.403509","53949.1554844"
"Mixed","Female","ball","9","F_ball.wav","None","739.441801477","404","46310.8384374","53193.9706261","53943.9855293","54710.5850828","55477.2375281","41677.641376","42444.5901323","43194.2724892","47077.5279947","47844.1707967","48610.8144754","49377.5686132","50127.3850991","50894.0305311","51660.6654432","52427.403509","54715.5992846"
"Mixed","Female","ball","9","M_park.wav","space","500.679995792","404","46310.8384374","53193.9706261","53943.9855293","54710.5850828","55477.2375281","56243.9013699","42444.5901323","43194.2724892","47077.5279947","47844.1707967","48610.8144754","49377.5686132","50127.3850991","50894.0305311","51660.6654432","52427.403509","55482.1418552"
"Mixed","Female","ball","9","F_ball.wav","None","732.71811296","404","46310.8384374","53193.9706261","53943.9855293","54710.5850828","55477.2375281","56243.9013699","57010.5476786","43194.2724892","47077.5279947","47844.1707967","48610.8144754","49377.5686132","50127.3850991","50894.0305311","51660.6654432","52427.403509","56249.0184332"
"Mixed","Female","ball","9","M_gnash.wav","space","647.130692444","404","46310.8384374","53193.9706261","53943.9855293","54710.5850828","55477.2375281","56243.9013699","57010.5476786","57760.5143655","47077.5279947","47844.1707967","48610.8144754","49377.5686132","50127.3850991","50894.0305311","51660.6654432","52427.403509","57015.6314288"
"Mixed","Female","done","43","F_jolt.wav","None","742.872463531","404","60877.1083668","53193.9706261","53943.9855293","54710.5850828","55477.2375281","56243.9013699","57010.5476786","57760.5143655","47077.5279947","47844.1707967","48610.8144754","49377.5686132","50127.3850991","50894.0305311","51660.6654432","52427.403509","57765.7097438"
"Mixed","Female","done","43","M_priest.wav","None","741.620885543","404","60877.1083668","53193.9706261","53943.9855293","54710.5850828","55477.2375281","56243.9013699","57010.5476786","57760.5143655","61643.7961708","47844.1707967","48610.8144754","49377.5686132","50127.3850991","50894.0305311","51660.6654432","52427.403509","60882.2467622"
"Mixed","Female","done","43","M_knife.wav","None","738.132948382","404","60877.1083668","53193.9706261","53943.9855293","54710.5850828","55477.2375281","56243.9013699","57010.5476786","57760.5143655","61643.7961708","62410.36358","48610.8144754","49377.5686132","50127.3850991","50894.0305311","51660.6654432","52427.403509","61649.1312301"
"Mixed","Female","done","43","F_done.wav","None","735.560536282","404","60877.1083668","53193.9706261","53943.9855293","54710.5850828","55477.2375281","56243.9013699","57010.5476786","57760.5143655","61643.7961708","62410.36358","63177.0244997","49377.5686132","50127.3850991","50894.0305311","51660.6654432","52427.403509","62415.4330115"
"Mixed","Female","done","43","M_jaw.wav","space","432.290302973","404","60877.1083668","53193.9706261","53943.9855293","54710.5850828","55477.2375281","56243.9013699","57010.5476786","57760.5143655","61643.7961708","62410.36358","63177.0244997","63943.6912638","50127.3850991","50894.0305311","51660.6654432","52427.403509","63182.0597414"
"Mixed","Female","done","43","M_jolt.wav","None","729.006627548","404","60877.1083668","53193.9706261","53943.9855293","54710.5850828","55477.2375281","56243.9013699","57010.5476786","57760.5143655","61643.7961708","62410.36358","63177.0244997","63943.6912638","64693.6506452","50894.0305311","51660.6654432","52427.403509","63948.763033"
"Mixed","Female","done","43","F_depth.wav","None","742.378027398","404","60877.1083668","53193.9706261","53943.9855293","54710.5850828","55477.2375281","56243.9013699","57010.5476786","57760.5143655","61643.7961708","62410.36358","63177.0244997","63943.6912638","64693.6506452","65460.3513068","51660.6654432","52427.403509","64698.7314733"
"Mixed","Female","done","43","F_done.wav","None","738.9716196","404","60877.1083668","53193.9706261","53943.9855293","54710.5850828","55477.2375281","56243.9013699","57010.5476786","57760.5143655","61643.7961708","62410.36358","63177.0244997","63943.6912638","64693.6506452","65460.3513068","66226.9456003","52427.403509","65465.6089279"
"Mixed","Female","done","43","M_bluff.wav","space","630.289473069","404","60877.1083668","53193.9706261","53943.9855293","54710.5850828","55477.2375281","56243.9013699","57010.5476786","57760.5143655","61643.7961708","62410.36358","63177.0244997","63943.6912638","64693.6506452","65460.3513068","66226.9456003","66993.6179166","66231.908956"
"Mixed","Female","done","43","F_done.wav","None","732.965623247","404","60877.1083668","67760.2510754","53943.9855293","54710.5850828","55477.2375281","56243.9013699","57010.5476786","57760.5143655","61643.7961708","62410.36358","63177.0244997","63943.6912638","64693.6506452","65460.3513068","66226.9456003","66993.6179166","66998.7560197"
"Mixed","Female","done","43","M_dime.wav","space","624.474296334","404","60877.1083668","67760.2510754","68510.2496143","54710.5850828","55477.2375281","56243.9013699","57010.5476786","57760.5143655","61643.7961708","62410.36358","63177.0244997","63943.6912638","64693.6506452","65460.3513068","66226.9456003","66993.6179166","67765.6121423"
"Mixed","Female","done","43","F_done.wav","None","743.024125678","404","60877.1083668","67760.2510754","68510.2496143","69276.8576421","55477.2375281","56243.9013699","57010.5476786","57760.5143655","61643.7961708","62410.36358","63177.0244997","63943.6912638","64693.6506452","65460.3513068","66226.9456003","66993.6179166","68515.3555732"
"Mixed","Female","done","43","F_dime.wav","space","500.027468674","404","60877.1083668","67760.2510754","68510.2496143","69276.8576421","70043.5428161","56243.9013699","57010.5476786","57760.5143655","61643.7961708","62410.36358","63177.0244997","63943.6912638","64693.6506452","65460.3513068","66226.9456003","66993.6179166","69281.9250281"
"Mixed","Female","done","43","M_cad.wav","None","736.353328969","404","60877.1083668","67760.2510754","68510.2496143","69276.8576421","70043.5428161","70810.1543506","57010.5476786","57760.5143655","61643.7961708","62410.36358","63177.0244997","63943.6912638","64693.6506452","65460.3513068","66226.9456003","66993.6179166","70048.5958832"
"Mixed","Female","done","43","F_jolt.wav","None","733.436974004","404","60877.1083668","67760.2510754","68510.2496143","69276.8576421","70043.5428161","70810.1543506","71576.7953993","57760.5143655","61643.7961708","62410.36358","63177.0244997","63943.6912638","64693.6506452","65460.3513068","66226.9456003","66993.6179166","70815.179949"
"Mixed","Female","done","43","M_cling.wav","None","729.954004582","404","60877.1083668","67760.2510754","68510.2496143","69276.8576421","70043.5428161","70810.1543506","71576.7953993","72344.017089","61643.7961708","62410.36358","63177.0244997","63943.6912638","64693.6506452","65460.3513068","66226.9456003","66993.6179166","71582.2561132"
"Mixed","Male","tile","25","F_priest.wav","None","726.235798111","404","75426.7080255","67760.2510754","68510.2496143","69276.8576421","70043.5428161","70810.1543506","71576.7953993","72344.017089","61643.7961708","62410.36358","63177.0244997","63943.6912638","64693.6506452","65460.3513068","66226.9456003","66993.6179166","72349.5134538"
"Mixed","Male","tile","25","M_lash.wav","None","741.345029924","404","75426.7080255","67760.2510754","68510.2496143","69276.8576421","70043.5428161","70810.1543506","71576.7953993","72344.017089","76193.3344633","62410.36358","63177.0244997","63943.6912638","64693.6506452","65460.3513068","66226.9456003","66993.6179166","75431.8215822"
"Mixed","Male","tile","25","F_cad.wav","None","738.616280157","404","75426.7080255","67760.2510754","68510.2496143","69276.8576421","70043.5428161","70810.1543506","71576.7953993","72344.017089","76193.3344633","76959.9512577","63177.0244997","63943.6912638","64693.6506452","65460.3513068","66226.9456003","66993.6179166","76198.3679517"
"Mixed","Male","tile","25","M_tile.wav","None","735.370008883","404","75426.7080255","67760.2510754","68510.2496143","69276.8576421","70043.5428161","70810.1543506","71576.7953993","72344.017089","76193.3344633","76959.9512577","77726.6583481","63943.6912638","64693.6506452","65460.3513068","66226.9456003","66993.6179166","76965.2863171"
"Mixed","Male","tile","25","F_dime.wav","space","585.727686086","404","75426.7080255","67760.2510754","68510.2496143","69276.8576421","70043.5428161","70810.1543506","71576.7953993","72344.017089","76193.3344633","76959.9512577","77726.6583481","78493.3099168","64693.6506452","65460.3513068","66226.9456003","66993.6179166","77731.7353773"
"Mixed","Male","tile","25","M_greet.wav","None","729.459568449","404","75426.7080255","67760.2510754","68510.2496143","69276.8576421","70043.5428161","70810.1543506","71576.7953993","72344.017089","76193.3344633","76959.9512577","77726.6583481","78493.3099168","79243.2508883","65460.3513068","66226.9456003","66993.6179166","78498.3016177"
"Mixed","Male","tile","25","M_tile.wav","None","743.100687301","404","75426.7080255","67760.2510754","68510.2496143","69276.8576421","70043.5428161","70810.1543506","71576.7953993","72344.017089","76193.3344633","76959.9512577","77726.6583481","78493.3099168","79243.2508883","80009.897197","66226.9456003","66993.6179166","79248.335223"
"Mixed","Male","tile","25","M_cling.wav","None","740.21150879","404","75426.7080255","67760.2510754","68510.2496143","69276.8576421","70043.5428161","70810.1543506","71576.7953993","72344.017089","76193.3344633","76959.9512577","77726.6583481","78493.3099168","79243.2508883","80009.897197","80776.5525645","66993.6179166","80014.9321465"
"Mixed","Male","tile","25","M_tile.wav","space","0.0213320554321","404","75426.7080255","67760.2510754","68510.2496143","69276.8576421","70043.5428161","70810.1543506","71576.7953993","72344.017089","76193.3344633","76959.9512577","77726.6583481","78493.3099168","79243.2508883","80009.897197","80776.5525645","81543.1866","80781.7643071"
"Mixed","Male","tile","25","F_lash.wav","space","560.912369086","404","75426.7080255","82309.8483963","68510.2496143","69276.8576421","70043.5428161","70810.1543506","71576.7953993","72344.017089","76193.3344633","76959.9512577","77726.6583481","78493.3099168","79243.2508883","80009.897197","80776.5525645","81543.1866","81548.3463274"
"Mixed","Male","tile","25","M_bluff.wav","None","730.359898073","404","75426.7080255","82309.8483963","83076.8497522","69276.8576421","70043.5428161","70810.1543506","71576.7953993","72344.017089","76193.3344633","76959.9512577","77726.6583481","78493.3099168","79243.2508883","80009.897197","80776.5525645","81543.1866","82314.8970801"
"Mixed","Male","tile","25","M_tile.wav","None","726.480970638","404","75426.7080255","82309.8483963","83076.8497522","83826.5230503","70043.5428161","70810.1543506","71576.7953993","72344.017089","76193.3344633","76959.9512577","77726.6583481","78493.3099168","79243.2508883","80009.897197","80776.5525645","81543.1866","83082.399301"
"Mixed","Male","tile","25","F_knife.wav","space","549.623620722","404","75426.7080255","82309.8483963","83076.8497522","83826.5230503","84593.0805241","70810.1543506","71576.7953993","72344.017089","76193.3344633","76959.9512577","77726.6583481","78493.3099168","79243.2508883","80009.897197","80776.5525645","81543.1866","83831.4814382"
"Mixed","Male","tile","25","F_bluff.wav","None","738.080348794","404","75426.7080255","82309.8483963","83076.8497522","83826.5230503","84593.0805241","85359.7221573","71576.7953993","72344.017089","76193.3344633","76959.9512577","77726.6583481","78493.3099168","79243.2508883","80009.897197","80776.5525645","81543.1866","84598.3314242"
"Mixed","Male","tile","25","F_jaw.wav","None","735.802202169","404","75426.7080255","82309.8483963","83076.8497522","83826.5230503","84593.0805241","85359.7221573","86126.387168","72344.017089","76193.3344633","76959.9512577","77726.6583481","78493.3099168","79243.2508883","80009.897197","80776.5525645","81543.1866","85364.8120441"
"Mixed","Male","tile","25","F_lash.wav","None","732.94896671","404","75426.7080255","82309.8483963","83076.8497522","83826.5230503","84593.0805241","85359.7221573","86126.387168","86893.0542243","76193.3344633","76959.9512577","77726.6583481","78493.3099168","79243.2508883","80009.897197","80776.5525645","81543.1866","86131.495757"
"Mixed","Female","tile","32","M_dime.wav","None","730.081704694","404","89992.9805849","82309.8483963","83076.8497522","83826.5230503","84593.0805241","85359.7221573","86126.387168","86893.0542243","76193.3344633","76959.9512577","77726.6583481","78493.3099168","79243.2508883","80009.897197","80776.5525645","81543.1866","86898.2233028"
"Mixed","Female","tile","32","F_dime.wav","None","741.200088835","404","89992.9805849","82309.8483963","83076.8497522","83826.5230503","84593.0805241","85359.7221573","86126.387168","86893.0542243","90759.632738","76959.9512577","77726.6583481","78493.3099168","79243.2508883","80009.897197","80776.5525645","81543.1866","89998.070764"
"Mixed","Female","tile","32","F_tile.wav","None","738.242823078","404","89992.9805849","82309.8483963","83076.8497522","83826.5230503","84593.0805241","85359.7221573","86126.387168","86893.0542243","90759.632738","91526.2612212","77726.6583481","78493.3099168","79243.2508883","80009.897197","80776.5525645","81543.1866","90764.8222718"
"Mixed","Female","tile","32","M_priest.wav","space","649.061974004","404","89992.9805849","82309.8483963","83076.8497522","83826.5230503","84593.0805241","85359.7221573","86126.387168","86893.0542243","90759.632738","91526.2612212","92292.8926267","78493.3099168","79243.2508883","80009.897197","80776.5525645","81543.1866","91531.6491724"
"Mixed","Female","tile","32","M_lash.wav","None","735.713075089","404","89992.9805849","82309.8483963","83076.8497522","83826.5230503","84593.0805241","85359.7221573","86126.387168","86893.0542243","90759.632738","91526.2612212","92292.8926267","93059.5552997","79243.2508883","80009.897197","80776.5525645","81543.1866","92294.778322"
"Mixed","Female","tile","32","F_tile.wav","None","729.683993361","404","89992.9805849","82309.8483963","83076.8497522","83826.5230503","84593.0805241","85359.7221573","86126.387168","86893.0542243","90759.632738","91526.2612212","92292.8926267","93059.5552997","93809.5228633","80009.897197","80776.5525645","81543.1866","93064.6320367"
"Mixed","Female","tile","32","M_jolt.wav","space","645.830898167","404","89992.9805849","82309.8483963","83076.8497522","83826.5230503","84593.0805241","85359.7221573","86126.387168","86893.0542243","90759.632738","91526.2612212","92292.8926267","93059.5552997","93809.5228633","94576.1624509","80776.5525645","81543.1866","93814.7275926"
"Mixed","Female","tile","32","M_bluff.wav","None","739.959030765","404","89992.9805849","82309.8483963","83076.8497522","83826.5230503","84593.0805241","85359.7221573","86126.387168","86893.0542243","90759.632738","91526.2612212","92292.8926267","93059.5552997","93809.5228633","94576.1624509","95342.8929189","81543.1866","94581.2748387"
"Mixed","Female","tile","32","F_lash.wav","None","736.728539368","404","89992.9805849","82309.8483963","83076.8497522","83826.5230503","84593.0805241","85359.7221573","86126.387168","86893.0542243","90759.632738","91526.2612212","92292.8926267","93059.5552997","93809.5228633","94576.1624509","95342.8929189","96109.5082523","95348.2668436"
"Mixed","Female","tile","32","F_tile.wav","None","734.14414625","404","89992.9805849","96876.1151113","83076.8497522","83826.5230503","84593.0805241","85359.7221573","86126.387168","86893.0542243","90759.632738","91526.2612212","92292.8926267","93059.5552997","93809.5228633","94576.1624509","95342.8929189","96109.5082523","96114.6393422"
"Mixed","Female","tile","32","M_greet.wav","space","571.181854311","404","89992.9805849","96876.1151113","97642.9864293","83826.5230503","84593.0805241","85359.7221573","86126.387168","86893.0542243","90759.632738","91526.2612212","92292.8926267","93059.5552997","93809.5228633","94576.1624509","95342.8929189","96109.5082523","96881.179575"
"Mixed","Female","tile","32","M_greet.wav","None","726.857934356","404","89992.9805849","96876.1151113","97642.9864293","98392.7330746","84593.0805241","85359.7221573","86126.387168","86893.0542243","90759.632738","91526.2612212","92292.8926267","93059.5552997","93809.5228633","94576.1624509","95342.8929189","96109.5082523","97648.9848279"
"Mixed","Female","tile","32","F_tile.wav","None","741.859337012","404","89992.9805849","96876.1151113","97642.9864293","98392.7330746","99159.3598046","85359.7221573","86126.387168","86893.0542243","90759.632738","91526.2612212","92292.8926267","93059.5552997","93809.5228633","94576.1624509","95342.8929189","96109.5082523","98397.851599"
"Mixed","Female","tile","32","F_jaw.wav","space","703.774604919","404","89992.9805849","96876.1151113","97642.9864293","98392.7330746","99159.3598046","99926.0134187","86126.387168","86893.0542243","90759.632738","91526.2612212","92292.8926267","93059.5552997","93809.5228633","94576.1624509","95342.8929189","96109.5082523","99164.4651791"
"Mixed","Female","tile","32","F_cling.wav","None","735.999158406","404","89992.9805849","96876.1151113","97642.9864293","98392.7330746","99159.3598046","99926.0134187","100692.640441","86893.0542243","90759.632738","91526.2612212","92292.8926267","93059.5552997","93809.5228633","94576.1624509","95342.8929189","96109.5082523","99931.2029526"
"Mixed","Female","tile","32","M_depth.wav","None","733.897512624","404","89992.9805849","96876.1151113","97642.9864293","98392.7330746","99159.3598046","99926.0134187","100692.640441","101459.301653","90759.632738","91526.2612212","92292.8926267","93059.5552997","93809.5228633","94576.1624509","95342.8929189","96109.5082523","100697.684741"
"Mixed","Male","cave","17","M_priest.wav","None","731.216979147","404","104559.306913","96876.1151113","97642.9864293","98392.7330746","99159.3598046","99926.0134187","100692.640441","101459.301653","90759.632738","91526.2612212","92292.8926267","93059.5552997","93809.5228633","94576.1624509","95342.8929189","96109.5082523","101464.296568"
"Mixed","Male","cave","17","M_cave.wav","None","740.980047223","404","104559.306913","96876.1151113","97642.9864293","98392.7330746","99159.3598046","99926.0134187","100692.640441","101459.301653","105325.904713","91526.2612212","92292.8926267","93059.5552997","93809.5228633","94576.1624509","95342.8929189","96109.5082523","104564.401767"
"Mixed","Male","cave","17","F_cling.wav","space","688.793657659","404","104559.306913","96876.1151113","97642.9864293","98392.7330746","99159.3598046","99926.0134187","100692.640441","101459.301653","105325.904713","106092.483811","92292.8926267","93059.5552997","93809.5228633","94576.1624509","95342.8929189","96109.5082523","105331.053336"
"Mixed","Male","cave","17","M_lash.wav","None","734.658453338","404","104559.306913","96876.1151113","97642.9864293","98392.7330746","99159.3598046","99926.0134187","100692.640441","101459.301653","105325.904713","106092.483811","106859.159634","93059.5552997","93809.5228633","94576.1624509","95342.8929189","96109.5082523","106097.513501"
"Mixed","Male","cave","17","F_depth.wav","None","731.546603236","404","104559.306913","96876.1151113","97642.9864293","98392.7330746","99159.3598046","99926.0134187","100692.640441","101459.301653","105325.904713","106092.483811","106859.159634","107626.042056","93809.5228633","94576.1624509","95342.8929189","96109.5082523","106864.378098"
"Mixed","Male","cave","17","F_gnash.wav","None","727.903205068","404","104559.306913","96876.1151113","97642.9864293","98392.7330746","99159.3598046","99926.0134187","100692.640441","101459.301653","105325.904713","106092.483811","106859.159634","107626.042056","108375.836041","94576.1624509","95342.8929189","96109.5082523","107631.721935"
"Mixed","Male","cave","17","M_greet.wav","None","742.295621376","404","104559.306913","96876.1151113","97642.9864293","98392.7330746","99159.3598046","99926.0134187","100692.640441","101459.301653","105325.904713","106092.483811","106859.159634","107626.042056","108375.836041","109142.426536","95342.8929189","96109.5082523","108380.987586"
"Mixed","Male","cave","17","M_lash.wav","None","739.434495979","404","104559.306913","96876.1151113","97642.9864293","98392.7330746","99159.3598046","99926.0134187","100692.640441","101459.301653","105325.904713","106092.483811","106859.159634","107626.042056","108375.836041","109142.426536","109909.073721","96109.5082523","109147.818286"
"Mixed","Male","cave","17","F_romp.wav","None","736.793119974","404","104559.306913","96876.1151113","97642.9864293","98392.7330746","99159.3598046","99926.0134187","100692.640441","101459.301653","105325.904713","106092.483811","106859.159634","107626.042056","108375.836041","109142.426536","109909.073721","110675.718569","109914.227312"
"Mixed","Male","cave","17","M_cave.wav","None","734.209019076","404","104559.306913","111442.420107","97642.9864293","98392.7330746","99159.3598046","99926.0134187","100692.640441","101459.301653","105325.904713","106092.483811","106859.159634","107626.042056","108375.836041","109142.426536","109909.073721","110675.718569","110680.76959"
"Mixed","Male","cave","17","F_jolt.wav","None","730.819560034","404","104559.306913","111442.420107","112209.305159","98392.7330746","99159.3598046","99926.0134187","100692.640441","101459.301653","105325.904713","106092.483811","106859.159634","107626.042056","108375.836041","109142.426536","109909.073721","110675.718569","111447.693508"
"Mixed","Male","cave","17","M_cave.wav","space","68.6535674208","404","104559.306913","111442.420107","112209.305159","112959.021122","99159.3598046","99926.0134187","100692.640441","101459.301653","105325.904713","106092.483811","106859.159634","107626.042056","108375.836041","109142.426536","109909.073721","110675.718569","112214.814674"
"Mixed","Male","cave","17","F_lash.wav","space","727.231683654","404","104559.306913","111442.420107","112209.305159","112959.021122","113725.649313","99926.0134187","100692.640441","101459.301653","105325.904713","106092.483811","106859.159634","107626.042056","108375.836041","109142.426536","109909.073721","110675.718569","112964.195168"
"Mixed","Male","cave","17","M_cave.wav","None","737.690819618","404","104559.306913","111442.420107","112209.305159","112959.021122","113725.649313","114492.33361","100692.640441","101459.301653","105325.904713","106092.483811","106859.159634","107626.042056","108375.836041","109142.426536","109909.073721","110675.718569","113730.719329"
"Mixed","Male","cave","17","F_romp.wav","space","505.833002151","404","104559.306913","111442.420107","112209.305159","112959.021122","113725.649313","114492.33361","115258.9656","101459.301653","105325.904713","106092.483811","106859.159634","107626.042056","108375.836041","109142.426536","109909.073721","110675.718569","114497.45681"
"Mixed","Male","cave","17","F_jolt.wav","None","731.469164952","404","104559.306913","111442.420107","112209.305159","112959.021122","113725.649313","114492.33361","115258.9656","116025.746037","105325.904713","106092.483811","106859.159634","107626.042056","108375.836041","109142.426536","109909.073721","110675.718569","115264.04672"
"Mixed","Male","tile","28","F_reek.wav","None","727.959603516","404","119142.722847","111442.420107","112209.305159","112959.021122","113725.649313","114492.33361","115258.9656","116025.746037","105325.904713","106092.483811","106859.159634","107626.042056","108375.836041","109142.426536","109909.073721","110675.718569","116031.478808"
"Mixed","Male","tile","28","M_tile.wav","None","723.215120629","404","119142.722847","111442.420107","112209.305159","112959.021122","113725.649313","114492.33361","115258.9656","116025.746037","119892.127887","106092.483811","106859.159634","107626.042056","108375.836041","109142.426536","109909.073721","110675.718569","119148.369997"
"Mixed","Male","tile","28","M_park.wav","space","569.701760333","404","119142.722847","111442.420107","112209.305159","112959.021122","113725.649313","114492.33361","115258.9656","116025.746037","119892.127887","120658.776534","106859.159634","107626.042056","108375.836041","109142.426536","109909.073721","110675.718569","119897.294336"
"Mixed","Male","tile","28","F_dime.wav","None","734.797550028","404","119142.722847","111442.420107","112209.305159","112959.021122","113725.649313","114492.33361","115258.9656","116025.746037","119892.127887","120658.776534","121425.486546","107626.042056","108375.836041","109142.426536","109909.073721","110675.718569","120664.133802"
"Mixed","Male","tile","28","M_reek.wav","None","732.49164251","404","119142.722847","111442.420107","112209.305159","112959.021122","113725.649313","114492.33361","115258.9656","116025.746037","119892.127887","120658.776534","121425.486546","122192.079379","108375.836041","109142.426536","109909.073721","110675.718569","121430.553932"
"Mixed","Male","tile","28","M_tile.wav","None","729.937055826","404","119142.722847","111442.420107","112209.305159","112959.021122","113725.649313","114492.33361","115258.9656","116025.746037","119892.127887","120658.776534","121425.486546","122192.079379","122942.068566","109142.426536","109909.073721","110675.718569","122197.116081"
"Mixed","Male","tile","28","F_priest.wav","space","559.628939125","404","119142.722847","111442.420107","112209.305159","112959.021122","113725.649313","114492.33361","115258.9656","116025.746037","119892.127887","120658.776534","121425.486546","122192.079379","122942.068566","123708.720427","109909.073721","110675.718569","122947.152609"
"Mixed","Male","tile","28","F_jaw.wav","None","740.023319151","404","119142.722847","111442.420107","112209.305159","112959.021122","113725.649313","114492.33361","115258.9656","116025.746037","119892.127887","120658.776534","121425.486546","122192.079379","122942.068566","123708.720427","124475.357677","110675.718569","123714.017498"
"Mixed","Male","tile","28","M_greet.wav","None","737.627992332","404","119142.722847","111442.420107","112209.305159","112959.021122","113725.649313","114492.33361","115258.9656","116025.746037","119892.127887","120658.776534","121425.486546","122192.079379","122942.068566","123708.720427","124475.357677","125242.043436","124480.36808"
"Mixed","Male","tile","28","M_tile.wav","None","735.283804002","404","119142.722847","126008.605293","112209.305159","112959.021122","113725.649313","114492.33361","115258.9656","116025.746037","119892.127887","120658.776534","121425.486546","122192.079379","122942.068566","123708.720427","124475.357677","125242.043436","125246.995102"
"Mixed","Male","tile","28","F_bluff.wav","space","516.861674771","404","119142.722847","126008.605293","126775.270303","112959.021122","113725.649313","114492.33361","115258.9656","116025.746037","119892.127887","120658.776534","121425.486546","122192.079379","122942.068566","123708.720427","124475.357677","125242.043436","126013.688751"
"Mixed","Male","tile","28","M_tile.wav","None","729.497557041","404","119142.722847","126008.605293","126775.270303","127525.359138","113725.649313","114492.33361","115258.9656","116025.746037","119892.127887","120658.776534","121425.486546","122192.079379","122942.068566","123708.720427","124475.357677","125242.043436","126780.280999"
"Mixed","Male","tile","28","F_priest.wav","space","655.755271648","404","119142.722847","126008.605293","126775.270303","127525.359138","128291.909307","114492.33361","115258.9656","116025.746037","119892.127887","120658.776534","121425.486546","122192.079379","122942.068566","123708.720427","124475.357677","125242.043436","127530.749719"
"Mixed","Male","tile","28","F_dime.wav","None","743.47355994","404","119142.722847","126008.605293","126775.270303","127525.359138","128291.909307","129058.576363","115258.9656","116025.746037","119892.127887","120658.776534","121425.486546","122192.079379","122942.068566","123708.720427","124475.357677","125242.043436","128293.517393"
"Mixed","Male","tile","28","F_cad.wav","None","738.059016739","404","119142.722847","126008.605293","126775.270303","127525.359138","128291.909307","129058.576363","129825.190235","116025.746037","119892.127887","120658.776534","121425.486546","122192.079379","122942.068566","123708.720427","124475.357677","125242.043436","129063.622417"
"Mixed","Male","tile","28","M_dime.wav","None","735.739959323","404","119142.722847","126008.605293","126775.270303","127525.359138","128291.909307","129058.576363","129825.190235","130591.828069","119892.127887","120658.776534","121425.486546","122192.079379","122942.068566","123708.720427","124475.357677","125242.043436","129830.307006"
"Mixed","Female","ball","7","M_cling.wav","None","733.815691042","404","133691.789496","126008.605293","126775.270303","127525.359138","128291.909307","129058.576363","129825.190235","130591.828069","119892.127887","120658.776534","121425.486546","122192.079379","122942.068566","123708.720427","124475.357677","125242.043436","130597.173064"
"Mixed","Female","ball","7","F_reek.wav","None","741.551921638","404","133691.789496","126008.605293","126775.270303","127525.359138","128291.909307","129058.576363","129825.190235","130591.828069","134458.48782","120658.776534","121425.486546","122192.079379","122942.068566","123708.720427","124475.357677","125242.043436","133696.974355"
"Mixed","Female","ball","7","F_ball.wav","None","739.186109033","404","133691.789496","126008.605293","126775.270303","127525.359138","128291.909307","129058.576363","129825.190235","130591.828069","134458.48782","135225.081529","121425.486546","122192.079379","122942.068566","123708.720427","124475.357677","125242.043436","134463.351237"
"Mixed","Female","ball","7","M_depth.wav","space","499.789309426","404","133691.789496","126008.605293","126775.270303","127525.359138","128291.909307","129058.576363","129825.190235","130591.828069","134458.48782","135225.081529","135991.732221","122192.079379","122942.068566","123708.720427","124475.357677","125242.043436","135230.224308"
"Mixed","Female","ball","7","F_knife.wav","None","733.233004488","404","133691.789496","126008.605293","126775.270303","127525.359138","128291.909307","129058.576363","129825.190235","130591.828069","134458.48782","135225.081529","135991.732221","136758.370932","122942.068566","123708.720427","124475.357677","125242.043436","135996.816848"
"Mixed","Female","ball","7","M_lash.wav","None","730.708808678","404","133691.789496","126008.605293","126775.270303","127525.359138","128291.909307","129058.576363","129825.190235","130591.828069","134458.48782","135225.081529","135991.732221","136758.370932","137525.301279","123708.720427","124475.357677","125242.043436","136763.709206"
"Mixed","Female","ball","7","F_ball.wav","None","728.063049374","404","133691.789496","126008.605293","126775.270303","127525.359138","128291.909307","129058.576363","129825.190235","130591.828069","134458.48782","135225.081529","135991.732221","136758.370932","137525.301279","138275.000292","124475.357677","125242.043436","137530.427693"
"Mixed","Female","ball","7","M_romp.wav","space","417.699761549","404","133691.789496","126008.605293","126775.270303","127525.359138","128291.909307","129058.576363","129825.190235","130591.828069","134458.48782","135225.081529","135991.732221","136758.370932","137525.301279","138275.000292","139041.644848","125242.043436","138280.197716"
"Mixed","Female","ball","7","F_park.wav","None","738.655437629","404","133691.789496","126008.605293","126775.270303","127525.359138","128291.909307","129058.576363","129825.190235","130591.828069","134458.48782","135225.081529","135991.732221","136758.370932","137525.301279","138275.000292","139041.644848","139808.228037","139047.109945"
"Mixed","Female","ball","7","F_ball.wav","None","736.467879185","404","133691.789496","140574.924023","126775.270303","127525.359138","128291.909307","129058.576363","129825.190235","130591.828069","134458.48782","135225.081529","135991.732221","136758.370932","137525.301279","138275.000292","139041.644848","139808.228037","139813.345392"
"Mixed","Female","ball","7","M_cling.wav","space","629.623211614","404","133691.789496","140574.924023","141341.556597","127525.359138","128291.909307","129058.576363","129825.190235","130591.828069","134458.48782","135225.081529","135991.732221","136758.370932","137525.301279","138275.000292","139041.644848","139808.228037","140580.085796"
"Mixed","Female","ball","7","M_reek.wav","None","731.6164438","404","133691.789496","140574.924023","141341.556597","142108.184204","128291.909307","129058.576363","129825.190235","130591.828069","134458.48782","135225.081529","135991.732221","136758.370932","137525.301279","138275.000292","139041.644848","139808.228037","141346.816264"
"Mixed","Female","ball","7","M_dime.wav","None","729.815784552","404","133691.789496","140574.924023","141341.556597","142108.184204","142875.050846","129058.576363","129825.190235","130591.828069","134458.48782","135225.081529","135991.732221","136758.370932","137525.301279","138275.000292","139041.644848","139808.228037","142113.461696"
"Mixed","Female","ball","7","F_ball.wav","None","726.590553114","404","133691.789496","140574.924023","141341.556597","142108.184204","142875.050846","143624.880774","129825.190235","130591.828069","134458.48782","135225.081529","135991.732221","136758.370932","137525.301279","138275.000292","139041.644848","139808.228037","142880.769298"
"Mixed","Female","ball","7","M_gnash.wav","space","575.078314943","404","133691.789496","140574.924023","141341.556597","142108.184204","142875.050846","143624.880774","144391.512764","130591.828069","134458.48782","135225.081529","135991.732221","136758.370932","137525.301279","138275.000292","139041.644848","139808.228037","143626.463145"
"Mixed","Female","ball","7","F_knife.wav","None","737.954694221","404","133691.789496","140574.924023","141341.556597","142108.184204","142875.050846","143624.880774","144391.512764","145158.093323","134458.48782","135225.081529","135991.732221","136758.370932","137525.301279","138275.000292","139041.644848","139808.228037","144396.816556"
"Mixed","Female","cave","21","M_dime.wav","None","735.623655788","404","148274.709826","140574.924023","141341.556597","142108.184204","142875.050846","143624.880774","144391.512764","145158.093323","134458.48782","135225.081529","135991.732221","136758.370932","137525.301279","138275.000292","139041.644848","139808.228037","145163.23055"
"Mixed","Female","cave","21","F_cave.wav","None","740.687827286","404","148274.709826","140574.924023","141341.556597","142108.184204","142875.050846","143624.880774","144391.512764","145158.093323","149041.386233","135225.081529","135991.732221","136758.370932","137525.301279","138275.000292","139041.644848","139808.228037","148280.026767"
"Mixed","Female","cave","21","M_romp.wav","space","634.733846082","404","148274.709826","140574.924023","141341.556597","142108.184204","142875.050846","143624.880774","144391.512764","145158.093323","149041.386233","149807.983156","135991.732221","136758.370932","137525.301279","138275.000292","139041.644848","139808.228037","149046.477289"
"Mixed","Female","cave","21","F_cave.wav","None","734.657284459","404","148274.709826","140574.924023","141341.556597","142108.184204","142875.050846","143624.880774","144391.512764","145158.093323","149041.386233","149807.983156","150574.621867","136758.370932","137525.301279","138275.000292","139041.644848","139808.228037","149813.069537"
"Mixed","Female","cave","21","M_bluff.wav","space","661.109325323","404","148274.709826","140574.924023","141341.556597","142108.184204","142875.050846","143624.880774","144391.512764","145158.093323","149041.386233","149807.983156","150574.621867","151341.586988","137525.301279","138275.000292","139041.644848","139808.228037","150580.017416"
"Mixed","Female","cave","21","F_park.wav","None","728.278999906","404","148274.709826","140574.924023","141341.556597","142108.184204","142875.050846","143624.880774","144391.512764","145158.093323","149041.386233","149807.983156","150574.621867","151341.586988","152091.239246","138275.000292","139041.644848","139808.228037","151346.793178"
"Mixed","Female","cave","21","F_park.wav","None","742.907529923","404","148274.709826","140574.924023","141341.556597","142108.184204","142875.050846","143624.880774","144391.512764","145158.093323","149041.386233","149807.983156","150574.621867","151341.586988","152091.239246","152857.92705","139041.644848","139808.228037","152096.430533"
"Mixed","Female","cave","21","F_cave.wav","space","65.8289695157","404","148274.709826","140574.924023","141341.556597","142108.184204","142875.050846","143624.880774","144391.512764","145158.093323","149041.386233","149807.983156","150574.621867","151341.586988","152091.239246","152857.92705","153624.588847","139808.228037","152863.188762"
"Mixed","Female","cave","21","M_gnash.wav","None","736.879909295","404","148274.709826","140574.924023","141341.556597","142108.184204","142875.050846","143624.880774","144391.512764","145158.093323","149041.386233","149807.983156","150574.621867","151341.586988","152091.239246","152857.92705","153624.588847","154391.203888","153629.475348"
"Mixed","Female","cave","21","F_cave.wav","space","36.4442093696","404","148274.709826","155157.881464","141341.556597","142108.184204","142875.050846","143624.880774","144391.512764","145158.093323","149041.386233","149807.983156","150574.621867","151341.586988","152091.239246","152857.92705","153624.588847","154391.203888","154396.506511"
"Mixed","Female","cave","21","F_bluff.wav","space","677.758556199","404","148274.709826","155157.881464","155924.74723","142108.184204","142875.050846","143624.880774","144391.512764","145158.093323","149041.386233","149807.983156","150574.621867","151341.586988","152091.239246","152857.92705","153624.588847","154391.203888","155163.109571"
"Mixed","Female","cave","21","F_lash.wav","None","726.550811202","404","148274.709826","155157.881464","155924.74723","156674.503811","142875.050846","143624.880774","144391.512764","145158.093323","149041.386233","149807.983156","150574.621867","151341.586988","152091.239246","152857.92705","153624.588847","154391.203888","155930.321325"
"Mixed","Female","cave","21","M_romp.wav","None","741.527082944","404","148274.709826","155157.881464","155924.74723","156674.503811","157441.098689","143624.880774","144391.512764","145158.093323","149041.386233","149807.983156","150574.621867","151341.586988","152091.239246","152857.92705","153624.588847","154391.203888","156679.537591"
"Mixed","Female","cave","21","M_jaw.wav","None","739.411995044","404","148274.709826","155157.881464","155924.74723","156674.503811","157441.098689","158207.785324","144391.512764","145158.093323","149041.386233","149807.983156","150574.621867","151341.586988","152091.239246","152857.92705","153624.588847","154391.203888","157446.004185"
"Mixed","Female","cave","21","M_jaw.wav","None","736.377875444","404","148274.709826","155157.881464","155924.74723","156674.503811","157441.098689","158207.785324","158974.431632","145158.093323","149041.386233","149807.983156","150574.621867","151341.586988","152091.239246","152857.92705","153624.588847","154391.203888","158212.970474"
"Mixed","Female","cave","21","M_depth.wav","None","733.919429119","404","148274.709826","155157.881464","155924.74723","156674.503811","157441.098689","158207.785324","158974.431632","159741.057486","149041.386233","149807.983156","150574.621867","151341.586988","152091.239246","152857.92705","153624.588847","154391.203888","158979.511584"
"Mixed","Male","tile","27","F_lash.wav","None","731.477054891","404","162840.947611","155157.881464","155924.74723","156674.503811","157441.098689","158207.785324","158974.431632","159741.057486","149041.386233","149807.983156","150574.621867","151341.586988","152091.239246","152857.92705","153624.588847","154391.203888","159746.051816"
"Mixed","Male","tile","27","M_tile.wav","None","741.622346643","404","162840.947611","155157.881464","155924.74723","156674.503811","157441.098689","158207.785324","158974.431632","159741.057486","163607.592166","149807.983156","150574.621867","151341.586988","152091.239246","152857.92705","153624.588847","154391.203888","162846.19179"
"Mixed","Male","tile","27","F_cling.wav","space","715.659189732","404","162840.947611","155157.881464","155924.74723","156674.503811","157441.098689","158207.785324","158974.431632","159741.057486","163607.592166","164374.241981","150574.621867","151341.586988","152091.239246","152857.92705","153624.588847","154391.203888","163612.67504"
"Mixed","Male","tile","27","F_knife.wav","None","735.673625397","404","162840.947611","155157.881464","155924.74723","156674.503811","157441.098689","158207.785324","158974.431632","159741.057486","163607.592166","164374.241981","165140.946734","151341.586988","152091.239246","152857.92705","153624.588847","154391.203888","164379.446711"
"Mixed","Male","tile","27","F_priest.wav","None","733.122837572","404","162840.947611","155157.881464","155924.74723","156674.503811","157441.098689","158207.785324","158974.431632","159741.057486","163607.592166","164374.241981","165140.946734","165907.573464","152091.239246","152857.92705","153624.588847","154391.203888","165146.136268"
"Mixed","Male","tile","27","M_tile.wav","None","731.272208715","404","162840.947611","155157.881464","155924.74723","156674.503811","157441.098689","158207.785324","158974.431632","159741.057486","163607.592166","164374.241981","165140.946734","165907.573464","166674.692","152857.92705","153624.588847","154391.203888","165912.466979"
"Mixed","Male","tile","27","F_bluff.wav","space","536.124520759","404","162840.947611","155157.881464","155924.74723","156674.503811","157441.098689","158207.785324","158974.431632","159741.057486","163607.592166","164374.241981","165140.946734","165907.573464","166674.692","167424.156945","153624.588847","154391.203888","166680.047515"
"Mixed","Male","tile","27","M_tile.wav","None","742.200357677","404","162840.947611","155157.881464","155924.74723","156674.503811","157441.098689","158207.785324","158974.431632","159741.057486","163607.592166","164374.241981","165140.946734","165907.573464","166674.692","167424.156945","168190.819326","154391.203888","167429.122931"
"Mixed","Male","tile","27","F_dime.wav","space","532.266633159","404","162840.947611","155157.881464","155924.74723","156674.503811","157441.098689","158207.785324","158974.431632","159741.057486","163607.592166","164374.241981","165140.946734","165907.573464","166674.692","167424.156945","168190.819326","168957.441088","168195.836743"
"Mixed","Male","tile","27","F_gnash.wav","None","736.500900038","404","162840.947611","169724.135321","155924.74723","156674.503811","157441.098689","158207.785324","158974.431632","159741.057486","163607.592166","164374.241981","165140.946734","165907.573464","166674.692","167424.156945","168190.819326","168957.441088","168962.48422"
"Mixed","Male","tile","27","M_reek.wav","None","734.10148214","404","162840.947611","169724.135321","170490.719387","156674.503811","157441.098689","158207.785324","158974.431632","159741.057486","163607.592166","164374.241981","165140.946734","165907.573464","166674.692","167424.156945","168190.819326","168957.441088","169729.103645"
"Mixed","Male","tile","27","M_tile.wav","None","731.867168506","404","162840.947611","169724.135321","170490.719387","171257.400178","157441.098689","158207.785324","158974.431632","159741.057486","163607.592166","164374.241981","165140.946734","165907.573464","166674.692","167424.156945","168190.819326","168957.441088","170495.682158"
"Mixed","Male","tile","27","M_lash.wav","space","553.547842248","404","162840.947611","169724.135321","170490.719387","171257.400178","172007.364527","158207.785324","158974.431632","159741.057486","163607.592166","164374.241981","165140.946734","165907.573464","166674.692","167424.156945","168190.819326","168957.441088","171262.39334"
"Mixed","Male","tile","27","F_reek.wav","None","742.564171498","404","162840.947611","169724.135321","170490.719387","171257.400178","172007.364527","172774.033921","158974.431632","159741.057486","163607.592166","164374.241981","165140.946734","165907.573464","166674.692","167424.156945","168190.819326","168957.441088","172012.749264"
"Mixed","Male","tile","27","M_depth.wav","None","740.5355807","404","162840.947611","169724.135321","170490.719387","171257.400178","172007.364527","172774.033921","173540.733706","159741.057486","163607.592166","164374.241981","165140.946734","165907.573464","166674.692","167424.156945","168190.819326","168957.441088","172779.108905"
"Mixed","Male","tile","27","M_lash.wav","None","737.946219843","404","162840.947611","169724.135321","170490.719387","171257.400178","172007.364527","172774.033921","173540.733706","174307.315726","163607.592166","164374.241981","165140.946734","165907.573464","166674.692","167424.156945","168190.819326","168957.441088","173546.000386"
"Mixed","Male","done","42","F_priest.wav","None","739.449691416","404","177423.939242","169724.135321","170490.719387","171257.400178","172007.364527","172774.033921","173540.733706","174307.315726","163607.592166","164374.241981","165140.946734","165907.573464","166674.692","167424.156945","168190.819326","168957.441088","174308.800496"
"Mixed","Male","done","42","M_done.wav","None","741.071804283","404","177423.939242","169724.135321","170490.719387","171257.400178","172007.364527","172774.033921","173540.733706","174307.315726","178190.580583","164374.241981","165140.946734","165907.573464","166674.692","167424.156945","168190.819326","168957.441088","177428.844445"
"Mixed","Male","done","42","F_reek.wav","None","738.357081073","404","177423.939242","169724.135321","170490.719387","171257.400178","172007.364527","172774.033921","173540.733706","174307.315726","178190.580583","178957.174292","165140.946734","165907.573464","166674.692","167424.156945","168190.819326","168957.441088","178195.706705"
"Mixed","Male","done","42","M_jaw.wav","space","93.3610552642","404","177423.939242","169724.135321","170490.719387","171257.400178","172007.364527","172774.033921","173540.733706","174307.315726","178190.580583","178957.174292","179723.845147","165907.573464","166674.692","167424.156945","168190.819326","168957.441088","178962.129173"
"Mixed","Male","done","42","M_done.wav","None","732.692397606","404","177423.939242","169724.135321","170490.719387","171257.400178","172007.364527","172774.033921","173540.733706","174307.315726","178190.580583","178957.174292","179723.845147","180490.494378","166674.692","167424.156945","168190.819326","168957.441088","179728.91487"
"Mixed","Male","done","42","M_priest.wav","space","679.721689733","404","177423.939242","169724.135321","170490.719387","171257.400178","172007.364527","172774.033921","173540.733706","174307.315726","178190.580583","178957.174292","179723.845147","180490.494378","181240.496423","167424.156945","168190.819326","168957.441088","180495.608227"
"Mixed","Male","done","42","F_priest.wav","None","743.543984945","404","177423.939242","169724.135321","170490.719387","171257.400178","172007.364527","172774.033921","173540.733706","174307.315726","178190.580583","178957.174292","179723.845147","180490.494378","181240.496423","182007.090425","168190.819326","168957.441088","181245.439031"
"Mixed","Male","done","42","M_done.wav","None","741.194536656","404","177423.939242","169724.135321","170490.719387","171257.400178","172007.364527","172774.033921","173540.733706","174307.315726","178190.580583","178957.174292","179723.845147","180490.494378","181240.496423","182007.090425","182773.763033","168957.441088","182012.100828"
"Mixed","Male","done","42","F_jolt.wav","None","738.912591173","404","177423.939242","169724.135321","170490.719387","171257.400178","172007.364527","172774.033921","173540.733706","174307.315726","178190.580583","178957.174292","179723.845147","180490.494378","181240.496423","182007.090425","182773.763033","183540.409926","182778.662685"
"Mixed","Male","done","42","F_dime.wav","space","0.0213320554467","404","177423.939242","184307.025259","170490.719387","171257.400178","172007.364527","172774.033921","173540.733706","174307.315726","178190.580583","178957.174292","179723.845147","180490.494378","181240.496423","182007.090425","182773.763033","183540.409926","183545.412147"
"Mixed","Male","done","42","M_priest.wav","None","732.53752104","404","177423.939242","184307.025259","185073.689101","171257.400178","172007.364527","172774.033921","173540.733706","174307.315726","178190.580583","178957.174292","179723.845147","180490.494378","181240.496423","182007.090425","182773.763033","183540.409926","184312.436004"
"Mixed","Male","done","42","M_dime.wav","None","730.765207125","404","177423.939242","184307.025259","185073.689101","185840.80267","172007.364527","172774.033921","173540.733706","174307.315726","178190.580583","178957.174292","179723.845147","180490.494378","181240.496423","182007.090425","182773.763033","183540.409926","185078.658301"
"Mixed","Male","done","42","F_dime.wav","None","727.315550776","404","177423.939242","184307.025259","185073.689101","185840.80267","186590.404666","172774.033921","173540.733706","174307.315726","178190.580583","178957.174292","179723.845147","180490.494378","181240.496423","182007.090425","182773.763033","183540.409926","185846.3116"
"Mixed","Male","done","42","M_done.wav","None","742.939089676","404","177423.939242","184307.025259","185073.689101","185840.80267","186590.404666","187356.921814","173540.733706","174307.315726","178190.580583","178957.174292","179723.845147","180490.494378","181240.496423","182007.090425","182773.763033","183540.409926","186595.246751"
"Mixed","Male","done","42","F_jaw.wav","None","740.153357023","404","177423.939242","184307.025259","185073.689101","185840.80267","186590.404666","187356.921814","188123.617507","174307.315726","178190.580583","178957.174292","179723.845147","180490.494378","181240.496423","182007.090425","182773.763033","183540.409926","187362.070144"
"Mixed","Male","done","42","F_bluff.wav","space","245.971748177","404","177423.939242","184307.025259","185073.689101","185840.80267","186590.404666","187356.921814","188123.617507","188890.249205","178190.580583","178957.174292","179723.845147","180490.494378","181240.496423","182007.090425","182773.763033","183540.409926","188128.904643"
"Mixed","Male","tile","29","F_cling.wav","None","734.889307088","404","191990.209463","184307.025259","185073.689101","185840.80267","186590.404666","187356.921814","188123.617507","188890.249205","178190.580583","178957.174292","179723.845147","180490.494378","181240.496423","182007.090425","182773.763033","183540.409926","188895.083984"
"Mixed","Male","tile","29","M_tile.wav","None","741.45081354","404","191990.209463","184307.025259","185073.689101","185840.80267","186590.404666","187356.921814","188123.617507","188890.249205","192756.800835","178957.174292","179723.845147","180490.494378","181240.496423","182007.090425","182773.763033","183540.409926","191995.6205"
"Mixed","Male","tile","29","F_cad.wav","space","708.535159903","404","191990.209463","184307.025259","185073.689101","185840.80267","186590.404666","187356.921814","188123.617507","188890.249205","192756.800835","193523.416752","179723.845147","180490.494378","181240.496423","182007.090425","182773.763033","183540.409926","192761.954133"
"Mixed","Male","tile","29","M_jolt.wav","None","736.610190294","404","191990.209463","184307.025259","185073.689101","185840.80267","186590.404666","187356.921814","188123.617507","188890.249205","192756.800835","193523.416752","194290.11946","180490.494378","181240.496423","182007.090425","182773.763033","183540.409926","193528.468943"
"Mixed","Male","tile","29","F_knife.wav","None","734.453607163","404","191990.209463","184307.025259","185073.689101","185840.80267","186590.404666","187356.921814","188123.617507","188890.249205","192756.800835","193523.416752","194290.11946","195056.734208","181240.496423","182007.090425","182773.763033","183540.409926","194295.131031"
"Mixed","Male","tile","29","F_gnash.wav","None","732.111464372","404","191990.209463","184307.025259","185073.689101","185840.80267","186590.404666","187356.921814","188123.617507","188890.249205","192756.800835","193523.416752","194290.11946","195056.734208","195823.4112","182007.090425","182773.763033","183540.409926","195061.826725"
"Mixed","Male","tile","29","M_tile.wav","None","729.656524687","404","191990.209463","184307.025259","185073.689101","185840.80267","186590.404666","187356.921814","188123.617507","188890.249205","192756.800835","193523.416752","194290.11946","195056.734208","195823.4112","196590.357327","182773.763033","183540.409926","195828.679633"
"Mixed","Male","tile","29","F_lash.wav","space","514.422222742","404","191990.209463","184307.025259","185073.689101","185840.80267","186590.404666","187356.921814","188123.617507","188890.249205","192756.800835","193523.416752","194290.11946","195056.734208","195823.4112","196590.357327","197340.004325","183540.409926","196595.957429"
"Mixed","Male","tile","29","M_priest.wav","None","740.916635497","404","191990.209463","184307.025259","185073.689101","185840.80267","186590.404666","187356.921814","188123.617507","188890.249205","192756.800835","193523.416752","194290.11946","195056.734208","195823.4112","196590.357327","197340.004325","198106.66992","197344.92677"
"Mixed","Male","tile","29","M_tile.wav","None","738.691380681","404","191990.209463","198873.342236","185073.689101","185840.80267","186590.404666","187356.921814","188123.617507","188890.249205","192756.800835","193523.416752","194290.11946","195056.734208","195823.4112","196590.357327","197340.004325","198106.66992","198111.736137"
"Mixed","Male","tile","29","F_lash.wav","space","615.935045353","404","191990.209463","198873.342236","199639.97598","185840.80267","186590.404666","187356.921814","188123.617507","188890.249205","192756.800835","193523.416752","194290.11946","195056.734208","195823.4112","196590.357327","197340.004325","198106.66992","198878.326924"
"Mixed","Male","tile","29","M_cling.wav","None","732.946336731","404","191990.209463","198873.342236","199639.97598","200406.615275","186590.404666","187356.921814","188123.617507","188890.249205","192756.800835","193523.416752","194290.11946","195056.734208","195823.4112","196590.357327","197340.004325","198106.66992","199645.114083"
"Mixed","Male","tile","29","M_tile.wav","None","731.050413784","404","191990.209463","198873.342236","199639.97598","200406.615275","201173.350418","187356.921814","188123.617507","188890.249205","192756.800835","193523.416752","194290.11946","195056.734208","195823.4112","196590.357327","197340.004325","198106.66992","200411.459697"
"Mixed","Male","tile","29","F_romp.wav","space","586.945951001","404","191990.209463","198873.342236","199639.97598","200406.615275","201173.350418","201923.265967","188123.617507","188890.249205","192756.800835","193523.416752","194290.11946","195056.734208","195823.4112","196590.357327","197340.004325","198106.66992","201179.155367"
"Mixed","Male","tile","29","F_cling.wav","None","742.2813026","404","191990.209463","198873.342236","199639.97598","200406.615275","201173.350418","201923.265967","202689.907308","188890.249205","192756.800835","193523.416752","194290.11946","195056.734208","195823.4112","196590.357327","197340.004325","198106.66992","201928.269941"
"Mixed","Male","tile","29","M_cling.wav","None","740.07124322","404","191990.209463","198873.342236","199639.97598","200406.615275","201173.350418","201923.265967","202689.907308","203456.532577","192756.800835","193523.416752","194290.11946","195056.734208","195823.4112","196590.357327","197340.004325","198106.66992","202694.93992"
"Mixed","Male","tile","30","F_jolt.wav","None","738.034178044","404","206573.204308","198873.342236","199639.97598","200406.615275","201173.350418","201923.265967","202689.907308","203456.532577","192756.800835","193523.416752","194290.11946","195056.734208","195823.4112","196590.357327","197340.004325","198106.66992","203461.505283"
"Mixed","Male","tile","30","F_bluff.wav","None","740.927447634","404","206573.204308","198873.342236","199639.97598","200406.615275","201173.350418","201923.265967","202689.907308","203456.532577","207339.763828","193523.416752","194290.11946","195056.734208","195823.4112","196590.357327","197340.004325","198106.66992","206578.335106"
"Mixed","Male","tile","30","F_cling.wav","None","738.952917524","404","206573.204308","198873.342236","199639.97598","200406.615275","201173.350418","201923.265967","202689.907308","203456.532577","207339.763828","208106.373609","194290.11946","195056.734208","195823.4112","196590.357327","197340.004325","198106.66992","207344.704098"
"Mixed","Male","tile","30","F_jaw.wav","None","737.366455489","404","206573.204308","198873.342236","199639.97598","200406.615275","201173.350418","201923.265967","202689.907308","203456.532577","207339.763828","208106.373609","208873.053523","195056.734208","195823.4112","196590.357327","197340.004325","198106.66992","208111.246084"
"Mixed","Male","tile","30","M_tile.wav","None","735.218346736","404","206573.204308","198873.342236","199639.97598","200406.615275","201173.350418","201923.265967","202689.907308","203456.532577","207339.763828","208106.373609","208873.053523","209639.645479","195823.4112","196590.357327","197340.004325","198106.66992","208877.874275"
"Mixed","Male","tile","30","F_cling.wav","space","560.583913877","404","206573.204308","198873.342236","199639.97598","200406.615275","201173.350418","201923.265967","202689.907308","203456.532577","207339.763828","208106.373609","208873.053523","209639.645479","210406.36192","196590.357327","197340.004325","198106.66992","209645.018527"
"Mixed","Male","tile","30","M_depth.wav","None","729.220240322","404","206573.204308","198873.342236","199639.97598","200406.615275","201173.350418","201923.265967","202689.907308","203456.532577","207339.763828","208106.373609","208873.053523","209639.645479","210406.36192","211156.288865","197340.004325","198106.66992","210411.446255"
"Mixed","Male","tile","30","M_romp.wav","None","743.868056854","404","206573.204308","198873.342236","199639.97598","200406.615275","201173.350418","201923.265967","202689.907308","203456.532577","207339.763828","208106.373609","208873.053523","209639.645479","210406.36192","211156.288865","211922.935174","198106.66992","211161.238487"
"Mixed","Male","tile","30","M_tile.wav","None","741.534680662","404","206573.204308","198873.342236","199639.97598","200406.615275","201173.350418","201923.265967","202689.907308","203456.532577","207339.763828","208106.373609","208873.053523","209639.645479","210406.36192","211156.288865","211922.935174","212689.619763","211927.960772"
"Mixed","Male","tile","30","M_park.wav","space","542.721678044","404","206573.204308","213456.293249","199639.97598","200406.615275","201173.350418","201923.265967","202689.907308","203456.532577","207339.763828","208106.373609","208873.053523","209639.645479","210406.36192","211156.288865","211922.935174","212689.619763","212694.689487"
"Mixed","Male","tile","30","M_tile.wav","None","735.906232467","404","206573.204308","213456.293249","214222.886081","200406.615275","201173.350418","201923.265967","202689.907308","203456.532577","207339.763828","208106.373609","208873.053523","209639.645479","210406.36192","211156.288865","211922.935174","212689.619763","213461.733507"
"Mixed","Male","tile","30","F_greet.wav","space","529.278976529","404","206573.204308","213456.293249","214222.886081","214989.516902","201173.350418","201923.265967","202689.907308","203456.532577","207339.763828","208106.373609","208873.053523","209639.645479","210406.36192","211156.288865","211922.935174","212689.619763","214228.048731"
"Mixed","Male","tile","30","F_cad.wav","None","731.054212643","404","206573.204308","213456.293249","214222.886081","214989.516902","215756.400201","201923.265967","202689.907308","203456.532577","207339.763828","208106.373609","208873.053523","209639.645479","210406.36192","211156.288865","211922.935174","212689.619763","214994.523214"
"Mixed","Male","tile","30","F_bluff.wav","None","728.453455209","404","206573.204308","213456.293249","214222.886081","214989.516902","215756.400201","216506.113826","202689.907308","203456.532577","207339.763828","208106.373609","208873.053523","209639.645479","210406.36192","211156.288865","211922.935174","212689.619763","215761.585352"
"Mixed","Male","tile","30","M_tile.wav","None","743.691848233","404","206573.204308","213456.293249","214222.886081","214989.516902","215756.400201","216506.113826","217272.828806","203456.532577","207339.763828","208106.373609","208873.053523","209639.645479","210406.36192","211156.288865","211922.935174","212689.619763","216511.097637"
"Mixed","Male","tile","30","M_cad.wav","space","543.184846643","404","206573.204308","213456.293249","214222.886081","214989.516902","215756.400201","216506.113826","217272.828806","218039.516318","207339.763828","208106.373609","208873.053523","209639.645479","210406.36192","211156.288865","211922.935174","212689.619763","217277.959311"
"Mixed","Male","done","41","F_priest.wav","None","737.897126894","404","221156.083435","213456.293249","214222.886081","214989.516902","215756.400201","216506.113826","217272.828806","218039.516318","207339.763828","208106.373609","208873.053523","209639.645479","210406.36192","211156.288865","211922.935174","212689.619763","218044.683058"
"Mixed","Male","done","41","F_romp.wav","None","741.065959884","404","221156.083435","213456.293249","214222.886081","214989.516902","215756.400201","216506.113826","217272.828806","218039.516318","221922.688248","208106.373609","208873.053523","209639.645479","210406.36192","211156.288865","211922.935174","212689.619763","221161.33375"
"Mixed","Male","done","41","F_depth.wav","None","739.051687863","404","221156.083435","213456.293249","214222.886081","214989.516902","215756.400201","216506.113826","217272.828806","218039.516318","221922.688248","222689.307965","208873.053523","209639.645479","210406.36192","211156.288865","211922.935174","212689.619763","221927.697482"
"Mixed","Male","done","41","M_done.wav","None","736.980140734","404","221156.083435","213456.293249","214222.886081","214989.516902","215756.400201","216506.113826","217272.828806","218039.516318","221922.688248","222689.307965","223455.963917","209639.645479","210406.36192","211156.288865","211922.935174","212689.619763","222694.46477"
"Mixed","Male","done","41","M_jolt.wav","space","527.755049561","404","221156.083435","213456.293249","214222.886081","214989.516902","215756.400201","216506.113826","217272.828806","218039.516318","221922.688248","222689.307965","223455.963917","224222.594445","210406.36192","211156.288865","211922.935174","212689.619763","223461.003834"
"Mixed","Male","done","41","F_greet.wav","None","731.721058537","404","221156.083435","213456.293249","214222.886081","214989.516902","215756.400201","216506.113826","217272.828806","218039.516318","221922.688248","222689.307965","223455.963917","224222.594445","224989.22439","211156.288865","211922.935174","212689.619763","224227.552833"
"Mixed","Male","done","41","F_romp.wav","None","729.919230409","404","221156.083435","213456.293249","214222.886081","214989.516902","215756.400201","216506.113826","217272.828806","218039.516318","221922.688248","222689.307965","223455.963917","224222.594445","224989.22439","225756.006289","211922.935174","212689.619763","224994.164076"
"Mixed","Male","done","41","M_done.wav","None","727.466628483","404","221156.083435","213456.293249","214222.886081","214989.516902","215756.400201","216506.113826","217272.828806","218039.516318","221922.688248","222689.307965","223455.963917","224222.594445","224989.22439","225756.006289","226505.869237","212689.619763","225760.954741"
"Mixed","Male","done","41","M_reek.wav","space","685.727101646","404","221156.083435","213456.293249","214222.886081","214989.516902","215756.400201","216506.113826","217272.828806","218039.516318","221922.688248","222689.307965","223455.963917","224222.594445","224989.22439","225756.006289","226505.869237","227272.539508","226510.85188"
"Mixed","Male","done","41","M_done.wav","None","738.341008977","404","221156.083435","228039.173836","214222.886081","214989.516902","215756.400201","216506.113826","217272.828806","218039.516318","221922.688248","222689.307965","223455.963917","224222.594445","224989.22439","225756.006289","226505.869237","227272.539508","227277.844469"
"Mixed","Male","done","41","F_greet.wav","None","736.495055638","404","221156.083435","228039.173836","228805.927681","214989.516902","215756.400201","216506.113826","217272.828806","218039.516318","221922.688248","222689.307965","223455.963917","224222.594445","224989.22439","225756.006289","226505.869237","227272.539508","228044.211415"
"Mixed","Male","done","41","F_cad.wav","None","733.901895923","404","221156.083435","228039.173836","228805.927681","229572.449504","215756.400201","216506.113826","217272.828806","218039.516318","221922.688248","222689.307965","223455.963917","224222.594445","224989.22439","225756.006289","226505.869237","227272.539508","228811.081272"
"Mixed","Male","done","41","M_done.wav","None","732.149160744","404","221156.083435","228039.173836","228805.927681","229572.449504","230339.111009","216506.113826","217272.828806","218039.516318","221922.688248","222689.307965","223455.963917","224222.594445","224989.22439","225756.006289","226505.869237","227272.539508","229577.551372"
"Mixed","Male","done","41","F_bluff.wav","space","596.100909388","404","221156.083435","228039.173836","228805.927681","229572.449504","230339.111009","231089.065714","217272.828806","218039.516318","221922.688248","222689.307965","223455.963917","224222.594445","224989.22439","225756.006289","226505.869237","227272.539508","230344.245021"
"Mixed","Male","done","41","M_knife.wav","None","743.053347672","404","221156.083435","228039.173836","228805.927681","229572.449504","230339.111009","231089.065714","231855.763454","218039.516318","221922.688248","222689.307965","223455.963917","224222.594445","224989.22439","225756.006289","226505.869237","227272.539508","231094.262262"
"Mixed","Male","done","41","M_jaw.wav","None","741.246259584","404","221156.083435","228039.173836","228805.927681","229572.449504","230339.111009","231089.065714","231855.763454","232622.416191","221922.688248","222689.307965","223455.963917","224222.594445","224989.22439","225756.006289","226505.869237","227272.539508","231860.704016"
"Mixed","Male","tile","26","F_romp.wav","None","739.080033196","404","235722.300764","228039.173836","228805.927681","229572.449504","230339.111009","231089.065714","231855.763454","232622.416191","221922.688248","222689.307965","223455.963917","224222.594445","224989.22439","225756.006289","226505.869237","227272.539508","232627.416074"
"Mixed","Male","tile","26","F_jaw.wav","None","741.278403777","404","235722.300764","228039.173836","228805.927681","229572.449504","230339.111009","231089.065714","231855.763454","232622.416191","236488.968113","222689.307965","223455.963917","224222.594445","224989.22439","225756.006289","226505.869237","227272.539508","235727.339805"
"Mixed","Male","tile","26","F_jolt.wav","None","739.172959136","404","235722.300764","228039.173836","228805.927681","229572.449504","230339.111009","231089.065714","231855.763454","232622.416191","236488.968113","237255.576725","223455.963917","224222.594445","224989.22439","225756.006289","226505.869237","227272.539508","236494.080501"
"Mixed","Male","tile","26","M_tile.wav","None","737.784329998","404","235722.300764","228039.173836","228805.927681","229572.449504","230339.111009","231089.065714","231855.763454","232622.416191","236488.968113","237255.576725","238022.21456","224222.594445","224989.22439","225756.006289","226505.869237","227272.539508","237260.550601"
"Mixed","Male","tile","26","M_jolt.wav","space","648.810372639","404","235722.300764","228039.173836","228805.927681","229572.449504","230339.111009","231089.065714","231855.763454","232622.416191","236488.968113","237255.576725","238022.21456","238788.865544","224989.22439","225756.006289","226505.869237","227272.539508","238027.080606"
"Mixed","Male","tile","26","F_priest.wav","None","732.476154853","404","235722.300764","228039.173836","228805.927681","229572.449504","230339.111009","231089.065714","231855.763454","232622.416191","236488.968113","237255.576725","238022.21456","238788.865544","239555.562406","225756.006289","226505.869237","227272.539508","238793.908675"
"Mixed","Male","tile","26","M_tile.wav","None","730.178137273","404","235722.300764","228039.173836","228805.927681","229572.449504","230339.111009","231089.065714","231855.763454","232622.416191","236488.968113","237255.576725","238022.21456","238788.865544","239555.562406","240322.463239","226505.869237","227272.539508","239560.840775"
"Mixed","Male","tile","26","F_cad.wav","space","587.699293997","404","235722.300764","228039.173836","228805.927681","229572.449504","230339.111009","231089.065714","231855.763454","232622.416191","236488.968113","237255.576725","238022.21456","238788.865544","239555.562406","240322.463239","241072.142089","227272.539508","240328.11185"
"Mixed","Male","tile","26","M_tile.wav","None","742.027655695","404","235722.300764","228039.173836","228805.927681","229572.449504","230339.111009","231089.065714","231855.763454","232622.416191","236488.968113","237255.576725","238022.21456","238788.865544","239555.562406","240322.463239","241072.142089","241838.843043","241077.017194"
"Mixed","Male","tile","26","F_reek.wav","space","607.724541799","404","235722.300764","242605.430031","228805.927681","229572.449504","230339.111009","231089.065714","231855.763454","232622.416191","236488.968113","237255.576725","238022.21456","238788.865544","239555.562406","240322.463239","241072.142089","241838.843043","241843.934975"
"Mixed","Male","tile","26","M_tile.wav","None","736.496224518","404","235722.300764","242605.430031","243372.097964","229572.449504","230339.111009","231089.065714","231855.763454","232622.416191","236488.968113","237255.576725","238022.21456","238788.865544","239555.562406","240322.463239","241072.142089","241838.843043","242610.446863"
"Mixed","Male","tile","26","M_cad.wav","space","506.274254255","404","235722.300764","242605.430031","243372.097964","244138.744272","230339.111009","231089.065714","231855.763454","232622.416191","236488.968113","237255.576725","238022.21456","238788.865544","239555.562406","240322.463239","241072.142089","241838.843043","243377.305908"
"Mixed","Male","tile","26","M_park.wav","None","731.059764822","404","235722.300764","242605.430031","243372.097964","244138.744272","244905.376555","231089.065714","231855.763454","232622.416191","236488.968113","237255.576725","238022.21456","238788.865544","239555.562406","240322.463239","241072.142089","241838.843043","244143.920072"
"Mixed","Male","tile","26","F_bluff.wav","None","729.462490649","404","235722.300764","242605.430031","243372.097964","244138.744272","244905.376555","245672.462654","231855.763454","232622.416191","236488.968113","237255.576725","238022.21456","238788.865544","239555.562406","240322.463239","241072.142089","241838.843043","244910.434297"
"Mixed","Male","tile","26","M_knife.wav","None","726.498796054","404","235722.300764","242605.430031","243372.097964","244138.744272","244905.376555","245672.462654","246421.988966","232622.416191","236488.968113","237255.576725","238022.21456","238788.865544","239555.562406","240322.463239","241072.142089","241838.843043","245677.978013"
"Mixed","Male","tile","26","F_priest.wav","None","742.329518889","404","235722.300764","242605.430031","243372.097964","244138.744272","244905.376555","245672.462654","246421.988966","247188.750409","236488.968113","237255.576725","238022.21456","238788.865544","239555.562406","240322.463239","241072.142089","241838.843043","246426.939756"
"Mixed","Female","done","48","F_gnash.wav","None","740.35177436","404","250305.259667","242605.430031","243372.097964","244138.744272","244905.376555","245672.462654","246421.988966","247188.750409","236488.968113","237255.576725","238022.21456","238788.865544","239555.562406","240322.463239","241072.142089","241838.843043","247193.599799"
"Mixed","Female","done","48","M_knife.wav","None","741.004885917","404","250305.259667","242605.430031","243372.097964","244138.744272","244905.376555","245672.462654","246421.988966","247188.750409","251071.867402","237255.576725","238022.21456","238788.865544","239555.562406","240322.463239","241072.142089","241838.843043","250310.482806"
"Mixed","Female","done","48","M_depth.wav","None","739.174420235","404","250305.259667","242605.430031","243372.097964","244138.744272","244905.376555","245672.462654","246421.988966","247188.750409","251071.867402","251838.482151","238022.21456","238788.865544","239555.562406","240322.463239","241072.142089","241838.843043","251076.86787"
"Mixed","Female","done","48","M_jolt.wav","None","737.187324668","404","250305.259667","242605.430031","243372.097964","244138.744272","244905.376555","245672.462654","246421.988966","247188.750409","251071.867402","251838.482151","252605.191579","238788.865544","239555.562406","240322.463239","241072.142089","241838.843043","251843.589571"
"Mixed","Female","done","48","M_lash.wav","None","735.33874135","404","250305.259667","242605.430031","243372.097964","244138.744272","244905.376555","245672.462654","246421.988966","247188.750409","251071.867402","251838.482151","252605.191579","253371.876461","239555.562406","240322.463239","241072.142089","241838.843043","252610.148214"
"Mixed","Female","done","48","F_done.wav","None","733.169592762","404","250305.259667","242605.430031","243372.097964","244138.744272","244905.376555","245672.462654","246421.988966","247188.750409","251071.867402","251838.482151","252605.191579","253371.876461","254138.452929","240322.463239","241072.142089","241838.843043","253377.127361"
"Mixed","Female","done","48","F_bluff.wav","space","459.286749579","404","250305.259667","242605.430031","243372.097964","244138.744272","244905.376555","245672.462654","246421.988966","247188.750409","251071.867402","251838.482151","252605.191579","253371.876461","254138.452929","254905.56679","241072.142089","241838.843043","254143.626099"
"Mixed","Female","done","48","F_done.wav","None","727.11479568","404","250305.259667","242605.430031","243372.097964","244138.744272","244905.376555","245672.462654","246421.988966","247188.750409","251071.867402","251838.482151","252605.191579","253371.876461","254138.452929","254905.56679","255655.066217","241838.843043","254911.063155"
"Mixed","Female","done","48","F_romp.wav","space","494.686272677","404","250305.259667","242605.430031","243372.097964","244138.744272","244905.376555","245672.462654","246421.988966","247188.750409","251071.867402","251838.482151","252605.191579","253371.876461","254138.452929","254905.56679","255655.066217","256421.76571","255660.165747"
"Mixed","Female","done","48","F_knife.wav","None","739.203642229","404","250305.259667","257188.360003","243372.097964","244138.744272","244905.376555","245672.462654","246421.988966","247188.750409","251071.867402","251838.482151","252605.191579","253371.876461","254138.452929","254905.56679","255655.066217","256421.76571","256426.726435"
"Mixed","Female","done","48","M_lash.wav","None","737.125666262","404","250305.259667","257188.360003","257955.066801","244138.744272","244905.376555","245672.462654","246421.988966","247188.750409","251071.867402","251838.482151","252605.191579","253371.876461","254138.452929","254905.56679","255655.066217","256421.76571","257193.548953"
"Mixed","Female","done","48","F_done.wav","None","735.450661586","404","250305.259667","257188.360003","257955.066801","258721.623691","244905.376555","245672.462654","246421.988966","247188.750409","251071.867402","251838.482151","252605.191579","253371.876461","254138.452929","254905.56679","255655.066217","256421.76571","257960.022559"
"Mixed","Female","done","48","M_depth.wav","space","548.135929026","404","250305.259667","257188.360003","257955.066801","258721.623691","259488.294838","245672.462654","246421.988966","247188.750409","251071.867402","251838.482151","252605.191579","253371.876461","254138.452929","254905.56679","255655.066217","256421.76571","258726.498212"
"Mixed","Female","done","48","F_done.wav","None","730.120569946","404","250305.259667","257188.360003","257955.066801","258721.623691","259488.294838","260255.425063","246421.988966","247188.750409","251071.867402","251838.482151","252605.191579","253371.876461","254138.452929","254905.56679","255655.066217","256421.76571","259493.403719"
"Mixed","Female","done","48","M_cling.wav","space","645.729205629","404","250305.259667","257188.360003","257955.066801","258721.623691","259488.294838","260255.425063","261004.920984","247188.750409","251071.867402","251838.482151","252605.191579","253371.876461","254138.452929","254905.56679","255655.066217","256421.76571","260260.824703"
"Mixed","Female","done","48","M_romp.wav","None","741.49610763","404","250305.259667","257188.360003","257955.066801","258721.623691","259488.294838","260255.425063","261004.920984","261771.594761","251071.867402","251838.482151","252605.191579","253371.876461","254138.452929","254905.56679","255655.066217","256421.76571","261010.068146"
"Mixed","Female","ball","11","M_cling.wav","None","739.734605854","404","264871.47086","257188.360003","257955.066801","258721.623691","259488.294838","260255.425063","261004.920984","261771.594761","251071.867402","251838.482151","252605.191579","253371.876461","254138.452929","254905.56679","255655.066217","256421.76571","261776.540584"
"Mixed","Female","ball","11","M_dime.wav","None","741.582604732","404","264871.47086","257188.360003","257955.066801","258721.623691","259488.294838","260255.425063","261004.920984","261771.594761","265638.15691","251838.482151","252605.191579","253371.876461","254138.452929","254905.56679","255655.066217","256421.76571","264876.475711"
"Mixed","Female","ball","11","F_cling.wav","None","739.192537872","404","264871.47086","257188.360003","257955.066801","258721.623691","259488.294838","260255.425063","261004.920984","261771.594761","265638.15691","266404.758217","252605.191579","253371.876461","254138.452929","254905.56679","255655.066217","256421.76571","265643.516516"
"Mixed","Female","ball","11","M_park.wav","None","738.05200346","404","264871.47086","257188.360003","257955.066801","258721.623691","259488.294838","260255.425063","261004.920984","261771.594761","265638.15691","266404.758217","267171.403357","253371.876461","254138.452929","254905.56679","255655.066217","256421.76571","266409.546241"
"Mixed","Female","ball","11","F_ball.wav","None","736.054680194","404","264871.47086","257188.360003","257955.066801","258721.623691","259488.294838","260255.425063","261004.920984","261771.594761","265638.15691","266404.758217","267171.403357","267938.040315","254138.452929","254905.56679","255655.066217","256421.76571","267176.384246"
"Mixed","Female","ball","11","M_gnash.wav","space","619.166121189","404","264871.47086","257188.360003","257955.066801","258721.623691","259488.294838","260255.425063","261004.920984","261771.594761","265638.15691","266404.758217","267171.403357","267938.040315","268704.746528","254905.56679","255655.066217","256421.76571","267942.89175"
"Mixed","Female","ball","11","F_ball.wav","None","730.581108566","404","264871.47086","257188.360003","257955.066801","258721.623691","259488.294838","260255.425063","261004.920984","261771.594761","265638.15691","266404.758217","267171.403357","267938.040315","268704.746528","269471.663141","255655.066217","256421.76571","268709.738229"
"Mixed","Female","ball","11","F_depth.wav","space","620.348150832","404","264871.47086","257188.360003","257955.066801","258721.623691","259488.294838","260255.425063","261004.920984","261771.594761","265638.15691","266404.758217","267171.403357","267938.040315","268704.746528","269471.663141","270221.413585","256421.76571","269477.669721"
"Mixed","Female","ball","11","F_jaw.wav","None","741.646016458","404","264871.47086","257188.360003","257955.066801","258721.623691","259488.294838","260255.425063","261004.920984","261771.594761","265638.15691","266404.758217","267171.403357","267938.040315","268704.746528","269471.663141","270221.413585","270988.035347","270226.520713"
"Mixed","Female","ball","11","M_priest.wav","None","739.75009351","404","264871.47086","271754.649219","257955.066801","258721.623691","259488.294838","260255.425063","261004.920984","261771.594761","265638.15691","266404.758217","267171.403357","267938.040315","268704.746528","269471.663141","270221.413585","270988.035347","270993.062699"
"Mixed","Female","ball","11","F_ball.wav","None","741.401428371","404","264871.47086","271754.649219","272521.243805","258721.623691","259488.294838","260255.425063","261004.920984","261771.594761","265638.15691","266404.758217","267171.403357","267938.040315","268704.746528","269471.663141","270221.413585","270988.035347","271756.258474"
"Mixed","Female","ball","11","F_priest.wav","None","736.318262577","404","264871.47086","271754.649219","272521.243805","273287.942421","259488.294838","260255.425063","261004.920984","261771.594761","265638.15691","266404.758217","267171.403357","267938.040315","268704.746528","269471.663141","270221.413585","270988.035347","272526.135567"
"Mixed","Female","ball","11","M_lash.wav","space","0.0482162895496","404","264871.47086","271754.649219","272521.243805","273287.942421","274054.571781","260255.425063","261004.920984","261771.594761","265638.15691","266404.758217","267171.403357","267938.040315","268704.746528","269471.663141","270221.413585","270988.035347","273292.913959"
"Mixed","Female","ball","11","F_ball.wav","None","730.684846643","404","264871.47086","271754.649219","272521.243805","273287.942421","274054.571781","274821.241175","261004.920984","261771.594761","265638.15691","266404.758217","267171.403357","267938.040315","268704.746528","269471.663141","270221.413585","270988.035347","274059.568157"
"Mixed","Female","ball","11","M_cling.wav","space","447.478141949","404","264871.47086","271754.649219","272521.243805","273287.942421","274054.571781","274821.241175","275571.239714","261771.594761","265638.15691","266404.758217","267171.403357","267938.040315","268704.746528","269471.663141","270221.413585","270988.035347","274826.210083"
"Mixed","Female","ball","11","M_cad.wav","None","742.175226763","404","264871.47086","271754.649219","272521.243805","273287.942421","274054.571781","274821.241175","275571.239714","276337.828455","265638.15691","266404.758217","267171.403357","267938.040315","268704.746528","269471.663141","270221.413585","270988.035347","275576.420773"
"Mixed","Female","cave","20","F_bluff.wav","None","740.751239013","404","279437.818228","271754.649219","272521.243805","273287.942421","274054.571781","274821.241175","275571.239714","276337.828455","265638.15691","266404.758217","267171.403357","267938.040315","268704.746528","269471.663141","270221.413585","270988.035347","276342.769894"
"Mixed","Female","cave","20","M_cad.wav","None","741.142813727","404","279437.818228","271754.649219","272521.243805","273287.942421","274054.571781","274821.241175","275571.239714","276337.828455","280204.428885","266404.758217","267171.403357","267938.040315","268704.746528","269471.663141","270221.413585","270988.035347","279442.679891"
"Mixed","Female","cave","20","M_jaw.wav","None","738.967820741","404","279437.818228","271754.649219","272521.243805","273287.942421","274054.571781","274821.241175","275571.239714","276337.828455","280204.428885","280971.044803","267171.403357","267938.040315","268704.746528","269471.663141","270221.413585","270988.035347","280209.620173"
"Mixed","Female","cave","20","F_cave.wav","None","737.431912755","404","279437.818228","271754.649219","272521.243805","273287.942421","274054.571781","274821.241175","275571.239714","276337.828455","280204.428885","280971.044803","281737.713028","267938.040315","268704.746528","269471.663141","270221.413585","270988.035347","280976.09787"
"Mixed","Female","cave","20","M_jolt.wav","space","618.321605573","404","279437.818228","271754.649219","272521.243805","273287.942421","274054.571781","274821.241175","275571.239714","276337.828455","280204.428885","280971.044803","281737.713028","282504.343557","268704.746528","269471.663141","270221.413585","270988.035347","281742.911913"
"Mixed","Female","cave","20","M_cad.wav","None","731.84671311","404","279437.818228","271754.649219","272521.243805","273287.942421","274054.571781","274821.241175","275571.239714","276337.828455","280204.428885","280971.044803","281737.713028","282504.343557","283270.997171","269471.663141","270221.413585","270988.035347","282509.448932"
"Mixed","Female","cave","20","M_depth.wav","None","730.060080419","404","279437.818228","271754.649219","272521.243805","273287.942421","274054.571781","274821.241175","275571.239714","276337.828455","280204.428885","280971.044803","281737.713028","282504.343557","283270.997171","284037.927518","270221.413585","270988.035347","283275.976599"
"Mixed","Female","cave","20","F_cave.wav","None","726.97686787","404","279437.818228","271754.649219","272521.243805","273287.942421","274054.571781","274821.241175","275571.239714","276337.828455","280204.428885","280971.044803","281737.713028","282504.343557","283270.997171","284037.927518","284787.613674","270988.035347","284043.659704"
"Mixed","Female","cave","20","M_priest.wav","space","608.498047971","404","279437.818228","271754.649219","272521.243805","273287.942421","274054.571781","274821.241175","275571.239714","276337.828455","280204.428885","280971.044803","281737.713028","282504.343557","283270.997171","284037.927518","284787.613674","285554.263781","284792.582581"
"Mixed","Female","cave","20","F_dime.wav","None","739.190784552","404","279437.818228","286320.88642","272521.243805","273287.942421","274054.571781","274821.241175","275571.239714","276337.828455","280204.428885","280971.044803","281737.713028","282504.343557","283270.997171","284037.927518","284787.613674","285554.263781","285559.3224"
"Mixed","Female","cave","20","M_reek.wav","None","737.395677483","404","279437.818228","286320.88642","287087.551431","273287.942421","274054.571781","274821.241175","275571.239714","276337.828455","280204.428885","280971.044803","281737.713028","282504.343557","283270.997171","284037.927518","284787.613674","285554.263781","286325.875783"
"Mixed","Female","cave","20","F_cave.wav","None","738.92837105","404","279437.818228","286320.88642","287087.551431","287854.182252","274054.571781","274821.241175","275571.239714","276337.828455","280204.428885","280971.044803","281737.713028","282504.343557","283270.997171","284037.927518","284787.613674","285554.263781","287088.993244"
"Mixed","Female","cave","20","M_gnash.wav","None","733.381159996","404","279437.818228","286320.88642","287087.551431","287854.182252","288620.878238","274821.241175","275571.239714","276337.828455","280204.428885","280971.044803","281737.713028","282504.343557","283270.997171","284037.927518","284787.613674","285554.263781","287859.367402"
"Mixed","Female","cave","20","F_cave.wav","space","366.716441462","404","279437.818228","286320.88642","287087.551431","287854.182252","288620.878238","289387.817059","275571.239714","276337.828455","280204.428885","280971.044803","281737.713028","282504.343557","283270.997171","284037.927518","284787.613674","285554.263781","288626.186413"
"Mixed","Female","cave","20","F_bluff.wav","space","655.681340003","404","279437.818228","286320.88642","287087.551431","287854.182252","288620.878238","289387.817059","290137.48948","276337.828455","280204.428885","280971.044803","281737.713028","282504.343557","283270.997171","284037.927518","284787.613674","285554.263781","289393.148611"
"Mixed","Female","cave","20","F_gnash.wav","None","741.45139798","404","279437.818228","286320.88642","287087.551431","287854.182252","288620.878238","289387.817059","290137.48948","290904.135789","280204.428885","280971.044803","281737.713028","282504.343557","283270.997171","284037.927518","284787.613674","285554.263781","290142.452543"
"Mixed","Male","ball","3","F_priest.wav","None","739.898833458","404","294020.725991","286320.88642","287087.551431","287854.182252","288620.878238","289387.817059","290137.48948","290904.135789","280204.428885","280971.044803","281737.713028","282504.343557","283270.997171","284037.927518","284787.613674","285554.263781","290908.98138"
"Mixed","Male","ball","3","M_ball.wav","None","741.188107818","404","294020.725991","286320.88642","287087.551431","287854.182252","288620.878238","289387.817059","290137.48948","290904.135789","294787.36178","280971.044803","281737.713028","282504.343557","283270.997171","284037.927518","284787.613674","285554.263781","294025.811495"
"Mixed","Male","ball","3","M_gnash.wav","space","512.236709837","404","294020.725991","286320.88642","287087.551431","287854.182252","288620.878238","289387.817059","290137.48948","290904.135789","294787.36178","295553.966886","281737.713028","282504.343557","283270.997171","284037.927518","284787.613674","285554.263781","294792.288024"
"Mixed","Male","ball","3","M_ball.wav","None","736.324983636","404","294020.725991","286320.88642","287087.551431","287854.182252","288620.878238","289387.817059","290137.48948","290904.135789","294787.36178","295553.966886","296320.65469","282504.343557","283270.997171","284037.927518","284787.613674","285554.263781","295558.91563"
"Mixed","Male","ball","3","F_romp.wav","space","482.709054143","404","294020.725991","286320.88642","287087.551431","287854.182252","288620.878238","289387.817059","290137.48948","290904.135789","294787.36178","295553.966886","296320.65469","297087.235249","283270.997171","284037.927518","284787.613674","285554.263781","296325.711556"
"Mixed","Male","ball","3","M_ball.wav","None","731.450462876","404","294020.725991","286320.88642","287087.551431","287854.182252","288620.878238","289387.817059","290137.48948","290904.135789","294787.36178","295553.966886","296320.65469","297087.235249","297853.905812","284037.927518","284787.613674","285554.263781","297092.244191"
"Mixed","Male","ball","3","F_priest.wav","space","485.196138021","404","294020.725991","286320.88642","287087.551431","287854.182252","288620.878238","289387.817059","290137.48948","290904.135789","294787.36178","295553.966886","296320.65469","297087.235249","297853.905812","298603.937956","284787.613674","285554.263781","297859.11434"
