"Condition","Talker","Target","Trial","current_stimulus","response_response","response_time_response","subject_nr","time_Audio1","time_Audio10","time_Audio11","time_Audio12","time_Audio13","time_Audio14","time_Audio15","time_Audio16","time_Audio2","time_Audio3","time_Audio4","time_Audio5","time_Audio6","time_Audio7","time_Audio8","time_Audio9","time_response","title"
"Blocked","Female","ball","2","F_knife.wav","NA","NA","126","25211.0904756","NA","NA","NA","NA","NA","NA","NA","NA","NA","NA","NA","NA","NA","NA","NA","NA","Mapping"
"Blocked","Female","ball","2","F_done.wav","None","716.874333215","126","25211.0904756","NA","NA","NA","NA","NA","NA","NA","25961.222879","NA","NA","NA","NA","NA","NA","NA","25224.5160126","Mapping"
"Blocked","Female","ball","2","F_ball.wav","None","734.077039175","126","25211.0904756","NA","NA","NA","NA","NA","NA","NA","25961.222879","26728.0008583","NA","NA","NA","NA","NA","NA","25970.931845","Mapping"
"Blocked","Female","ball","2","F_cling.wav","space","422.23351053","126","25211.0904756","NA","NA","NA","NA","NA","NA","NA","25961.222879","26728.0008583","27494.3970088","NA","NA","NA","NA","NA","26738.3083836","Mapping"
"Blocked","Female","ball","2","F_cling.wav","None","728.171830997","126","25211.0904756","NA","NA","NA","NA","NA","NA","NA","25961.222879","26728.0008583","27494.3970088","28261.2479529","NA","NA","NA","NA","27503.9674651","Mapping"
"Blocked","Female","ball","2","F_ball.wav","None","724.877281464","126","25211.0904756","NA","NA","NA","NA","NA","NA","NA","25961.222879","26728.0008583","27494.3970088","28261.2479529","29028.2401893","NA","NA","NA","28270.8412881","Mapping"
"Blocked","Female","ball","2","F_cling.wav","space","402.046973933","126","25211.0904756","NA","NA","NA","NA","NA","NA","NA","25961.222879","26728.0008583","27494.3970088","28261.2479529","29028.2401893","29777.8633845","NA","NA","29038.4249728","Mapping"
"Blocked","Female","ball","2","F_done.wav","None","735.58209429","126","25211.0904756","NA","NA","NA","NA","NA","NA","NA","25961.222879","26728.0008583","27494.3970088","28261.2479529","29028.2401893","29777.8633845","30544.7569946","NA","29787.3355238","Mapping"
"Blocked","Female","ball","2","F_lash.wav","None","732.081016991","126","25211.0904756","NA","NA","NA","NA","NA","NA","NA","25961.222879","26728.0008583","27494.3970088","28261.2479529","29028.2401893","29777.8633845","30544.7569946","31311.2162163","30554.4591587","Mapping"
"Blocked","Female","ball","2","F_jaw.wav","None","729.007217102","126","25211.0904756","32077.8550677","NA","NA","NA","NA","NA","NA","25961.222879","26728.0008583","27494.3970088","28261.2479529","29028.2401893","29777.8633845","30544.7569946","31311.2162163","31321.376266","Mapping"
"Blocked","Female","ball","2","F_priest.wav","None","726.050593774","126","25211.0904756","32077.8550677","32844.7446586","NA","NA","NA","NA","NA","25961.222879","26728.0008583","27494.3970088","28261.2479529","29028.2401893","29777.8633845","30544.7569946","31311.2162163","32087.9294764","Mapping"
"Blocked","Female","ball","2","F_ball.wav","None","722.588781384","126","25211.0904756","32077.8550677","32844.7446586","33611.2616957","NA","NA","NA","NA","25961.222879","26728.0008583","27494.3970088","28261.2479529","29028.2401893","29777.8633845","30544.7569946","31311.2162163","32854.9711804","Mapping"
"Blocked","Female","ball","2","F_lash.wav","space","419.377368409","126","25211.0904756","32077.8550677","32844.7446586","33611.2616957","34361.0954378","NA","NA","NA","25961.222879","26728.0008583","27494.3970088","28261.2479529","29028.2401893","29777.8633845","30544.7569946","31311.2162163","33621.0547568","Mapping"
"Blocked","Female","ball","2","F_park.wav","None","733.579270309","126","25211.0904756","32077.8550677","32844.7446586","33611.2616957","34361.0954378","35127.7843752","NA","NA","25961.222879","26728.0008583","27494.3970088","28261.2479529","29028.2401893","29777.8633845","30544.7569946","31311.2162163","34371.1843777","Mapping"
"Blocked","Female","ball","2","F_ball.wav","None","736.201677471","126","25211.0904756","32077.8550677","32844.7446586","33611.2616957","34361.0954378","35127.7843752","35894.2485438","NA","25961.222879","26728.0008583","27494.3970088","28261.2479529","29028.2401893","29777.8633845","30544.7569946","31311.2162163","35132.3085066","Mapping"
"Blocked","Female","ball","2","F_cad.wav","space","464.296833496","126","25211.0904756","32077.8550677","32844.7446586","33611.2616957","34361.0954378","35127.7843752","35894.2485438","36661.360121","25961.222879","26728.0008583","27494.3970088","28261.2479529","29028.2401893","29777.8633845","30544.7569946","31311.2162163","35904.0728314","Mapping"
"Blocked","Female","cave","7","F_ball.wav","None","724.892740138","126","39811.4000198","32077.8550677","32844.7446586","33611.2616957","34361.0954378","35127.7843752","35894.2485438","36661.360121","25961.222879","26728.0008583","27494.3970088","28261.2479529","29028.2401893","29777.8633845","30544.7569946","31311.2162163","36671.1182455","Mapping"
"Blocked","Female","cave","7","F_cave.wav","None","720.721993712","126","39811.4000198","32077.8550677","32844.7446586","33611.2616957","34361.0954378","35127.7843752","35894.2485438","36661.360121","40560.9140767","26728.0008583","27494.3970088","28261.2479529","29028.2401893","29777.8633845","30544.7569946","31311.2162163","39821.573673","Mapping"
"Blocked","Female","cave","7","F_knife.wav","space","485.67337764","126","39811.4000198","32077.8550677","32844.7446586","33611.2616957","34361.0954378","35127.7843752","35894.2485438","36661.360121","40560.9140767","41327.302807","27494.3970088","28261.2479529","29028.2401893","29777.8633845","30544.7569946","31311.2162163","40570.5998548","Mapping"
"Blocked","Female","cave","7","F_cling.wav","None","733.333477634","126","39811.4000198","32077.8550677","32844.7446586","33611.2616957","34361.0954378","35127.7843752","35894.2485438","36661.360121","40560.9140767","41327.302807","42094.7748802","28261.2479529","29028.2401893","29777.8633845","30544.7569946","31311.2162163","41336.5399748","Mapping"
"Blocked","Female","cave","7","F_cad.wav","None","729.565892951","126","39811.4000198","32077.8550677","32844.7446586","33611.2616957","34361.0954378","35127.7843752","35894.2485438","36661.360121","40560.9140767","41327.302807","42094.7748802","42861.0581824","29028.2401893","29777.8633845","30544.7569946","31311.2162163","42104.0018452","Mapping"
"Blocked","Female","cave","7","F_cave.wav","None","725.994014996","126","39811.4000198","32077.8550677","32844.7446586","33611.2616957","34361.0954378","35127.7843752","35894.2485438","36661.360121","40560.9140767","41327.302807","42094.7748802","42861.0581824","43628.0838095","29777.8633845","30544.7569946","31311.2162163","42871.280376","Mapping"
"Blocked","Female","cave","7","F_tile.wav","space","609.677182976","126","39811.4000198","32077.8550677","32844.7446586","33611.2616957","34361.0954378","35127.7843752","35894.2485438","36661.360121","40560.9140767","41327.302807","42094.7748802","42861.0581824","43628.0838095","44394.4385307","30544.7569946","31311.2162163","43638.548704","Mapping"
"Blocked","Female","cave","7","F_tile.wav","None","720.113540767","126","39811.4000198","32077.8550677","32844.7446586","33611.2616957","34361.0954378","35127.7843752","35894.2485438","36661.360121","40560.9140767","41327.302807","42094.7748802","42861.0581824","43628.0838095","44394.4385307","45144.0246251","31311.2162163","44404.2433404","Mapping"
"Blocked","Female","cave","7","F_lash.wav","None","739.918866777","126","39811.4000198","32077.8550677","32844.7446586","33611.2616957","34361.0954378","35127.7843752","35894.2485438","36661.360121","40560.9140767","41327.302807","42094.7748802","42861.0581824","43628.0838095","44394.4385307","45144.0246251","45910.9256554","45148.1489956","Mapping"
"Blocked","Female","cave","7","F_cave.wav","None","730.6217195","126","39811.4000198","46677.5910956","32844.7446586","33611.2616957","34361.0954378","35127.7843752","35894.2485438","36661.360121","40560.9140767","41327.302807","42094.7748802","42861.0581824","43628.0838095","44394.4385307","45144.0246251","45910.9256554","45921.0863233","Mapping"
"Blocked","Female","cave","7","F_cling.wav","space","528.613206698","126","39811.4000198","46677.5910956","47444.4881066","33611.2616957","34361.0954378","35127.7843752","35894.2485438","36661.360121","40560.9140767","41327.302807","42094.7748802","42861.0581824","43628.0838095","44394.4385307","45144.0246251","45910.9256554","46687.5693515","Mapping"
"Blocked","Female","cave","7","F_jolt.wav","None","724.681883934","126","39811.4000198","46677.5910956","47444.4881066","48211.2351686","34361.0954378","35127.7843752","35894.2485438","36661.360121","40560.9140767","41327.302807","42094.7748802","42861.0581824","43628.0838095","44394.4385307","45144.0246251","45910.9256554","47454.2372652","Mapping"
"Blocked","Female","cave","7","F_done.wav","None","721.481941291","126","39811.4000198","46677.5910956","47444.4881066","48211.2351686","48960.7405688","35127.7843752","35894.2485438","36661.360121","40560.9140767","41327.302807","42094.7748802","42861.0581824","43628.0838095","44394.4385307","45144.0246251","45910.9256554","48221.1469522","Mapping"
"Blocked","Female","cave","7","F_greet.wav","None","736.193329678","126","39811.4000198","46677.5910956","47444.4881066","48211.2351686","48960.7405688","49727.6616953","35894.2485438","36661.360121","40560.9140767","41327.302807","42094.7748802","42861.0581824","43628.0838095","44394.4385307","45144.0246251","45910.9256554","48970.1613854","Mapping"
"Blocked","Female","cave","7","F_cave.wav","None","732.180570718","126","39811.4000198","46677.5910956","47444.4881066","48211.2351686","48960.7405688","49727.6616953","50494.0930915","36661.360121","40560.9140767","41327.302807","42094.7748802","42861.0581824","43628.0838095","44394.4385307","45144.0246251","45910.9256554","49737.7147711","Mapping"
"Blocked","Female","cave","7","F_knife.wav","space","496.662629885","126","39811.4000198","46677.5910956","47444.4881066","48211.2351686","48960.7405688","49727.6616953","50494.0930915","51260.5238693","40560.9140767","41327.302807","42094.7748802","42861.0581824","43628.0838095","44394.4385307","45144.0246251","45910.9256554","50503.4882467","Mapping"
"Blocked","Female","tile","15","F_cave.wav","None","727.618101868","126","54377.659392","46677.5910956","47444.4881066","48211.2351686","48960.7405688","49727.6616953","50494.0930915","51260.5238693","40560.9140767","41327.302807","42094.7748802","42861.0581824","43628.0838095","44394.4385307","45144.0246251","45910.9256554","51269.6203631","Mapping"
"Blocked","Female","tile","15","F_lash.wav","None","718.861389323","126","54377.659392","46677.5910956","47444.4881066","48211.2351686","48960.7405688","49727.6616953","50494.0930915","51260.5238693","55127.0398862","41327.302807","42094.7748802","42861.0581824","43628.0838095","44394.4385307","45144.0246251","45910.9256554","54388.6838899","Mapping"
"Blocked","Female","tile","15","F_tile.wav","None","735.397208715","126","54377.659392","46677.5910956","47444.4881066","48211.2351686","48960.7405688","49727.6616953","50494.0930915","51260.5238693","55127.0398862","55893.9560659","42094.7748802","42861.0581824","43628.0838095","44394.4385307","45144.0246251","45910.9256554","55136.3892837","Mapping"
"Blocked","Female","tile","15","F_gnash.wav","space","488.087402075","126","54377.659392","46677.5910956","47444.4881066","48211.2351686","48960.7405688","49727.6616953","50494.0930915","51260.5238693","55127.0398862","55893.9560659","56660.4424949","42861.0581824","43628.0838095","44394.4385307","45144.0246251","45910.9256554","55903.929375","Mapping"
"Blocked","Female","tile","15","F_tile.wav","None","729.337104829","126","54377.659392","46677.5910956","47444.4881066","48211.2351686","48960.7405688","49727.6616953","50494.0930915","51260.5238693","55127.0398862","55893.9560659","56660.4424949","57427.352182","43628.0838095","44394.4385307","45144.0246251","45910.9256554","56669.6555471","Mapping"
"Blocked","Female","tile","15","F_gnash.wav","space","514.971866738","126","54377.659392","46677.5910956","47444.4881066","48211.2351686","48960.7405688","49727.6616953","50494.0930915","51260.5238693","55127.0398862","55893.9560659","56660.4424949","57427.352182","58194.400997","44394.4385307","45144.0246251","45910.9256554","57437.0104437","Mapping"
"Blocked","Female","tile","15","F_tile.wav","None","721.929005696","126","54377.659392","46677.5910956","47444.4881066","48211.2351686","48960.7405688","49727.6616953","50494.0930915","51260.5238693","55127.0398862","55893.9560659","56660.4424949","57427.352182","58194.400997","58961.11034","45144.0246251","45910.9256554","58204.6253548","Mapping"
"Blocked","Female","tile","15","F_greet.wav","space","476.653558668","126","54377.659392","46677.5910956","47444.4881066","48211.2351686","48960.7405688","49727.6616953","50494.0930915","51260.5238693","55127.0398862","55893.9560659","56660.4424949","57427.352182","58194.400997","58961.11034","59710.5288624","45910.9256554","58971.3183115","Mapping"
"Blocked","Female","tile","15","F_reek.wav","None","734.03251823","126","54377.659392","46677.5910956","47444.4881066","48211.2351686","48960.7405688","49727.6616953","50494.0930915","51260.5238693","55127.0398862","55893.9560659","56660.4424949","57427.352182","58194.400997","58961.11034","59710.5288624","60477.1927568","59720.7927944","Mapping"
"Blocked","Female","tile","15","F_tile.wav","None","732.270231005","126","54377.659392","61244.304334","47444.4881066","48211.2351686","48960.7405688","49727.6616953","50494.0930915","51260.5238693","55127.0398862","55893.9560659","56660.4424949","57427.352182","58194.400997","58961.11034","59710.5288624","60477.1927568","60486.8534919","Mapping"
"Blocked","Female","tile","15","F_cling.wav","space","682.236422901","126","54377.659392","61244.304334","62010.6244279","48211.2351686","48960.7405688","49727.6616953","50494.0930915","51260.5238693","55127.0398862","55893.9560659","56660.4424949","57427.352182","58194.400997","58961.11034","59710.5288624","60477.1927568","61253.6750645","Mapping"
"Blocked","Female","tile","15","F_cave.wav","None","726.296695648","126","54377.659392","61244.304334","62010.6244279","62777.7081796","48960.7405688","49727.6616953","50494.0930915","51260.5238693","55127.0398862","55893.9560659","56660.4424949","57427.352182","58194.400997","58961.11034","59710.5288624","60477.1927568","62020.3000031","Mapping"
"Blocked","Female","tile","15","F_reek.wav","None","722.05638513","126","54377.659392","61244.304334","62010.6244279","62777.7081796","63544.3222971","49727.6616953","50494.0930915","51260.5238693","55127.0398862","55893.9560659","56660.4424949","57427.352182","58194.400997","58961.11034","59710.5288624","60477.1927568","62788.5246039","Mapping"
"Blocked","Female","tile","15","F_cad.wav","None","720.07613082","126","54377.659392","61244.304334","62010.6244279","62777.7081796","63544.3222971","64293.44525","50494.0930915","51260.5238693","55127.0398862","55893.9560659","56660.4424949","57427.352182","58194.400997","58961.11034","59710.5288624","60477.1927568","63554.4588496","Mapping"
"Blocked","Female","tile","15","F_jaw.wav","None","735.147396801","126","54377.659392","61244.304334","62010.6244279","62777.7081796","63544.3222971","64293.44525","65060.5163255","51260.5238693","55127.0398862","55893.9560659","56660.4424949","57427.352182","58194.400997","58961.11034","59710.5288624","60477.1927568","64303.375584","Mapping"
"Blocked","Female","tile","15","F_cad.wav","None","732.234985218","126","54377.659392","61244.304334","62010.6244279","62777.7081796","63544.3222971","64293.44525","65060.5163255","65827.2439096","55127.0398862","55893.9560659","56660.4424949","57427.352182","58194.400997","58961.11034","59710.5288624","60477.1927568","65070.2469336","Mapping"
"Blocked","Female","tile","14","F_cad.wav","None","729.281762848","126","68960.8357941","61244.304334","62010.6244279","62777.7081796","63544.3222971","64293.44525","65060.5163255","65827.2439096","55127.0398862","55893.9560659","56660.4424949","57427.352182","58194.400997","58961.11034","59710.5288624","60477.1927568","65837.0598495","Mapping"
"Blocked","Female","tile","14","F_tile.wav","None","718.864790164","126","68960.8357941","61244.304334","62010.6244279","62777.7081796","63544.3222971","64293.44525","65060.5163255","65827.2439096","69710.4116859","55893.9560659","56660.4424949","57427.352182","58194.400997","58961.11034","59710.5288624","60477.1927568","68971.3306784","Mapping"
"Blocked","Female","tile","14","F_jaw.wav","space","343.075586949","126","68960.8357941","61244.304334","62010.6244279","62777.7081796","63544.3222971","64293.44525","65060.5163255","65827.2439096","69710.4116859","70476.7933051","56660.4424949","57427.352182","58194.400997","58961.11034","59710.5288624","60477.1927568","69720.6694343","Mapping"
"Blocked","Female","tile","14","F_tile.wav","None","731.870160904","126","68960.8357941","61244.304334","62010.6244279","62777.7081796","63544.3222971","64293.44525","65060.5163255","65827.2439096","69710.4116859","70476.7933051","71243.7465857","57427.352182","58194.400997","58961.11034","59710.5288624","60477.1927568","70485.8591908","Mapping"
"Blocked","Female","tile","14","F_priest.wav","space","442.818571231","126","68960.8357941","61244.304334","62010.6244279","62777.7081796","63544.3222971","64293.44525","65060.5163255","65827.2439096","69710.4116859","70476.7933051","71243.7465857","72010.4828266","58194.400997","58961.11034","59710.5288624","60477.1927568","71252.9172811","Mapping"
"Blocked","Female","tile","14","F_tile.wav","None","724.82997796","126","68960.8357941","61244.304334","62010.6244279","62777.7081796","63544.3222971","64293.44525","65060.5163255","65827.2439096","69710.4116859","70476.7933051","71243.7465857","72010.4828266","72777.1315714","58961.11034","59710.5288624","60477.1927568","72020.4007936","Mapping"
"Blocked","Female","tile","14","F_jolt.wav","space","452.944611898","126","68960.8357941","61244.304334","62010.6244279","62777.7081796","63544.3222971","64293.44525","65060.5163255","65827.2439096","69710.4116859","70476.7933051","71243.7465857","72010.4828266","72777.1315714","73544.0304375","59710.5288624","60477.1927568","72786.6358649","Mapping"
"Blocked","Female","tile","14","F_reek.wav","None","718.744831043","126","68960.8357941","61244.304334","62010.6244279","62777.7081796","63544.3222971","64293.44525","65060.5163255","65827.2439096","69710.4116859","70476.7933051","71243.7465857","72010.4828266","72777.1315714","73544.0304375","74293.8332623","60477.1927568","73554.1660625","Mapping"
"Blocked","Female","tile","14","F_tile.wav","None","733.254020102","126","68960.8357941","61244.304334","62010.6244279","62777.7081796","63544.3222971","64293.44525","65060.5163255","65827.2439096","69710.4116859","70476.7933051","71243.7465857","72010.4828266","72777.1315714","73544.0304375","74293.8332623","75060.053184","74303.5712906","Mapping"
"Blocked","Female","tile","14","F_done.wav","space","442.545262165","126","68960.8357941","75827.2333976","62010.6244279","62777.7081796","63544.3222971","64293.44525","65060.5163255","65827.2439096","69710.4116859","70476.7933051","71243.7465857","72010.4828266","72777.1315714","73544.0304375","74293.8332623","75060.053184","75069.1295817","Mapping"
"Blocked","Female","tile","14","F_cave.wav","None","727.106111008","126","68960.8357941","75827.2333976","76593.5958482","62777.7081796","63544.3222971","64293.44525","65060.5163255","65827.2439096","69710.4116859","70476.7933051","71243.7465857","72010.4828266","72777.1315714","73544.0304375","74293.8332623","75060.053184","75837.246281","Mapping"
"Blocked","Female","tile","14","F_depth.wav","None","725.255400292","126","68960.8357941","75827.2333976","76593.5958482","77360.901277","63544.3222971","64293.44525","65060.5163255","65827.2439096","69710.4116859","70476.7933051","71243.7465857","72010.4828266","72777.1315714","73544.0304375","74293.8332623","75060.053184","76603.06335","Mapping"
"Blocked","Female","tile","14","F_lash.wav","None","721.203067107","126","68960.8357941","75827.2333976","76593.5958482","77360.901277","78127.4643809","64293.44525","65060.5163255","65827.2439096","69710.4116859","70476.7933051","71243.7465857","72010.4828266","72777.1315714","73544.0304375","74293.8332623","75060.053184","77371.1506778","Mapping"
"Blocked","Female","tile","14","F_done.wav","None","718.591790297","126","68960.8357941","75827.2333976","76593.5958482","77360.901277","78127.4643809","78876.937318","65060.5163255","65827.2439096","69710.4116859","70476.7933051","71243.7465857","72010.4828266","72777.1315714","73544.0304375","74293.8332623","75060.053184","78137.7360421","Mapping"
"Blocked","Female","tile","14","F_ball.wav","None","733.574632672","126","68960.8357941","75827.2333976","76593.5958482","77360.901277","78127.4643809","78876.937318","79643.5328851","65827.2439096","69710.4116859","70476.7933051","71243.7465857","72010.4828266","72777.1315714","73544.0304375","74293.8332623","75060.053184","78886.7071911","Mapping"
"Blocked","Female","tile","14","F_cling.wav","None","729.839820415","126","68960.8357941","75827.2333976","76593.5958482","77360.901277","78127.4643809","78876.937318","79643.5328851","80410.309937","69710.4116859","70476.7933051","71243.7465857","72010.4828266","72777.1315714","73544.0304375","74293.8332623","75060.053184","79654.7014578","Mapping"
"Blocked","Female","done","19","F_ball.wav","None","727.510509547","126","83543.7951568","75827.2333976","76593.5958482","77360.901277","78127.4643809","78876.937318","79643.5328851","80410.309937","69710.4116859","70476.7933051","71243.7465857","72010.4828266","72777.1315714","73544.0304375","74293.8332623","75060.053184","80421.0230975","Mapping"
"Blocked","Female","done","19","F_ball.wav","None","720.344183967","126","83543.7951568","75827.2333976","76593.5958482","77360.901277","78127.4643809","78876.937318","79643.5328851","80410.309937","84293.2180077","70476.7933051","71243.7465857","72010.4828266","72777.1315714","73544.0304375","74293.8332623","75060.053184","83553.6497433","Mapping"
"Blocked","Female","done","19","F_done.wav","None","734.74856338","126","83543.7951568","75827.2333976","76593.5958482","77360.901277","78127.4643809","78876.937318","79643.5328851","80410.309937","84293.2180077","85060.129859","71243.7465857","72010.4828266","72777.1315714","73544.0304375","74293.8332623","75060.053184","84303.1477233","Mapping"
"Blocked","Female","done","19","F_romp.wav","space","521.652790369","126","83543.7951568","75827.2333976","76593.5958482","77360.901277","78127.4643809","78876.937318","79643.5328851","80410.309937","84293.2180077","85060.129859","85826.5238452","72010.4828266","72777.1315714","73544.0304375","74293.8332623","75060.053184","85069.8273856","Mapping"
"Blocked","Female","done","19","F_jolt.wav","None","729.428001796","126","83543.7951568","75827.2333976","76593.5958482","77360.901277","78127.4643809","78876.937318","79643.5328851","80410.309937","84293.2180077","85060.129859","85826.5238452","86593.5878097","72777.1315714","73544.0304375","74293.8332623","75060.053184","85835.9598112","Mapping"
"Blocked","Female","done","19","F_done.wav","None","725.429464714","126","83543.7951568","75827.2333976","76593.5958482","77360.901277","78127.4643809","78876.937318","79643.5328851","80410.309937","84293.2180077","85060.129859","85826.5238452","86593.5878097","87360.6514651","73544.0304375","74293.8332623","75060.053184","86603.9519138","Mapping"
"Blocked","Female","done","19","F_romp.wav","space","485.002781032","126","83543.7951568","75827.2333976","76593.5958482","77360.901277","78127.4643809","78876.937318","79643.5328851","80410.309937","84293.2180077","85060.129859","85826.5238452","86593.5878097","87360.6514651","88127.1756132","74293.8332623","75060.053184","87370.455038","Mapping"
"Blocked","Female","done","19","F_jaw.wav","None","719.569705077","126","83543.7951568","75827.2333976","76593.5958482","77360.901277","78127.4643809","78876.937318","79643.5328851","80410.309937","84293.2180077","85060.129859","85826.5238452","86593.5878097","87360.6514651","88127.1756132","88876.4012116","75060.053184","88137.205501","Mapping"
"Blocked","Female","done","19","F_jaw.wav","None","735.019090003","126","83543.7951568","75827.2333976","76593.5958482","77360.901277","78127.4643809","78876.937318","79643.5328851","80410.309937","84293.2180077","85060.129859","85826.5238452","86593.5878097","87360.6514651","88127.1756132","88876.4012116","89643.422201","88885.6733158","Mapping"
"Blocked","Female","done","19","F_gnash.wav","None","731.432371656","126","83543.7951568","90410.0622892","76593.5958482","77360.901277","78127.4643809","78876.937318","79643.5328851","80410.309937","84293.2180077","85060.129859","85826.5238452","86593.5878097","87360.6514651","88127.1756132","88876.4012116","89643.422201","89653.2826619","Mapping"
"Blocked","Female","done","19","F_reek.wav","None","734.967457945","126","83543.7951568","90410.0622892","91176.8257373","77360.901277","78127.4643809","78876.937318","79643.5328851","80410.309937","84293.2180077","85060.129859","85826.5238452","86593.5878097","87360.6514651","88127.1756132","88876.4012116","89643.422201","90414.1415204","Mapping"
"Blocked","Female","done","19","F_reek.wav","None","727.146612713","126","83543.7951568","90410.0622892","91176.8257373","91943.700797","78127.4643809","78876.937318","79643.5328851","80410.309937","84293.2180077","85060.129859","85826.5238452","86593.5878097","87360.6514651","88127.1756132","88876.4012116","89643.422201","91186.4113433","Mapping"
"Blocked","Female","done","19","F_done.wav","None","724.996004021","126","83543.7951568","90410.0622892","91176.8257373","91943.700797","92710.3551071","78876.937318","79643.5328851","80410.309937","84293.2180077","85060.129859","85826.5238452","86593.5878097","87360.6514651","88127.1756132","88876.4012116","89643.422201","91953.2857846","Mapping"
"Blocked","Female","done","19","F_dime.wav","space","390.283551998","126","83543.7951568","90410.0622892","91176.8257373","91943.700797","92710.3551071","93477.1658588","79643.5328851","80410.309937","84293.2180077","85060.129859","85826.5238452","86593.5878097","87360.6514651","88127.1756132","88876.4012116","89643.422201","92721.0657942","Mapping"
"Blocked","Female","done","19","F_done.wav","None","718.472758657","126","83543.7951568","90410.0622892","91176.8257373","91943.700797","92710.3551071","93477.1658588","94226.6208638","80410.309937","84293.2180077","85060.129859","85826.5238452","86593.5878097","87360.6514651","88127.1756132","88876.4012116","89643.422201","93487.2223354","Mapping"
"Blocked","Female","done","19","F_tile.wav","space","539.058314054","126","83543.7951568","90410.0622892","91176.8257373","91943.700797","92710.3551071","93477.1658588","94226.6208638","94993.2764105","84293.2180077","85060.129859","85826.5238452","86593.5878097","87360.6514651","88127.1756132","88876.4012116","89643.422201","94236.2519181","Mapping"
"Blocked","Female","tile","17","F_greet.wav","None","730.037382105","126","98127.1072859","90410.0622892","91176.8257373","91943.700797","92710.3551071","93477.1658588","94226.6208638","94993.2764105","84293.2180077","85060.129859","85826.5238452","86593.5878097","87360.6514651","88127.1756132","88876.4012116","89643.422201","95003.0728725","Mapping"
"Blocked","Female","tile","17","F_tile.wav","None","719.109655474","126","98127.1072859","90410.0622892","91176.8257373","91943.700797","92710.3551071","93477.1658588","94226.6208638","94993.2764105","98876.4587179","85060.129859","85826.5238452","86593.5878097","87360.6514651","88127.1756132","88876.4012116","89643.422201","98137.6887386","Mapping"
"Blocked","Female","tile","17","F_cave.wav","space","601.042284747","126","98127.1072859","90410.0622892","91176.8257373","91943.700797","92710.3551071","93477.1658588","94226.6208638","94993.2764105","98876.4587179","99643.1733167","85826.5238452","86593.5878097","87360.6514651","88127.1756132","88876.4012116","89643.422201","98886.1738673","Mapping"
"Blocked","Female","tile","17","F_tile.wav","None","731.491732877","126","98127.1072859","90410.0622892","91176.8257373","91943.700797","92710.3551071","93477.1658588","94226.6208638","94993.2764105","98876.4587179","99643.1733167","100409.910794","86593.5878097","87360.6514651","88127.1756132","88876.4012116","89643.422201","99652.9802906","Mapping"
"Blocked","Female","tile","17","F_bluff.wav","space","667.797416099","126","98127.1072859","90410.0622892","91176.8257373","91943.700797","92710.3551071","93477.1658588","94226.6208638","94993.2764105","98876.4587179","99643.1733167","100409.910794","101176.59293","87360.6514651","88127.1756132","88876.4012116","89643.422201","100419.402102","Mapping"
"Blocked","Female","tile","17","F_greet.wav","None","725.965571008","126","98127.1072859","90410.0622892","91176.8257373","91943.700797","92710.3551071","93477.1658588","94226.6208638","94993.2764105","98876.4587179","99643.1733167","100409.910794","101176.59293","101943.928039","88127.1756132","88876.4012116","89643.422201","101186.148546","Mapping"
"Blocked","Female","tile","17","F_tile.wav","None","722.562501673","126","98127.1072859","90410.0622892","91176.8257373","91943.700797","92710.3551071","93477.1658588","94226.6208638","94993.2764105","98876.4587179","99643.1733167","100409.910794","101176.59293","101943.928039","102710.15569","88876.4012116","89643.422201","101954.094273","Mapping"
"Blocked","Female","tile","17","F_knife.wav","space","470.590672339","126","98127.1072859","90410.0622892","91176.8257373","91943.700797","92710.3551071","93477.1658588","94226.6208638","94993.2764105","98876.4587179","99643.1733167","100409.910794","101176.59293","101943.928039","102710.15569","103459.725708","89643.422201","102720.561224","Mapping"
"Blocked","Female","tile","17","F_romp.wav","None","734.886763734","126","98127.1072859","90410.0622892","91176.8257373","91943.700797","92710.3551071","93477.1658588","94226.6208638","94993.2764105","98876.4587179","99643.1733167","100409.910794","101176.59293","101943.928039","102710.15569","103459.725708","104225.824434","103469.483523","Mapping"
"Blocked","Female","tile","17","F_cling.wav","None","736.163030728","126","98127.1072859","104992.836148","91176.8257373","91943.700797","92710.3551071","93477.1658588","94226.6208638","94993.2764105","98876.4587179","99643.1733167","100409.910794","101176.59293","101943.928039","102710.15569","103459.725708","104225.824434","104234.874861","Mapping"
"Blocked","Female","tile","17","F_tile.wav","None","732.998333871","126","98127.1072859","104992.836148","105759.871359","91943.700797","92710.3551071","93477.1658588","94226.6208638","94993.2764105","98876.4587179","99643.1733167","100409.910794","101176.59293","101943.928039","102710.15569","103459.725708","104225.824434","105002.256037","Mapping"
"Blocked","Female","tile","17","F_cling.wav","space","395.011737826","126","98127.1072859","104992.836148","105759.871359","106526.496607","92710.3551071","93477.1658588","94226.6208638","94993.2764105","98876.4587179","99643.1733167","100409.910794","101176.59293","101943.928039","102710.15569","103459.725708","104225.824434","105764.091264","Mapping"
"Blocked","Female","tile","17","F_jolt.wav","None","727.012122399","126","98127.1072859","104992.836148","105759.871359","106526.496607","107292.814227","93477.1658588","94226.6208638","94993.2764105","98876.4587179","99643.1733167","100409.910794","101176.59293","101943.928039","102710.15569","103459.725708","104225.824434","106536.112821","Mapping"
"Blocked","Female","tile","17","F_reek.wav","None","724.908817094","126","98127.1072859","104992.836148","105759.871359","106526.496607","107292.814227","108060.012992","94226.6208638","94993.2764105","98876.4587179","99643.1733167","100409.910794","101176.59293","101943.928039","102710.15569","103459.725708","104225.824434","107302.365515","Mapping"
"Blocked","Female","tile","17","F_cad.wav","None","721.112479456","126","98127.1072859","104992.836148","105759.871359","106526.496607","107292.814227","108060.012992","108827.088705","94993.2764105","98876.4587179","99643.1733167","100409.910794","101176.59293","101943.928039","102710.15569","103459.725708","104225.824434","108070.369984","Mapping"
"Blocked","Female","tile","17","F_cave.wav","None","718.4087598","126","98127.1072859","104992.836148","105759.871359","106526.496607","107292.814227","108060.012992","108827.088705","109576.081805","98876.4587179","99643.1733167","100409.910794","101176.59293","101943.928039","102710.15569","103459.725708","104225.824434","108837.225566","Mapping"
"Blocked","Female","cave","9","F_knife.wav","None","734.713008394","126","112710.224636","104992.836148","105759.871359","106526.496607","107292.814227","108060.012992","108827.088705","109576.081805","98876.4587179","99643.1733167","100409.910794","101176.59293","101943.928039","102710.15569","103459.725708","104225.824434","109585.141198","Mapping"
"Blocked","Female","cave","9","F_cave.wav","None","719.161596498","126","112710.224636","104992.836148","105759.871359","106526.496607","107292.814227","108060.012992","108827.088705","109576.081805","113459.637903","99643.1733167","100409.910794","101176.59293","101943.928039","102710.15569","103459.725708","104225.824434","112720.15126","Mapping"
"Blocked","Female","cave","9","F_jolt.wav","space","552.633181796","126","112710.224636","104992.836148","105759.871359","106526.496607","107292.814227","108060.012992","108827.088705","109576.081805","113459.637903","114226.472461","100409.910794","101176.59293","101943.928039","102710.15569","103459.725708","104225.824434","113470.335914","Mapping"
"Blocked","Female","cave","9","F_cave.wav","None","730.613371823","126","112710.224636","104992.836148","105759.871359","106526.496607","107292.814227","108060.012992","108827.088705","109576.081805","113459.637903","114226.472461","114993.203136","101176.59293","101943.928039","102710.15569","103459.725708","104225.824434","114236.296748","Mapping"
"Blocked","Female","cave","9","F_romp.wav","space","484.083918273","126","112710.224636","104992.836148","105759.871359","106526.496607","107292.814227","108060.012992","108827.088705","109576.081805","113459.637903","114226.472461","114993.203136","115759.741507","101943.928039","102710.15569","103459.725708","104225.824434","115002.848722","Mapping"
"Blocked","Female","cave","9","F_romp.wav","None","724.579547648","126","112710.224636","104992.836148","105759.871359","106526.496607","107292.814227","108060.012992","108827.088705","109576.081805","113459.637903","114226.472461","114993.203136","115759.741507","116526.879363","102710.15569","103459.725708","104225.824434","115769.861364","Mapping"
"Blocked","Female","cave","9","F_cling.wav","None","721.182661713","126","112710.224636","104992.836148","105759.871359","106526.496607","107292.814227","108060.012992","108827.088705","109576.081805","113459.637903","114226.472461","114993.203136","115759.741507","116526.879363","117293.373831","103459.725708","104225.824434","116537.29108","Mapping"
"Blocked","Female","cave","9","F_cave.wav","None","719.689045916","126","112710.224636","104992.836148","105759.871359","106526.496607","107292.814227","108060.012992","108827.088705","109576.081805","113459.637903","114226.472461","114993.203136","115759.741507","116526.879363","117293.373831","118042.795754","104225.824434","117303.078159","Mapping"
"Blocked","Female","cave","9","F_bluff.wav","space","442.810841952","126","112710.224636","104992.836148","105759.871359","106526.496607","107292.814227","108060.012992","108827.088705","109576.081805","113459.637903","114226.472461","114993.203136","115759.741507","116526.879363","117293.373831","118042.795754","118809.628148","118052.086718","Mapping"
"Blocked","Female","cave","9","F_cad.wav","None","730.098598404","126","112710.224636","119576.343365","105759.871359","106526.496607","107292.814227","108060.012992","108827.088705","109576.081805","113459.637903","114226.472461","114993.203136","115759.741507","116526.879363","117293.373831","118042.795754","118809.628148","118820.03801","Mapping"
"Blocked","Female","cave","9","F_romp.wav","None","726.931118988","126","112710.224636","119576.343365","120342.803205","106526.496607","107292.814227","108060.012992","108827.088705","109576.081805","113459.637903","114226.472461","114993.203136","115759.741507","116526.879363","117293.373831","118042.795754","118809.628148","119587.421969","Mapping"
"Blocked","Female","cave","9","F_cad.wav","None","726.527338848","126","112710.224636","119576.343365","120342.803205","121110.116364","107292.814227","108060.012992","108827.088705","109576.081805","113459.637903","114226.472461","114993.203136","115759.741507","116526.879363","117293.373831","118042.795754","118809.628148","120351.919177","Mapping"
"Blocked","Female","cave","9","F_cave.wav","None","722.34267951","126","112710.224636","119576.343365","120342.803205","121110.116364","121876.57002","108060.012992","108827.088705","109576.081805","113459.637903","114226.472461","114993.203136","115759.741507","116526.879363","117293.373831","118042.795754","118809.628148","121120.212724","Mapping"
"Blocked","Female","cave","9","F_gnash.wav","space","512.145096203","126","112710.224636","119576.343365","120342.803205","121110.116364","121876.57002","122626.029663","108827.088705","109576.081805","113459.637903","114226.472461","114993.203136","115759.741507","116526.879363","117293.373831","118042.795754","118809.628148","121886.684003","Mapping"
"Blocked","Female","cave","9","F_knife.wav","None","734.309846535","126","112710.224636","119576.343365","120342.803205","121110.116364","121876.57002","122626.029663","123392.729421","109576.081805","113459.637903","114226.472461","114993.203136","115759.741507","116526.879363","117293.373831","118042.795754","118809.628148","122635.728735","Mapping"
"Blocked","Female","cave","9","F_knife.wav","None","731.838934356","126","112710.224636","119576.343365","120342.803205","121110.116364","121876.57002","122626.029663","123392.729421","124159.474319","113459.637903","114226.472461","114993.203136","115759.741507","116526.879363","117293.373831","118042.795754","118809.628148","123402.392011","Mapping"
"Blocked","Female","done","21","F_priest.wav","None","728.886021068","126","127293.127729","119576.343365","120342.803205","121110.116364","121876.57002","122626.029663","123392.729421","124159.474319","113459.637903","114226.472461","114993.203136","115759.741507","116526.879363","117293.373831","118042.795754","118809.628148","124169.55151","Mapping"
"Blocked","Female","done","21","F_done.wav","None","720.208456856","126","127293.127729","119576.343365","120342.803205","121110.116364","121876.57002","122626.029663","123392.729421","124159.474319","128042.847077","114226.472461","114993.203136","115759.741507","116526.879363","117293.373831","118042.795754","118809.628148","127302.984171","Mapping"
"Blocked","Female","done","21","F_park.wav","space","490.434335778","126","127293.127729","119576.343365","120342.803205","121110.116364","121876.57002","122626.029663","123392.729421","124159.474319","128042.847077","128809.121722","114993.203136","115759.741507","116526.879363","117293.373831","118042.795754","118809.628148","128052.312724","Mapping"
"Blocked","Female","done","21","F_done.wav","None","732.37751401","126","127293.127729","119576.343365","120342.803205","121110.116364","121876.57002","122626.029663","123392.729421","124159.474319","128042.847077","128809.121722","129575.995236","115759.741507","116526.879363","117293.373831","118042.795754","118809.628148","128818.655696","Mapping"
"Blocked","Female","done","21","F_romp.wav","space","412.868345156","126","127293.127729","119576.343365","120342.803205","121110.116364","121876.57002","122626.029663","123392.729421","124159.474319","128042.847077","128809.121722","129575.995236","130342.612446","116526.879363","117293.373831","118042.795754","118809.628148","129585.802519","Mapping"
"Blocked","Female","done","21","F_ball.wav","None","726.86619265","126","127293.127729","119576.343365","120342.803205","121110.116364","121876.57002","122626.029663","123392.729421","124159.474319","128042.847077","128809.121722","129575.995236","130342.612446","131109.815229","117293.373831","118042.795754","118809.628148","130351.83941","Mapping"
"Blocked","Female","done","21","F_jaw.wav","None","723.066144739","126","127293.127729","119576.343365","120342.803205","121110.116364","121876.57002","122626.029663","123392.729421","124159.474319","128042.847077","128809.121722","129575.995236","130342.612446","131109.815229","131876.385444","118042.795754","118809.628148","131119.94467","Mapping"
"Blocked","Female","done","21","F_tile.wav","None","720.690457965","126","127293.127729","119576.343365","120342.803205","121110.116364","121876.57002","122626.029663","123392.729421","124159.474319","128042.847077","128809.121722","129575.995236","130342.612446","131109.815229","131876.385444","132642.903099","118809.628148","131886.581667","Mapping"
"Blocked","Female","done","21","F_bluff.wav","None","718.775748275","126","127293.127729","119576.343365","120342.803205","121110.116364","121876.57002","122626.029663","123392.729421","124159.474319","128042.847077","128809.121722","129575.995236","130342.612446","131109.815229","131876.385444","132642.903099","133392.687374","132653.101177","Mapping"
"Blocked","Female","done","21","F_cling.wav","None","733.531657606","126","127293.127729","134159.336428","120342.803205","121110.116364","121876.57002","122626.029663","123392.729421","124159.474319","128042.847077","128809.121722","129575.995236","130342.612446","131109.815229","131876.385444","132642.903099","133392.687374","133402.537323","Mapping"
"Blocked","Female","done","21","F_cad.wav","None","731.559750973","126","127293.127729","134159.336428","134925.441028","121110.116364","121876.57002","122626.029663","123392.729421","124159.474319","128042.847077","128809.121722","129575.995236","130342.612446","131109.815229","131876.385444","132642.903099","133392.687374","134168.756317","Mapping"
"Blocked","Female","done","21","F_done.wav","None","729.076162679","126","127293.127729","134159.336428","134925.441028","135692.4648","121876.57002","122626.029663","123392.729421","124159.474319","128042.847077","128809.121722","129575.995236","130342.612446","131109.815229","131876.385444","132642.903099","133392.687374","134935.251712","Mapping"
"Blocked","Female","done","21","F_tile.wav","space","400.527696824","126","127293.127729","134159.336428","134925.441028","135692.4648","136459.937491","122626.029663","123392.729421","124159.474319","128042.847077","128809.121722","129575.995236","130342.612446","131109.815229","131876.385444","132642.903099","133392.687374","135702.049478","Mapping"
"Blocked","Female","done","21","F_ball.wav","None","727.788147051","126","127293.127729","134159.336428","134925.441028","135692.4648","136459.937491","137226.295614","123392.729421","124159.474319","128042.847077","128809.121722","129575.995236","130342.612446","131109.815229","131876.385444","132642.903099","133392.687374","136464.588384","Mapping"
"Blocked","Female","done","21","F_done.wav","None","720.209384453","126","127293.127729","134159.336428","134925.441028","135692.4648","136459.937491","137226.295614","137975.907988","124159.474319","128042.847077","128809.121722","129575.995236","130342.612446","131109.815229","131876.385444","132642.903099","133392.687374","137236.480706","Mapping"
"Blocked","Female","done","21","F_lash.wav","space","436.579765286","126","127293.127729","134159.336428","134925.441028","135692.4648","136459.937491","137226.295614","137975.907988","138742.902697","128042.847077","128809.121722","129575.995236","130342.612446","131109.815229","131876.385444","132642.903099","133392.687374","138017.906075","Mapping"
"Blocked","Female","done","24","F_park.wav","None","731.897677295","126","141876.211998","134159.336428","134925.441028","135692.4648","136459.937491","137226.295614","137975.907988","138742.902697","128042.847077","128809.121722","129575.995236","130342.612446","131109.815229","131876.385444","132642.903099","133392.687374","138752.402662","Mapping"
"Blocked","Female","done","24","F_jolt.wav","None","719.780252082","126","141876.211998","134159.336428","134925.441028","135692.4648","136459.937491","137226.295614","137975.907988","138742.902697","142625.542715","128809.121722","129575.995236","130342.612446","131109.815229","131876.385444","132642.903099","133392.687374","141886.104303","Mapping"
"Blocked","Female","done","24","F_done.wav","None","735.296418308","126","141876.211998","134159.336428","134925.441028","135692.4648","136459.937491","137226.295614","137975.907988","138742.902697","142625.542715","143392.366761","129575.995236","130342.612446","131109.815229","131876.385444","132642.903099","133392.687374","142634.89675","Mapping"
"Blocked","Female","done","24","F_cad.wav","space","420.790908276","126","141876.211998","134159.336428","134925.441028","135692.4648","136459.937491","137226.295614","137975.907988","138742.902697","142625.542715","143392.366761","144159.139794","130342.612446","131109.815229","131876.385444","132642.903099","133392.687374","143401.64443","Mapping"
"Blocked","Female","done","24","F_done.wav","None","729.386572493","126","141876.211998","134159.336428","134925.441028","135692.4648","136459.937491","137226.295614","137975.907988","138742.902697","142625.542715","143392.366761","144159.139794","144925.259543","131109.815229","131876.385444","132642.903099","133392.687374","144168.535567","Mapping"
"Blocked","Female","done","24","F_greet.wav","space","480.109496857","126","141876.211998","134159.336428","134925.441028","135692.4648","136459.937491","137226.295614","137975.907988","138742.902697","142625.542715","143392.366761","144159.139794","144925.259543","145693.290911","131876.385444","132642.903099","133392.687374","144934.282454","Mapping"
"Blocked","Female","done","24","F_jolt.wav","None","722.297849366","126","141876.211998","134159.336428","134925.441028","135692.4648","136459.937491","137226.295614","137975.907988","138742.902697","142625.542715","143392.366761","144159.139794","144925.259543","145693.290911","146459.405713","132642.903099","133392.687374","145703.436429","Mapping"
"Blocked","Female","done","24","F_done.wav","None","720.882763737","126","141876.211998","134159.336428","134925.441028","135692.4648","136459.937491","137226.295614","137975.907988","138742.902697","142625.542715","143392.366761","144159.139794","144925.259543","145693.290911","146459.405713","147225.793516","133392.687374","146469.22289","Mapping"
"Blocked","Female","done","24","F_cling.wav","space","411.008977448","126","141876.211998","134159.336428","134925.441028","135692.4648","136459.937491","137226.295614","137975.907988","138742.902697","142625.542715","143392.366761","144159.139794","144925.259543","145693.290911","146459.405713","147225.793516","147975.31994","147235.399528","Mapping"
"Blocked","Female","done","24","F_done.wav","None","733.805275988","126","141876.211998","148742.535709","134925.441028","135692.4648","136459.937491","137226.295614","137975.907988","138742.902697","142625.542715","143392.366761","144159.139794","144925.259543","145693.290911","146459.405713","147225.793516","147975.31994","147984.327083","Mapping"
"Blocked","Female","done","24","F_greet.wav","space","446.294605616","126","141876.211998","148742.535709","149509.032031","135692.4648","136459.937491","137226.295614","137975.907988","138742.902697","142625.542715","143392.366761","144159.139794","144925.259543","145693.290911","146459.405713","147225.793516","147975.31994","148752.046186","Mapping"
"Blocked","Female","done","24","F_bluff.wav","None","727.554721409","126","141876.211998","148742.535709","149509.032031","150275.759925","136459.937491","137226.295614","137975.907988","138742.902697","142625.542715","143392.366761","144159.139794","144925.259543","145693.290911","146459.405713","147225.793516","147975.31994","149518.443573","Mapping"
"Blocked","Female","done","24","F_cling.wav","None","725.222318666","126","141876.211998","148742.535709","149509.032031","150275.759925","151042.593864","137226.295614","137975.907988","138742.902697","142625.542715","143392.366761","144159.139794","144925.259543","145693.290911","146459.405713","147225.793516","147975.31994","150285.25958","Mapping"
"Blocked","Female","done","24","F_tile.wav","None","722.452435992","126","141876.211998","148742.535709","149509.032031","150275.759925","151042.593864","151809.619182","137975.907988","138742.902697","142625.542715","143392.366761","144159.139794","144925.259543","145693.290911","146459.405713","147225.793516","147975.31994","151052.358791","Mapping"
"Blocked","Female","done","24","F_cling.wav","None","718.947648653","126","141876.211998","148742.535709","149509.032031","150275.759925","151042.593864","151809.619182","152558.80026","138742.902697","142625.542715","143392.366761","144159.139794","144925.259543","145693.290911","146459.405713","147225.793516","147975.31994","151820.221349","Mapping"
"Blocked","Female","done","24","F_cling.wav","None","735.29456323","126","141876.211998","148742.535709","149509.032031","150275.759925","151042.593864","151809.619182","152558.80026","153325.266592","142625.542715","143392.366761","144159.139794","144925.259543","145693.290911","146459.405713","147225.793516","147975.31994","152568.24581","Mapping"
"Blocked","Female","tile","16","F_lash.wav","None","733.65780036","126","156459.442505","148742.535709","149509.032031","150275.759925","151042.593864","151809.619182","152558.80026","153325.266592","142625.542715","143392.366761","144159.139794","144925.259543","145693.290911","146459.405713","147225.793516","147975.31994","153334.219321","Mapping"
"Blocked","Female","tile","16","F_reek.wav","None","719.597530668","126","156459.442505","148742.535709","149509.032031","150275.759925","151042.593864","151809.619182","152558.80026","153325.266592","157208.783425","143392.366761","144159.139794","144925.259543","145693.290911","146459.405713","147225.793516","147975.31994","156469.227837","Mapping"
"Blocked","Female","tile","16","F_tile.wav","None","735.125445528","126","156459.442505","148742.535709","149509.032031","150275.759925","151042.593864","151809.619182","152558.80026","153325.266592","157208.783425","157975.210802","144159.139794","144925.259543","145693.290911","146459.405713","147225.793516","147975.31994","157218.222174","Mapping"
"Blocked","Female","tile","16","F_done.wav","space","462.229392258","126","156459.442505","148742.535709","149509.032031","150275.759925","151042.593864","151809.619182","152558.80026","153325.266592","157208.783425","157975.210802","158742.525197","144925.259543","145693.290911","146459.405713","147225.793516","147975.31994","157984.112517","Mapping"
"Blocked","Female","tile","16","F_tile.wav","None","729.081109399","126","156459.442505","148742.535709","149509.032031","150275.759925","151042.593864","151809.619182","152558.80026","153325.266592","157208.783425","157975.210802","158742.525197","159508.85673","145693.290911","146459.405713","147225.793516","147975.31994","158752.176348","Mapping"
"Blocked","Female","tile","16","F_greet.wav","space","519.829286961","126","156459.442505","148742.535709","149509.032031","150275.759925","151042.593864","151809.619182","152558.80026","153325.266592","157208.783425","157975.210802","158742.525197","159508.85673","160275.820213","146459.405713","147225.793516","147975.31994","159518.300425","Mapping"
"Blocked","Female","tile","16","F_reek.wav","None","723.533923854","126","156459.442505","148742.535709","149509.032031","150275.759925","151042.593864","151809.619182","152558.80026","153325.266592","157208.783425","157975.210802","158742.525197","159508.85673","160275.820213","161042.861917","147225.793516","147975.31994","160285.802488","Mapping"
"Blocked","Female","tile","16","F_jolt.wav","None","721.414232394","126","156459.442505","148742.535709","149509.032031","150275.759925","151042.593864","151809.619182","152558.80026","153325.266592","157208.783425","157975.210802","158742.525197","159508.85673","160275.820213","161042.861917","161809.269198","147975.31994","161052.454016","Mapping"
"Blocked","Female","tile","16","F_tile.wav","None","718.87221036","126","156459.442505","148742.535709","149509.032031","150275.759925","151042.593864","151809.619182","152558.80026","153325.266592","157208.783425","157975.210802","158742.525197","159508.85673","160275.820213","161042.861917","161809.269198","162558.692049","161819.450272","Mapping"
"Blocked","Female","tile","16","F_dime.wav","space","397.949192324","126","156459.442505","163325.563089","149509.032031","150275.759925","151042.593864","151809.619182","152558.80026","153325.266592","157208.783425","157975.210802","158742.525197","159508.85673","160275.820213","161042.861917","161809.269198","162558.692049","162568.123068","Mapping"
"Blocked","Female","tile","16","F_tile.wav","None","731.274074991","126","156459.442505","163325.563089","164092.006234","150275.759925","151042.593864","151809.619182","152558.80026","153325.266592","157208.783425","157975.210802","158742.525197","159508.85673","160275.820213","161042.861917","161809.269198","162558.692049","163335.130145","Mapping"
"Blocked","Female","tile","16","F_jolt.wav","space","616.972124553","126","156459.442505","163325.563089","164092.006234","164858.750204","151042.593864","151809.619182","152558.80026","153325.266592","157208.783425","157975.210802","158742.525197","159508.85673","160275.820213","161042.861917","161809.269198","162558.692049","164101.0984","Mapping"
"Blocked","Female","tile","16","F_knife.wav","None","726.26670578","126","156459.442505","163325.563089","164092.006234","164858.750204","165625.79129","151809.619182","152558.80026","153325.266592","157208.783425","157975.210802","158742.525197","159508.85673","160275.820213","161042.861917","161809.269198","162558.692049","164868.397027","Mapping"
"Blocked","Female","tile","16","F_gnash.wav","None","723.515682737","126","156459.442505","163325.563089","164092.006234","164858.750204","165625.79129","166392.324404","152558.80026","153325.266592","157208.783425","157975.210802","158742.525197","159508.85673","160275.820213","161042.861917","161809.269198","162558.692049","165635.724716","Mapping"
"Blocked","Female","tile","16","F_romp.wav","None","721.655696747","126","156459.442505","163325.563089","164092.006234","164858.750204","165625.79129","166392.324404","167158.623784","153325.266592","157208.783425","157975.210802","158742.525197","159508.85673","160275.820213","161042.861917","161809.269198","162558.692049","166402.248555","Mapping"
"Blocked","Female","tile","16","F_done.wav","None","720.640371903","126","156459.442505","163325.563089","164092.006234","164858.750204","165625.79129","166392.324404","167158.623784","167908.536674","157208.783425","157975.210802","158742.525197","159508.85673","160275.820213","161042.861917","161809.269198","162558.692049","167167.882593","Mapping"
"Blocked","Female","done","23","F_park.wav","None","734.985699179","126","171042.380535","163325.563089","164092.006234","164858.750204","165625.79129","166392.324404","167158.623784","167908.536674","157208.783425","157975.210802","158742.525197","159508.85673","160275.820213","161042.861917","161809.269198","162558.692049","167918.029219","Mapping"
"Blocked","Female","done","23","F_depth.wav","None","720.649647061","126","171042.380535","163325.563089","164092.006234","164858.750204","165625.79129","166392.324404","167158.623784","167908.536674","171791.746498","157975.210802","158742.525197","159508.85673","160275.820213","161042.861917","161809.269198","162558.692049","171051.859785","Mapping"
"Blocked","Female","done","23","F_done.wav","None","735.594152124","126","171042.380535","163325.563089","164092.006234","164858.750204","165625.79129","166392.324404","167158.623784","167908.536674","171791.746498","172558.588785","158742.525197","159508.85673","160275.820213","161042.861917","161809.269198","162558.692049","171801.495965","Mapping"
"Blocked","Female","done","23","F_knife.wav","space","653.977992479","126","171042.380535","163325.563089","164092.006234","164858.750204","165625.79129","166392.324404","167158.623784","167908.536674","171791.746498","172558.588785","173325.381605","159508.85673","160275.820213","161042.861917","161809.269198","162558.692049","172567.944985","Mapping"
"Blocked","Female","done","23","F_done.wav","None","729.99935376","126","171042.380535","163325.563089","164092.006234","164858.750204","165625.79129","166392.324404","167158.623784","167908.536674","171791.746498","172558.588785","173325.381605","174091.838662","160275.820213","161042.861917","161809.269198","162558.692049","173334.923617","Mapping"
"Blocked","Female","done","23","F_dime.wav","space","576.972532785","126","171042.380535","163325.563089","164092.006234","164858.750204","165625.79129","166392.324404","167158.623784","167908.536674","171791.746498","172558.588785","173325.381605","174091.838662","174858.559445","161042.861917","161809.269198","162558.692049","174100.908258","Mapping"
"Blocked","Female","done","23","F_ball.wav","None","724.376111757","126","171042.380535","163325.563089","164092.006234","164858.750204","165625.79129","166392.324404","167158.623784","167908.536674","171791.746498","172558.588785","173325.381605","174091.838662","174858.559445","175625.60795","161809.269198","162558.692049","174868.492561","Mapping"
"Blocked","Female","done","23","F_done.wav","None","721.900561941","126","171042.380535","163325.563089","164092.006234","164858.750204","165625.79129","166392.324404","167158.623784","167908.536674","171791.746498","172558.588785","173325.381605","174091.838662","174858.559445","175625.60795","176392.338626","162558.692049","175635.399775","Mapping"
"Blocked","Female","done","23","F_park.wav","space","451.791705098","126","171042.380535","163325.563089","164092.006234","164858.750204","165625.79129","166392.324404","167158.623784","167908.536674","171791.746498","172558.588785","173325.381605","174091.838662","174858.559445","175625.60795","176392.338626","177141.674909","176402.053776","Mapping"
"Blocked","Female","done","23","F_gnash.wav","None","734.54450909","126","171042.380535","177908.57563","164092.006234","164858.750204","165625.79129","166392.324404","167158.623784","167908.536674","171791.746498","172558.588785","173325.381605","174091.838662","174858.559445","175625.60795","176392.338626","177141.674909","177150.752852","Mapping"
"Blocked","Female","done","23","F_done.wav","None","731.421241304","126","171042.380535","177908.57563","178675.222829","164858.750204","165625.79129","166392.324404","167158.623784","167908.536674","171791.746498","172558.588785","173325.381605","174091.838662","174858.559445","175625.60795","176392.338626","177141.674909","177918.36158","Mapping"
"Blocked","Female","done","23","F_park.wav","space","505.30865835","126","171042.380535","177908.57563","178675.222829","179442.086758","165625.79129","166392.324404","167158.623784","167908.536674","171791.746498","172558.588785","173325.381605","174091.838662","174858.559445","175625.60795","176392.338626","177141.674909","178684.500189","Mapping"
"Blocked","Female","done","23","F_knife.wav","None","726.295458851","126","171042.380535","177908.57563","178675.222829","179442.086758","180208.476416","166392.324404","167158.623784","167908.536674","171791.746498","172558.588785","173325.381605","174091.838662","174858.559445","175625.60795","176392.338626","177141.674909","179451.454397","Mapping"
"Blocked","Female","done","23","F_lash.wav","None","725.227574701","126","171042.380535","177908.57563","178675.222829","179442.086758","180208.476416","180975.632205","167158.623784","167908.536674","171791.746498","172558.588785","173325.381605","174091.838662","174858.559445","175625.60795","176392.338626","177141.674909","180217.798606","Mapping"
"Blocked","Female","done","23","F_cad.wav","None","721.933952649","126","171042.380535","177908.57563","178675.222829","179442.086758","180208.476416","180975.632205","181742.144605","167908.536674","171791.746498","172558.588785","173325.381605","174091.838662","174858.559445","175625.60795","176392.338626","177141.674909","180985.708778","Mapping"
"Blocked","Female","done","23","F_knife.wav","None","720.250813756","126","171042.380535","177908.57563","178675.222829","179442.086758","180208.476416","180975.632205","181742.144605","182491.484906","171791.746498","172558.588785","173325.381605","174091.838662","174858.559445","175625.60795","176392.338626","177141.674909","181751.90984","Mapping"
"Blocked","Female","ball","5","F_greet.wav","None","735.911363736","126","185625.532512","177908.57563","178675.222829","179442.086758","180208.476416","180975.632205","181742.144605","182491.484906","171791.746498","172558.588785","173325.381605","174091.838662","174858.559445","175625.60795","176392.338626","177141.674909","182500.752373","Mapping"
"Blocked","Female","ball","5","F_ball.wav","None","720.003784285","126","185625.532512","177908.57563","178675.222829","179442.086758","180208.476416","180975.632205","181742.144605","182491.484906","186374.662885","172558.588785","173325.381605","174091.838662","174858.559445","175625.60795","176392.338626","177141.674909","185635.127393","Mapping"
"Blocked","Female","ball","5","F_lash.wav","space","365.353061934","126","185625.532512","177908.57563","178675.222829","179442.086758","180208.476416","180975.632205","181742.144605","182491.484906","186374.662885","187141.663469","173325.381605","174091.838662","174858.559445","175625.60795","176392.338626","177141.674909","186384.305688","Mapping"
"Blocked","Female","ball","5","F_bluff.wav","None","732.614959124","126","185625.532512","177908.57563","178675.222829","179442.086758","180208.476416","180975.632205","181742.144605","182491.484906","186374.662885","187141.663469","187908.375286","174091.838662","174858.559445","175625.60795","176392.338626","177141.674909","187150.694418","Mapping"
"Blocked","Female","ball","5","F_cling.wav","None","729.833018733","126","185625.532512","177908.57563","178675.222829","179442.086758","180208.476416","180975.632205","181742.144605","182491.484906","186374.662885","187141.663469","187908.375286","188675.067006","174858.559445","175625.60795","176392.338626","177141.674909","187918.047769","Mapping"
"Blocked","Female","ball","5","F_ball.wav","None","728.289007791","126","185625.532512","177908.57563","178675.222829","179442.086758","180208.476416","180975.632205","181742.144605","182491.484906","186374.662885","187141.663469","187908.375286","188675.067006","189441.982876","175625.60795","176392.338626","177141.674909","188684.310048","Mapping"
"Blocked","Female","ball","5","F_dime.wav","space","402.025950141","126","185625.532512","177908.57563","178675.222829","179442.086758","180208.476416","180975.632205","181742.144605","182491.484906","186374.662885","187141.663469","187908.375286","188675.067006","189441.982876","190208.81156","176392.338626","177141.674909","189451.591979","Mapping"
"Blocked","Female","ball","5","F_ball.wav","None","721.988985315","126","185625.532512","177908.57563","178675.222829","179442.086758","180208.476416","180975.632205","181742.144605","182491.484906","186374.662885","187141.663469","187908.375286","188675.067006","189441.982876","190208.81156","190975.40589","177141.674909","190218.620389","Mapping"
"Blocked","Female","ball","5","F_park.wav","space","476.111268857","126","185625.532512","177908.57563","178675.222829","179442.086758","180208.476416","180975.632205","181742.144605","182491.484906","186374.662885","187141.663469","187908.375286","188675.067006","189441.982876","190208.81156","190975.40589","191724.697652","190985.452783","Mapping"
"Blocked","Female","ball","5","F_knife.wav","None","734.69383968","126","185625.532512","192491.475322","178675.222829","179442.086758","180208.476416","180975.632205","181742.144605","182491.484906","186374.662885","187141.663469","187908.375286","188675.067006","189441.982876","190208.81156","190975.40589","191724.697652","191734.207201","Mapping"
"Blocked","Female","ball","5","F_ball.wav","None","732.500255806","126","185625.532512","192491.475322","193257.947529","179442.086758","180208.476416","180975.632205","181742.144605","182491.484906","186374.662885","187141.663469","187908.375286","188675.067006","189441.982876","190208.81156","190975.40589","191724.697652","192501.066493","Mapping"
"Blocked","Female","ball","5","F_jolt.wav","space","570.392090362","126","185625.532512","192491.475322","193257.947529","194024.930181","180208.476416","180975.632205","181742.144605","182491.484906","186374.662885","187141.663469","187908.375286","188675.067006","189441.982876","190208.81156","190975.40589","191724.697652","193267.142649","Mapping"
"Blocked","Female","ball","5","F_bluff.wav","None","728.709483286","126","185625.532512","192491.475322","193257.947529","194024.930181","194791.423721","180975.632205","181742.144605","182491.484906","186374.662885","187141.663469","187908.375286","188675.067006","189441.982876","190208.81156","190975.40589","191724.697652","194034.44344","Mapping"
"Blocked","Female","ball","5","F_cling.wav","None","726.368732983","126","185625.532512","192491.475322","193257.947529","194024.930181","194791.423721","195558.221178","181742.144605","182491.484906","186374.662885","187141.663469","187908.375286","188675.067006","189441.982876","190208.81156","190975.40589","191724.697652","194801.422691","Mapping"
"Blocked","Female","ball","5","F_cave.wav","None","724.710946204","126","185625.532512","192491.475322","193257.947529","194024.930181","194791.423721","195558.221178","196325.201975","182491.484906","186374.662885","187141.663469","187908.375286","188675.067006","189441.982876","190208.81156","190975.40589","191724.697652","195567.887169","Mapping"
"Blocked","Female","ball","5","F_dime.wav","None","722.22488455","126","185625.532512","192491.475322","193257.947529","194024.930181","194791.423721","195558.221178","196325.201975","197091.652231","186374.662885","187141.663469","187908.375286","188675.067006","189441.982876","190208.81156","190975.40589","191724.697652","196335.139111","Mapping"
"Blocked","Female","tile","18","F_lash.wav","None","720.719829435","126","200208.894109","192491.475322","193257.947529","194024.930181","194791.423721","195558.221178","196325.201975","197091.652231","186374.662885","187141.663469","187908.375286","188675.067006","189441.982876","190208.81156","190975.40589","191724.697652","197101.487958","Mapping"
"Blocked","Female","tile","18","F_cling.wav","None","719.722127425","126","200208.894109","192491.475322","193257.947529","194024.930181","194791.423721","195558.221178","196325.201975","197091.652231","200957.908542","187141.663469","187908.375286","188675.067006","189441.982876","190208.81156","190975.40589","191724.697652","200218.368722","Mapping"
"Blocked","Female","tile","18","F_jolt.wav","None","735.163164558","126","200208.894109","192491.475322","193257.947529","194024.930181","194791.423721","195558.221178","196325.201975","197091.652231","200957.908542","201724.859349","187908.375286","188675.067006","189441.982876","190208.81156","190975.40589","191724.697652","200967.812597","Mapping"
"Blocked","Female","tile","18","F_tile.wav","None","733.433031361","126","200208.894109","192491.475322","193257.947529","194024.930181","194791.423721","195558.221178","196325.201975","197091.652231","200957.908542","201724.859349","202491.288891","188675.067006","189441.982876","190208.81156","190975.40589","191724.697652","201734.412183","Mapping"
"Blocked","Female","tile","18","F_dime.wav","space","481.003316469","126","200208.894109","192491.475322","193257.947529","194024.930181","194791.423721","195558.221178","196325.201975","197091.652231","200957.908542","201724.859349","202491.288891","203258.058831","189441.982876","190208.81156","190975.40589","191724.697652","202500.378583","Mapping"
"Blocked","Female","tile","18","F_depth.wav","None","728.670218261","126","200208.894109","192491.475322","193257.947529","194024.930181","194791.423721","195558.221178","196325.201975","197091.652231","200957.908542","201724.859349","202491.288891","203258.058831","204024.369341","190208.81156","190975.40589","191724.697652","203267.835197","Mapping"
"Blocked","Female","tile","18","F_tile.wav","None","729.285472888","126","200208.894109","192491.475322","193257.947529","194024.930181","194791.423721","195558.221178","196325.201975","197091.652231","200957.908542","201724.859349","202491.288891","203258.058831","204024.369341","204791.279646","190975.40589","191724.697652","204033.29548","Mapping"
"Blocked","Female","tile","18","F_cave.wav","space","580.604699557","126","200208.894109","192491.475322","193257.947529","194024.930181","194791.423721","195558.221178","196325.201975","197091.652231","200957.908542","201724.859349","202491.288891","203258.058831","204024.369341","204791.279646","205558.211903","191724.697652","204800.735709","Mapping"
"Blocked","Female","tile","18","F_cave.wav","None","722.88744268","126","200208.894109","192491.475322","193257.947529","194024.930181","194791.423721","195558.221178","196325.201975","197091.652231","200957.908542","201724.859349","202491.288891","203258.058831","204024.369341","204791.279646","205558.211903","206324.929594","205568.376281","Mapping"
"Blocked","Female","tile","18","F_tile.wav","None","721.209250623","126","200208.894109","207092.094349","193257.947529","194024.930181","194791.423721","195558.221178","196325.201975","197091.652231","200957.908542","201724.859349","202491.288891","203258.058831","204024.369341","204791.279646","205558.211903","206324.929594","206335.24794","Mapping"
"Blocked","Female","tile","18","F_park.wav","space","503.382818541","126","200208.894109","207092.094349","207841.00861","194024.930181","194791.423721","195558.221178","196325.201975","197091.652231","200957.908542","201724.859349","202491.288891","203258.058831","204024.369341","204791.279646","205558.211903","206324.929594","207101.900086","Mapping"
"Blocked","Female","tile","18","F_romp.wav","None","735.068557668","126","200208.894109","207092.094349","207841.00861","208607.642514","194791.423721","195558.221178","196325.201975","197091.652231","200957.908542","201724.859349","202491.288891","203258.058831","204024.369341","204791.279646","205558.211903","206324.929594","207850.655741","Mapping"
"Blocked","Female","tile","18","F_romp.wav","None","733.790126513","126","200208.894109","207092.094349","207841.00861","208607.642514","209374.300843","195558.221178","196325.201975","197091.652231","200957.908542","201724.859349","202491.288891","203258.058831","204024.369341","204791.279646","205558.211903","206324.929594","208616.873189","Mapping"
"Blocked","Female","tile","18","F_gnash.wav","None","732.440585387","126","200208.894109","207092.094349","207841.00861","208607.642514","209374.300843","210141.189507","196325.201975","197091.652231","200957.908542","201724.859349","202491.288891","203258.058831","204024.369341","204791.279646","205558.211903","206324.929594","209383.155564","Mapping"
"Blocked","Female","tile","18","F_tile.wav","None","729.518898763","126","200208.894109","207092.094349","207841.00861","208607.642514","209374.300843","210141.189507","210907.963776","197091.652231","200957.908542","201724.859349","202491.288891","203258.058831","204024.369341","204791.279646","205558.211903","206324.929594","210151.085213","Mapping"
"Blocked","Female","tile","18","F_bluff.wav","space","567.655907595","126","200208.894109","207092.094349","207841.00861","208607.642514","209374.300843","210141.189507","210907.963776","211674.607883","200957.908542","201724.859349","202491.288891","203258.058831","204024.369341","204791.279646","205558.211903","206324.929594","210917.571024","Mapping"
"Blocked","Female","cave","10","F_ball.wav","None","724.741863552","126","214791.470097","207092.094349","207841.00861","208607.642514","209374.300843","210141.189507","210907.963776","211674.607883","200957.908542","201724.859349","202491.288891","203258.058831","204024.369341","204791.279646","205558.211903","206324.929594","211684.155461","Mapping"
"Blocked","Female","cave","10","F_cave.wav","None","720.287914388","126","214791.470097","207092.094349","207841.00861","208607.642514","209374.300843","210141.189507","210907.963776","211674.607883","215541.176151","201724.859349","202491.288891","203258.058831","204024.369341","204791.279646","205558.211903","206324.929594","214801.487309","Mapping"
"Blocked","Female","cave","10","F_ball.wav","space","606.422516634","126","214791.470097","207092.094349","207841.00861","208607.642514","209374.300843","210141.189507","210907.963776","211674.607883","215541.176151","216307.953821","202491.288891","203258.058831","204024.369341","204791.279646","205558.211903","206324.929594","215550.710125","Mapping"
"Blocked","Female","cave","10","F_cave.wav","None","732.525298838","126","214791.470097","207092.094349","207841.00861","208607.642514","209374.300843","210141.189507","210907.963776","211674.607883","215541.176151","216307.953821","217074.538567","203258.058831","204024.369341","204791.279646","205558.211903","206324.929594","216317.463061","Mapping"
"Blocked","Female","cave","10","F_dime.wav","space","489.034399623","126","214791.470097","207092.094349","207841.00861","208607.642514","209374.300843","210141.189507","210907.963776","211674.607883","215541.176151","216307.953821","217074.538567","217840.779821","204024.369341","204791.279646","205558.211903","206324.929594","217084.06914","Mapping"
"Blocked","Female","cave","10","F_gnash.wav","None","728.566645295","126","214791.470097","207092.094349","207841.00861","208607.642514","209374.300843","210141.189507","210907.963776","211674.607883","215541.176151","216307.953821","217074.538567","217840.779821","218607.748561","204791.279646","205558.211903","206324.929594","217850.034303","Mapping"
"Blocked","Female","cave","10","F_depth.wav","None","725.6347558","126","214791.470097","207092.094349","207841.00861","208607.642514","209374.300843","210141.189507","210907.963776","211674.607883","215541.176151","216307.953821","217074.538567","217840.779821","218607.748561","219374.954436","205558.211903","206324.929594","218617.710121","Mapping"
"Blocked","Female","cave","10","F_ball.wav","None","722.846013494","126","214791.470097","207092.094349","207841.00861","208607.642514","209374.300843","210141.189507","210907.963776","211674.607883","215541.176151","216307.953821","217074.538567","217840.779821","218607.748561","219374.954436","220141.364808","206324.929594","219385.0004","Mapping"
"Blocked","Female","cave","10","F_cave.wav","None","721.491834847","126","214791.470097","207092.094349","207841.00861","208607.642514","209374.300843","210141.189507","210907.963776","211674.607883","215541.176151","216307.953821","217074.538567","217840.779821","218607.748561","219374.954436","220141.364808","220908.123928","220151.202699","Mapping"
"Blocked","Female","cave","10","F_bluff.wav","space","462.652032031","126","214791.470097","221657.671685","207841.00861","208607.642514","209374.300843","210141.189507","210907.963776","211674.607883","215541.176151","216307.953821","217074.538567","217840.779821","218607.748561","219374.954436","220141.364808","220908.123928","220918.384459","Mapping"
"Blocked","Female","cave","10","F_ball.wav","None","733.298541047","126","214791.470097","221657.671685","222423.995798","208607.642514","209374.300843","210141.189507","210907.963776","211674.607883","215541.176151","216307.953821","217074.538567","217840.779821","218607.748561","219374.954436","220141.364808","220908.123928","221667.568937","Mapping"
"Blocked","Female","cave","10","F_bluff.wav","None","732.559926226","126","214791.470097","221657.671685","222423.995798","223190.933001","209374.300843","210141.189507","210907.963776","211674.607883","215541.176151","216307.953821","217074.538567","217840.779821","218607.748561","219374.954436","220141.364808","220908.123928","222433.106204","Mapping"
"Blocked","Female","cave","10","F_cave.wav","None","729.834873695","126","214791.470097","221657.671685","222423.995798","223190.933001","223957.72984","210141.189507","210907.963776","211674.607883","215541.176151","216307.953821","217074.538567","217840.779821","218607.748561","219374.954436","220141.364808","220908.123928","223200.587244","Mapping"
"Blocked","Female","cave","10","F_cling.wav","space","573.590796324","126","214791.470097","221657.671685","222423.995798","223190.933001","223957.72984","224724.462989","210907.963776","211674.607883","215541.176151","216307.953821","217074.538567","217840.779821","218607.748561","219374.954436","220141.364808","220908.123928","223967.442825","Mapping"
"Blocked","Female","cave","10","F_knife.wav","None","724.508128595","126","214791.470097","221657.671685","222423.995798","223190.933001","223957.72984","224724.462989","225491.234785","211674.607883","215541.176151","216307.953821","217074.538567","217840.779821","218607.748561","219374.954436","220141.364808","220908.123928","224734.05787","Mapping"
"Blocked","Female","cave","10","F_reek.wav","None","722.379780374","126","214791.470097","221657.671685","222423.995798","223190.933001","223957.72984","224724.462989","225491.234785","226258.050793","215541.176151","216307.953821","217074.538567","217840.779821","218607.748561","219374.954436","220141.364808","220908.123928","225501.079169","Mapping"
"Blocked","Female","ball","3","F_lash.wav","None","720.15960759","126","229374.773569","221657.671685","222423.995798","223190.933001","223957.72984","224724.462989","225491.234785","226258.050793","215541.176151","216307.953821","217074.538567","217840.779821","218607.748561","219374.954436","220141.364808","220908.123928","226268.07357","Mapping"
"Blocked","Female","ball","3","F_ball.wav","None","719.565995038","126","229374.773569","221657.671685","222423.995798","223190.933001","223957.72984","224724.462989","225491.234785","226258.050793","230124.382852","216307.953821","217074.538567","217840.779821","218607.748561","219374.954436","220141.364808","220908.123928","229384.870548","Mapping"
"Blocked","Female","ball","3","F_done.wav","space","462.547531468","126","229374.773569","221657.671685","222423.995798","223190.933001","223957.72984","224724.462989","225491.234785","226258.050793","230124.382852","230890.54063","217074.538567","217840.779821","218607.748561","219374.954436","220141.364808","220908.123928","230134.313804","Mapping"
"Blocked","Female","ball","3","F_ball.wav","None","736.372031737","126","229374.773569","221657.671685","222423.995798","223190.933001","223957.72984","224724.462989","225491.234785","226258.050793","230124.382852","230890.54063","231657.4902","217840.779821","218607.748561","219374.954436","220141.364808","220908.123928","230899.211083","Mapping"
"Blocked","Female","ball","3","F_reek.wav","space","506.012954982","126","229374.773569","221657.671685","222423.995798","223190.933001","223957.72984","224724.462989","225491.234785","226258.050793","230124.382852","230890.54063","231657.4902","232423.882022","218607.748561","219374.954436","220141.364808","220908.123928","231666.8835","Mapping"
"Blocked","Female","ball","3","F_depth.wav","None","731.050233589","126","229374.773569","221657.671685","222423.995798","223190.933001","223957.72984","224724.462989","225491.234785","226258.050793","230124.382852","230890.54063","231657.4902","232423.882022","233190.758009","219374.954436","220141.364808","220908.123928","232433.00696","Mapping"
"Blocked","Female","ball","3","F_priest.wav","None","728.444521897","126","229374.773569","221657.671685","222423.995798","223190.933001","223957.72984","224724.462989","225491.234785","226258.050793","230124.382852","230890.54063","231657.4902","232423.882022","233190.758009","233957.527641","220141.364808","220908.123928","233200.541795","Mapping"
"Blocked","Female","ball","3","F_ball.wav","None","726.595356944","126","229374.773569","221657.671685","222423.995798","223190.933001","223957.72984","224724.462989","225491.234785","226258.050793","230124.382852","230890.54063","231657.4902","232423.882022","233190.758009","233957.527641","234724.229254","220908.123928","233967.23908","Mapping"
"Blocked","Female","ball","3","F_jolt.wav","space","646.921732579","126","229374.773569","221657.671685","222423.995798","223190.933001","223957.72984","224724.462989","225491.234785","226258.050793","230124.382852","230890.54063","231657.4902","232423.882022","233190.758009","233957.527641","234724.229254","235490.935196","234733.843613","Mapping"
"Blocked","Female","ball","3","F_bluff.wav","None","721.252534771","126","229374.773569","236257.613931","222423.995798","223190.933001","223957.72984","224724.462989","225491.234785","226258.050793","230124.382852","230890.54063","231657.4902","232423.882022","233190.758009","233957.527641","234724.229254","235490.935196","235500.955809","Mapping"
"Blocked","Female","ball","3","F_bluff.wav","None","720.157443313","126","229374.773569","236257.613931","237007.38924","223190.933001","223957.72984","224724.462989","225491.234785","226258.050793","230124.382852","230890.54063","231657.4902","232423.882022","233190.758009","233957.527641","234724.229254","235490.935196","236266.979097","Mapping"
"Blocked","Female","ball","3","F_priest.wav","None","734.890783089","126","229374.773569","236257.613931","237007.38924","237774.200919","223957.72984","224724.462989","225491.234785","226258.050793","230124.382852","230890.54063","231657.4902","232423.882022","233190.758009","233957.527641","234724.229254","235490.935196","237017.146436","Mapping"
"Blocked","Female","ball","3","F_cling.wav","None","733.196823043","126","229374.773569","236257.613931","237007.38924","237774.200919","238540.690749","224724.462989","225491.234785","226258.050793","230124.382852","230890.54063","231657.4902","232423.882022","233190.758009","233957.527641","234724.229254","235490.935196","237783.766428","Mapping"
"Blocked","Female","ball","3","F_reek.wav","None","731.925193686","126","229374.773569","236257.613931","237007.38924","237774.200919","238540.690749","239307.347223","225491.234785","226258.050793","230124.382852","230890.54063","231657.4902","232423.882022","233190.758009","233957.527641","234724.229254","235490.935196","238549.936882","Mapping"
"Blocked","Female","ball","3","F_ball.wav","None","729.767164798","126","229374.773569","236257.613931","237007.38924","237774.200919","238540.690749","239307.347223","240074.091502","226258.050793","230124.382852","230890.54063","231657.4902","232423.882022","233190.758009","233957.527641","234724.229254","235490.935196","239316.736813","Mapping"
"Blocked","Female","ball","3","F_priest.wav","space","544.7690523","126","229374.773569","236257.613931","237007.38924","237774.200919","238540.690749","239307.347223","240074.091502","240840.64564","230124.382852","230890.54063","231657.4902","232423.882022","233190.758009","233957.527641","234724.229254","235490.935196","240083.932794","Mapping"
"Blocked","Female","ball","6","F_lash.wav","None","724.80215237","126","243957.955537","236257.613931","237007.38924","237774.200919","238540.690749","239307.347223","240074.091502","240840.64564","230124.382852","230890.54063","231657.4902","232423.882022","233190.758009","233957.527641","234724.229254","235490.935196","240850.178996","Mapping"
"Blocked","Female","ball","6","F_done.wav","None","719.553628122","126","243957.955537","236257.613931","237007.38924","237774.200919","238540.690749","239307.347223","240074.091502","240840.64564","244707.170932","230890.54063","231657.4902","232423.882022","233190.758009","233957.527641","234724.229254","235490.935196","243967.371716","Mapping"
"Blocked","Female","ball","6","F_park.wav","None","734.759384417","126","243957.955537","236257.613931","237007.38924","237774.200919","238540.690749","239307.347223","240074.091502","240840.64564","244707.170932","245474.010128","231657.4902","232423.882022","233190.758009","233957.527641","234724.229254","235490.935196","244717.146096","Mapping"
"Blocked","Female","ball","6","F_greet.wav","None","733.143954538","126","243957.955537","236257.613931","237007.38924","237774.200919","238540.690749","239307.347223","240074.091502","240840.64564","244707.170932","245474.010128","246240.545715","232423.882022","233190.758009","233957.527641","234724.229254","235490.935196","245483.579348","Mapping"
"Blocked","Female","ball","6","F_ball.wav","None","732.023819932","126","243957.955537","236257.613931","237007.38924","237774.200919","238540.690749","239307.347223","240074.091502","240840.64564","244707.170932","245474.010128","246240.545715","247007.277319","233190.758009","233957.527641","234724.229254","235490.935196","246249.623041","Mapping"
"Blocked","Female","ball","6","F_cave.wav","space","483.997040545","126","243957.955537","236257.613931","237007.38924","237774.200919","238540.690749","239307.347223","240074.091502","240840.64564","244707.170932","245474.010128","246240.545715","247007.277319","247774.003357","233957.527641","234724.229254","235490.935196","247016.595181","Mapping"
"Blocked","Female","ball","6","F_ball.wav","None","726.463958272","126","243957.955537","236257.613931","237007.38924","237774.200919","238540.690749","239307.347223","240074.091502","240840.64564","244707.170932","245474.010128","246240.545715","247007.277319","247774.003357","248540.538635","234724.229254","235490.935196","247783.601639","Mapping"
"Blocked","Female","ball","6","F_priest.wav","space","454.437609296","126","243957.955537","236257.613931","237007.38924","237774.200919","238540.690749","239307.347223","240074.091502","240840.64564","244707.170932","245474.010128","246240.545715","247007.277319","247774.003357","248540.538635","249307.710811","235490.935196","248550.116512","Mapping"
"Blocked","Female","ball","6","F_jolt.wav","None","721.009215456","126","243957.955537","236257.613931","237007.38924","237774.200919","238540.690749","239307.347223","240074.091502","240840.64564","244707.170932","245474.010128","246240.545715","247007.277319","247774.003357","248540.538635","249307.710811","250074.293702","249317.536953","Mapping"
"Blocked","Female","ball","6","F_ball.wav","None","719.25094747","126","243957.955537","250823.55671","237007.38924","237774.200919","238540.690749","239307.347223","240074.091502","240840.64564","244707.170932","245474.010128","246240.545715","247007.277319","247774.003357","248540.538635","249307.710811","250074.293702","250084.164365","Mapping"
"Blocked","Female","ball","6","F_greet.wav","space","491.431419388","126","243957.955537","250823.55671","251590.407036","237774.200919","238540.690749","239307.347223","240074.091502","240840.64564","244707.170932","245474.010128","246240.545715","247007.277319","247774.003357","248540.538635","249307.710811","250074.293702","250833.087901","Mapping"
"Blocked","Female","ball","6","F_lash.wav","None","731.759167626","126","243957.955537","250823.55671","251590.407036","252357.146368","238540.690749","239307.347223","240074.091502","240840.64564","244707.170932","245474.010128","246240.545715","247007.277319","247774.003357","248540.538635","249307.710811","250074.293702","251599.959869","Mapping"
"Blocked","Female","ball","6","F_ball.wav","None","730.460640276","126","243957.955537","250823.55671","251590.407036","252357.146368","253123.985873","239307.347223","240074.091502","240840.64564","244707.170932","245474.010128","246240.545715","247007.277319","247774.003357","248540.538635","249307.710811","250074.293702","252366.517717","Mapping"
"Blocked","Female","ball","6","F_lash.wav","space","580.059008789","126","243957.955537","250823.55671","251590.407036","252357.146368","253123.985873","253890.45839","240074.091502","240840.64564","244707.170932","245474.010128","246240.545715","247007.277319","247774.003357","248540.538635","249307.710811","250074.293702","253128.385717","Mapping"
"Blocked","Female","ball","6","F_cave.wav","None","725.627954002","126","243957.955537","250823.55671","251590.407036","252357.146368","253123.985873","253890.45839","254657.338087","240840.64564","244707.170932","245474.010128","246240.545715","247007.277319","247774.003357","248540.538635","249307.710811","250074.293702","253899.966084","Mapping"
"Blocked","Female","ball","6","F_jaw.wav","None","723.582773237","126","243957.955537","250823.55671","251590.407036","252357.146368","253123.985873","253890.45839","254657.338087","255424.194287","244707.170932","245474.010128","246240.545715","247007.277319","247774.003357","248540.538635","249307.710811","250074.293702","254667.023247","Mapping"
"Blocked","Female","ball","4","F_done.wav","None","721.868717112","126","258540.556877","250823.55671","251590.407036","252357.146368","253123.985873","253890.45839","254657.338087","255424.194287","244707.170932","245474.010128","246240.545715","247007.277319","247774.003357","248540.538635","249307.710811","250074.293702","255433.813902","Mapping"
"Blocked","Female","ball","4","F_ball.wav","None","720.621512388","126","258540.556877","250823.55671","251590.407036","252357.146368","253123.985873","253890.45839","254657.338087","255424.194287","259307.128947","245474.010128","246240.545715","247007.277319","247774.003357","248540.538635","249307.710811","250074.293702","258550.380237","Mapping"
"Blocked","Female","ball","4","F_jaw.wav","space","488.000524347","126","258540.556877","250823.55671","251590.407036","252357.146368","253123.985873","253890.45839","254657.338087","255424.194287","259307.128947","260056.961143","246240.545715","247007.277319","247774.003357","248540.538635","249307.710811","250074.293702","259316.399196","Mapping"
"Blocked","Female","ball","4","F_cave.wav","None","732.947629527","126","258540.556877","250823.55671","251590.407036","252357.146368","253123.985873","253890.45839","254657.338087","255424.194287","259307.128947","260056.961143","260823.333796","247007.277319","247774.003357","248540.538635","249307.710811","250074.293702","260066.724523","Mapping"
"Blocked","Female","ball","4","F_ball.wav","None","732.248588931","126","258540.556877","250823.55671","251590.407036","252357.146368","253123.985873","253890.45839","254657.338087","255424.194287","259307.128947","260056.961143","260823.333796","261590.224933","247774.003357","248540.538635","249307.710811","250074.293702","260832.422251","Mapping"
"Blocked","Female","ball","4","F_reek.wav","space","636.768793804","126","258540.556877","250823.55671","251590.407036","252357.146368","253123.985873","253890.45839","254657.338087","255424.194287","259307.128947","260056.961143","260823.333796","261590.224933","262357.16832","248540.538635","249307.710811","250074.293702","261599.584224","Mapping"
"Blocked","Female","ball","4","F_park.wav","None","726.807140512","126","258540.556877","250823.55671","251590.407036","252357.146368","253123.985873","253890.45839","254657.338087","255424.194287","259307.128947","260056.961143","260823.333796","261590.224933","262357.16832","263123.271065","249307.710811","250074.293702","262366.413835","Mapping"
"Blocked","Female","ball","4","F_priest.wav","None","725.648359396","126","258540.556877","250823.55671","251590.407036","252357.146368","253123.985873","253890.45839","254657.338087","255424.194287","259307.128947","260056.961143","260823.333796","261590.224933","262357.16832","263123.271065","263890.551141","250074.293702","263132.822043","Mapping"
"Blocked","Female","ball","4","F_bluff.wav","None","723.135399632","126","258540.556877","250823.55671","251590.407036","252357.146368","253123.985873","253890.45839","254657.338087","255424.194287","259307.128947","260056.961143","260823.333796","261590.224933","262357.16832","263123.271065","263890.551141","264657.195558","263900.410984","Mapping"
"Blocked","Female","ball","4","F_greet.wav","None","727.720747353","126","258540.556877","265423.996107","251590.407036","252357.146368","253123.985873","253890.45839","254657.338087","255424.194287","259307.128947","260056.961143","260823.333796","261590.224933","262357.16832","263123.271065","263890.551141","264657.195558","264661.127314","Mapping"
"Blocked","Female","ball","4","F_done.wav","None","720.034701517","126","258540.556877","265423.996107","266173.843762","252357.146368","253123.985873","253890.45839","254657.338087","255424.194287","259307.128947","260056.961143","260823.333796","261590.224933","262357.16832","263123.271065","263890.551141","264657.195558","265433.851003","Mapping"
"Blocked","Female","ball","4","F_ball.wav","None","735.491506523","126","258540.556877","265423.996107","266173.843762","266940.26712","253123.985873","253890.45839","254657.338087","255424.194287","259307.128947","260056.961143","260823.333796","261590.224933","262357.16832","263123.271065","263890.551141","264657.195558","266183.410508","Mapping"
"Blocked","Female","ball","4","F_dime.wav","space","654.575005872","126","258540.556877","265423.996107","266173.843762","266940.26712","267706.941526","253890.45839","254657.338087","255424.194287","259307.128947","260056.961143","260823.333796","261590.224933","262357.16832","263123.271065","263890.551141","264657.195558","266949.644343","Mapping"
"Blocked","Female","ball","4","F_ball.wav","None","731.335600372","126","258540.556877","265423.996107","266173.843762","266940.26712","267706.941526","268473.61284","254657.338087","255424.194287","259307.128947","260056.961143","260823.333796","261590.224933","262357.16832","263123.271065","263890.551141","264657.195558","267716.568561","Mapping"
"Blocked","Female","ball","4","F_dime.wav","None","730.13260751","126","258540.556877","265423.996107","266173.843762","266940.26712","267706.941526","268473.61284","269240.130187","255424.194287","259307.128947","260056.961143","260823.333796","261590.224933","262357.16832","263123.271065","263890.551141","264657.195558","268482.766531","Mapping"
"Blocked","Female","ball","4","F_reek.wav","None","728.26643812","126","258540.556877","265423.996107","266173.843762","266940.26712","267706.941526","268473.61284","269240.130187","270006.90662","259307.128947","260056.961143","260823.333796","261590.224933","262357.16832","263123.271065","263890.551141","264657.195558","269249.958494","Mapping"
"Blocked","Female","cave","8","F_dime.wav","None","726.996354526","126","273140.50036","265423.996107","266173.843762","266940.26712","267706.941526","268473.61284","269240.130187","270006.90662","259307.128947","260056.961143","260823.333796","261590.224933","262357.16832","263123.271065","263890.551141","264657.195558","270016.307959","Mapping"
"Blocked","Female","cave","8","F_cave.wav","None","720.629550749","126","273140.50036","265423.996107","266173.843762","266940.26712","267706.941526","268473.61284","269240.130187","270006.90662","273907.146013","260056.961143","260823.333796","261590.224933","262357.16832","263123.271065","263890.551141","264657.195558","273150.125849","Mapping"
"Blocked","Female","cave","8","F_reek.wav","space","534.935180331","126","273140.50036","265423.996107","266173.843762","266940.26712","267706.941526","268473.61284","269240.130187","270006.90662","273907.146013","274656.751585","260823.333796","261590.224933","262357.16832","263123.271065","263890.551141","264657.195558","273917.162606","Mapping"
"Blocked","Female","cave","8","F_cave.wav","None","733.225885313","126","273140.50036","265423.996107","266173.843762","266940.26712","267706.941526","268473.61284","269240.130187","270006.90662","273907.146013","274656.751585","275423.456291","261590.224933","262357.16832","263123.271065","263890.551141","264657.195558","274666.138393","Mapping"
"Blocked","Female","cave","8","F_jolt.wav","space","643.397776294","126","273140.50036","265423.996107","266173.843762","266940.26712","267706.941526","268473.61284","269240.130187","270006.90662","273907.146013","274656.751585","275423.456291","276190.008573","262357.16832","263123.271065","263890.551141","264657.195558","275432.686038","Mapping"
"Blocked","Female","cave","8","F_cave.wav","None","728.72741532","126","273140.50036","265423.996107","266173.843762","266940.26712","267706.941526","268473.61284","269240.130187","270006.90662","273907.146013","274656.751585","275423.456291","276190.008573","276956.66412","263123.271065","263890.551141","264657.195558","276199.255016","Mapping"
"Blocked","Female","cave","8","F_greet.wav","space","477.884068037","126","273140.50036","265423.996107","266173.843762","266940.26712","267706.941526","268473.61284","269240.130187","270006.90662","273907.146013","274656.751585","275423.456291","276190.008573","276956.66412","277723.805687","263890.551141","264657.195558","276966.119873","Mapping"
"Blocked","Female","cave","8","F_cave.wav","None","722.299395245","126","273140.50036","265423.996107","266173.843762","266940.26712","267706.941526","268473.61284","269240.130187","270006.90662","273907.146013","274656.751585","275423.456291","276190.008573","276956.66412","277723.805687","278490.316541","264657.195558","277734.200399","Mapping"
"Blocked","Female","cave","8","F_greet.wav","space","487.93497961","126","273140.50036","265423.996107","266173.843762","266940.26712","267706.941526","268473.61284","269240.130187","270006.90662","273907.146013","274656.751585","275423.456291","276190.008573","276956.66412","277723.805687","278490.316541","279239.967871","278500.083941","Mapping"
"Blocked","Female","cave","8","F_jolt.wav","None","735.86622451","126","273140.50036","280006.62249","266173.843762","266940.26712","267706.941526","268473.61284","269240.130187","270006.90662","273907.146013","274656.751585","275423.456291","276190.008573","276956.66412","277723.805687","278490.316541","279239.967871","279249.244303","Mapping"
"Blocked","Female","cave","8","F_jaw.wav","None","734.171646181","126","273140.50036","280006.62249","280773.370789","266940.26712","267706.941526","268473.61284","269240.130187","270006.90662","273907.146013","274656.751585","275423.456291","276190.008573","276956.66412","277723.805687","278490.316541","279239.967871","280016.003114","Mapping"
"Blocked","Female","cave","8","F_jaw.wav","None","732.178097358","126","273140.50036","280006.62249","280773.370789","281539.720563","267706.941526","268473.61284","269240.130187","270006.90662","273907.146013","274656.751585","275423.456291","276190.008573","276956.66412","277723.805687","278490.316541","279239.967871","280783.013282","Mapping"
"Blocked","Female","cave","8","F_reek.wav","None","731.37301032","126","273140.50036","280006.62249","280773.370789","281539.720563","282306.619429","268473.61284","269240.130187","270006.90662","273907.146013","274656.751585","275423.456291","276190.008573","276956.66412","277723.805687","278490.316541","279239.967871","281548.967315","Mapping"
