"Condition","Talker","Target","Trial","current_stimulus","response_response","response_time_response","subject_nr","time_Audio1","time_Audio10","time_Audio11","time_Audio12","time_Audio13","time_Audio14","time_Audio15","time_Audio16","time_Audio2","time_Audio3","time_Audio4","time_Audio5","time_Audio6","time_Audio7","time_Audio8","time_Audio9","time_response","title"
"Blocked","Female","ball","4","F_knife.wav","NA","NA","402","224896.520413","NA","NA","NA","NA","NA","NA","NA","NA","NA","NA","NA","NA","NA","NA","NA","NA","Mapping"
"Blocked","Female","ball","4","F_ball.wav","space","397.678873502","402","224896.520413","NA","NA","NA","NA","NA","NA","NA","225663.978066","NA","NA","NA","NA","NA","NA","NA","224908.43553","Mapping"
"Blocked","Female","ball","4","F_dime.wav","space","642.205145676","402","224896.520413","NA","NA","NA","NA","NA","NA","NA","225663.978066","226413.841427","NA","NA","NA","NA","NA","NA","225667.858028","Mapping"
"Blocked","Female","ball","4","F_depth.wav","None","740.795493126","402","224896.520413","NA","NA","NA","NA","NA","NA","NA","225663.978066","226413.841427","227180.840263","NA","NA","NA","NA","NA","226417.106028","Mapping"
"Blocked","Female","ball","4","F_ball.wav","None","738.722854294","402","224896.520413","NA","NA","NA","NA","NA","NA","NA","225663.978066","226413.841427","227180.840263","227948.000751","NA","NA","NA","NA","227184.10847","Mapping"
"Blocked","Female","ball","4","F_jolt.wav","space","664.524319116","402","224896.520413","NA","NA","NA","NA","NA","NA","NA","225663.978066","226413.841427","227180.840263","227948.000751","228715.034742","NA","NA","NA","227951.600977","Mapping"
"Blocked","Female","ball","4","F_priest.wav","None","734.697164502","402","224896.520413","NA","NA","NA","NA","NA","NA","NA","225663.978066","226413.841427","227180.840263","227948.000751","228715.034742","229482.215963","NA","NA","228718.066479","Mapping"
"Blocked","Female","ball","4","F_ball.wav","None","732.744112611","402","224896.520413","NA","NA","NA","NA","NA","NA","NA","225663.978066","226413.841427","227180.840263","227948.000751","228715.034742","229482.215963","230249.885747","NA","229485.048789","Mapping"
"Blocked","Female","ball","4","F_depth.wav","space","347.282929346","402","224896.520413","NA","NA","NA","NA","NA","NA","NA","225663.978066","226413.841427","227180.840263","227948.000751","228715.034742","229482.215963","230249.885747","231017.530291","230252.775362","Mapping"
"Blocked","Female","ball","4","F_lash.wav","None","726.343211252","402","224896.520413","231767.654761","NA","NA","NA","NA","NA","NA","225663.978066","226413.841427","227180.840263","227948.000751","228715.034742","229482.215963","230249.885747","231017.530291","231021.455625","Mapping"
"Blocked","Female","ball","4","F_cling.wav","None","741.756995674","402","224896.520413","231767.654761","232534.504864","NA","NA","NA","NA","NA","225663.978066","226413.841427","227180.840263","227948.000751","228715.034742","229482.215963","230249.885747","231017.530291","231771.035944","Mapping"
"Blocked","Female","ball","4","F_reek.wav","None","740.055436734","402","224896.520413","231767.654761","232534.504864","233301.623887","NA","NA","NA","NA","225663.978066","226413.841427","227180.840263","227948.000751","228715.034742","229482.215963","230249.885747","231017.530291","232537.833465","Mapping"
"Blocked","Female","ball","4","F_reek.wav","None","737.934121862","402","224896.520413","231767.654761","232534.504864","233301.623887","234068.928902","NA","NA","NA","225663.978066","226413.841427","227180.840263","227948.000751","228715.034742","229482.215963","230249.885747","231017.530291","233304.795043","Mapping"
"Blocked","Female","ball","4","F_knife.wav","None","735.90024421","402","224896.520413","231767.654761","232534.504864","233301.623887","234068.928902","234836.108319","NA","NA","225663.978066","226413.841427","227180.840263","227948.000751","228715.034742","229482.215963","230249.885747","231017.530291","234071.780958","Mapping"
"Blocked","Female","ball","4","F_ball.wav","None","733.287962619","402","224896.520413","231767.654761","232534.504864","233301.623887","234068.928902","234836.108319","235603.30847","NA","225663.978066","226413.841427","227180.840263","227948.000751","228715.034742","229482.215963","230249.885747","231017.530291","234838.867831","Mapping"
"Blocked","Female","ball","4","F_priest.wav","space","278.915906325","402","224896.520413","231767.654761","232534.504864","233301.623887","234068.928902","234836.108319","235603.30847","236370.901634","225663.978066","226413.841427","227180.840263","227948.000751","228715.034742","229482.215963","230249.885747","231017.530291","235606.200188","Mapping"
"Blocked","Female","ball","3","F_priest.wav","None","728.502384853","402","239523.73093","231767.654761","232534.504864","233301.623887","234068.928902","234836.108319","235603.30847","236370.901634","225663.978066","226413.841427","227180.840263","227948.000751","228715.034742","229482.215963","230249.885747","231017.530291","236373.779531","Mapping"
"Blocked","Female","ball","3","F_bluff.wav","None","727.78245993","402","239523.73093","231767.654761","232534.504864","233301.623887","234068.928902","234836.108319","235603.30847","236370.901634","240291.157634","226413.841427","227180.840263","227948.000751","228715.034742","229482.215963","230249.885747","231017.530291","239527.163193","Mapping"
"Blocked","Female","ball","3","F_jaw.wav","None","725.327624474","402","239523.73093","231767.654761","232534.504864","233301.623887","234068.928902","234836.108319","235603.30847","236370.901634","240291.157634","241040.932056","227180.840263","227948.000751","228715.034742","229482.215963","230249.885747","231017.530291","240294.420432","Mapping"
"Blocked","Female","ball","3","F_knife.wav","None","740.981783718","402","239523.73093","231767.654761","232534.504864","233301.623887","234068.928902","234836.108319","235603.30847","236370.901634","240291.157634","241040.932056","241807.853071","227948.000751","228715.034742","229482.215963","230249.885747","231017.530291","241043.98723","Mapping"
"Blocked","Female","ball","3","F_ball.wav","None","739.016713575","402","239523.73093","231767.654761","232534.504864","233301.623887","234068.928902","234836.108319","235603.30847","236370.901634","240291.157634","241040.932056","241807.853071","242575.101296","228715.034742","229482.215963","230249.885747","231017.530291","241810.98847","Mapping"
"Blocked","Female","ball","3","F_depth.wav","space","297.121953219","402","239523.73093","231767.654761","232534.504864","233301.623887","234068.928902","234836.108319","235603.30847","236370.901634","240291.157634","241040.932056","241807.853071","242575.101296","243342.362141","229482.215963","230249.885747","231017.530291","242577.943737","Mapping"
"Blocked","Female","ball","3","F_ball.wav","None","734.279812314","402","239523.73093","231767.654761","232534.504864","233301.623887","234068.928902","234836.108319","235603.30847","236370.901634","240291.157634","241040.932056","241807.853071","242575.101296","243342.362141","244109.447211","230249.885747","231017.530291","243345.184751","Mapping"
"Blocked","Female","ball","3","F_bluff.wav","space","338.808187749","402","239523.73093","231767.654761","232534.504864","233301.623887","234068.928902","234836.108319","235603.30847","236370.901634","240291.157634","241040.932056","241807.853071","242575.101296","243342.362141","244109.447211","244877.07493","231017.530291","244112.2557","Mapping"
"Blocked","Female","ball","3","F_dime.wav","None","729.474103544","402","239523.73093","231767.654761","232534.504864","233301.623887","234068.928902","234836.108319","235603.30847","236370.901634","240291.157634","241040.932056","241807.853071","242575.101296","243342.362141","244109.447211","244877.07493","245644.232413","244880.08984","Mapping"
"Blocked","Female","ball","3","F_greet.wav","None","727.224488277","402","239523.73093","246394.486986","232534.504864","233301.623887","234068.928902","234836.108319","235603.30847","236370.901634","240291.157634","241040.932056","241807.853071","242575.101296","243342.362141","244109.447211","244877.07493","245644.232413","245647.15508","Mapping"
"Blocked","Female","ball","3","F_lash.wav","None","742.083605379","402","239523.73093","246394.486986","247161.775775","233301.623887","234068.928902","234836.108319","235603.30847","236370.901634","240291.157634","241040.932056","241807.853071","242575.101296","243342.362141","244109.447211","244877.07493","245644.232413","246397.533747","Mapping"
"Blocked","Female","ball","3","F_ball.wav","None","740.470985882","402","239523.73093","246394.486986","247161.775775","247928.963906","234068.928902","234836.108319","235603.30847","236370.901634","240291.157634","241040.932056","241807.853071","242575.101296","243342.362141","244109.447211","244877.07493","245644.232413","247164.476995","Mapping"
"Blocked","Female","ball","3","F_park.wav","space","430.166835897","402","239523.73093","246394.486986","247161.775775","247928.963906","248696.209427","234836.108319","235603.30847","236370.901634","240291.157634","241040.932056","241807.853071","242575.101296","243342.362141","244109.447211","244877.07493","245644.232413","247931.900695","Mapping"
"Blocked","Female","ball","3","F_ball.wav","None","735.750309657","402","239523.73093","246394.486986","247161.775775","247928.963906","248696.209427","249463.425803","235603.30847","236370.901634","240291.157634","241040.932056","241807.853071","242575.101296","243342.362141","244109.447211","244877.07493","245644.232413","248699.113165","Mapping"
"Blocked","Female","ball","3","F_dime.wav","space","499.595117755","402","239523.73093","246394.486986","247161.775775","247928.963906","248696.209427","249463.425803","250230.630761","236370.901634","240291.157634","241040.932056","241807.853071","242575.101296","243342.362141","244109.447211","244877.07493","245644.232413","249466.48308","Mapping"
"Blocked","Female","ball","3","F_dime.wav","None","731.358647812","402","239523.73093","246394.486986","247161.775775","247928.963906","248696.209427","249463.425803","250230.630761","250998.135286","240291.157634","241040.932056","241807.853071","242575.101296","243342.362141","244109.447211","244877.07493","245644.232413","250233.611418","Mapping"
"Blocked","Female","cave","11","F_jaw.wav","None","728.788732085","402","254117.685183","246394.486986","247161.775775","247928.963906","248696.209427","249463.425803","250230.630761","250998.135286","240291.157634","241040.932056","241807.853071","242575.101296","243342.362141","244109.447211","244877.07493","245644.232413","251001.368038","Mapping"
"Blocked","Female","cave","11","F_cad.wav","None","726.863023359","402","254117.685183","246394.486986","247161.775775","247928.963906","248696.209427","249463.425803","250230.630761","250998.135286","254867.252582","241040.932056","241807.853071","242575.101296","243342.362141","244109.447211","244877.07493","245644.232413","254121.438348","Mapping"
"Blocked","Female","cave","11","F_cling.wav","None","742.661708966","402","254117.685183","246394.486986","247161.775775","247928.963906","248696.209427","249463.425803","250230.630761","250998.135286","254867.252582","255634.471362","241807.853071","242575.101296","243342.362141","244109.447211","244877.07493","245644.232413","254870.472113","Mapping"
"Blocked","Female","cave","11","F_greet.wav","None","741.074629128","402","254117.685183","246394.486986","247161.775775","247928.963906","248696.209427","249463.425803","250230.630761","250998.135286","254867.252582","255634.471362","256401.750535","242575.101296","243342.362141","244109.447211","244877.07493","245644.232413","255637.268432","Mapping"
"Blocked","Female","cave","11","F_romp.wav","None","738.23369015","402","254117.685183","246394.486986","247161.775775","247928.963906","248696.209427","249463.425803","250230.630761","250998.135286","254867.252582","255634.471362","256401.750535","257168.950686","243342.362141","244109.447211","244877.07493","245644.232413","256404.997409","Mapping"
"Blocked","Female","cave","11","F_jaw.wav","None","736.416751519","402","254117.685183","246394.486986","247161.775775","247928.963906","248696.209427","249463.425803","250230.630761","250998.135286","254867.252582","255634.471362","256401.750535","257168.950686","257936.199512","244109.447211","244877.07493","245644.232413","257171.778103","Mapping"
"Blocked","Female","cave","11","F_cave.wav","None","733.531042002","402","254117.685183","246394.486986","247161.775775","247928.963906","248696.209427","249463.425803","250230.630761","250998.135286","254867.252582","255634.471362","256401.750535","257168.950686","257936.199512","258703.418291","244877.07493","245644.232413","257939.482141","Mapping"
"Blocked","Female","cave","11","F_greet.wav","space","476.825840306","402","254117.685183","246394.486986","247161.775775","247928.963906","248696.209427","249463.425803","250230.630761","250998.135286","254867.252582","255634.471362","256401.750535","257168.950686","257936.199512","258703.418291","259470.847099","245644.232413","258706.238798","Mapping"
"Blocked","Female","cave","11","F_park.wav","None","729.447361547","402","254117.685183","246394.486986","247161.775775","247928.963906","248696.209427","249463.425803","250230.630761","250998.135286","254867.252582","255634.471362","256401.750535","257168.950686","257936.199512","258703.418291","259470.847099","260238.187568","259473.890254","Mapping"
"Blocked","Female","cave","11","F_jolt.wav","None","727.180619724","402","254117.685183","260988.417803","247161.775775","247928.963906","248696.209427","249463.425803","250230.630761","250998.135286","254867.252582","255634.471362","256401.750535","257168.950686","257936.199512","258703.418291","259470.847099","260238.187568","260241.212395","Mapping"
"Blocked","Female","cave","11","F_cave.wav","None","742.101032753","402","254117.685183","260988.417803","261755.706592","247928.963906","248696.209427","249463.425803","250230.630761","250998.135286","254867.252582","255634.471362","256401.750535","257168.950686","257936.199512","258703.418291","259470.847099","260238.187568","260991.357597","Mapping"
"Blocked","Female","cave","11","F_jolt.wav","space","530.285671353","402","254117.685183","260988.417803","261755.706592","262522.863775","248696.209427","249463.425803","250230.630761","250998.135286","254867.252582","255634.471362","256401.750535","257168.950686","257936.199512","258703.418291","259470.847099","260238.187568","261758.777089","Mapping"
"Blocked","Female","cave","11","F_cave.wav","None","738.002929371","402","254117.685183","260988.417803","261755.706592","262522.863775","263290.026366","249463.425803","250230.630761","250998.135286","254867.252582","255634.471362","256401.750535","257168.950686","257936.199512","258703.418291","259470.847099","260238.187568","262525.677672","Mapping"
"Blocked","Female","cave","11","F_gnash.wav","space","392.116582021","402","254117.685183","260988.417803","261755.706592","262522.863775","263290.026366","264057.328676","250230.630761","250998.135286","254867.252582","255634.471362","256401.750535","257168.950686","257936.199512","258703.418291","259470.847099","260238.187568","263292.961353","Mapping"
"Blocked","Female","cave","11","F_cave.wav","None","733.80056303","402","254117.685183","260988.417803","261755.706592","262522.863775","263290.026366","264057.328676","264824.519512","250998.135286","254867.252582","255634.471362","256401.750535","257168.950686","257936.199512","258703.418291","259470.847099","260238.187568","264059.978517","Mapping"
"Blocked","Female","cave","11","F_cad.wav","space","525.764507242","402","254117.685183","260988.417803","261755.706592","262522.863775","263290.026366","264057.328676","264824.519512","265592.044169","254867.252582","255634.471362","256401.750535","257168.950686","257936.199512","258703.418291","259470.847099","260238.187568","264827.298854","Mapping"
"Blocked","Female","done","19","F_dime.wav","None","729.204582516","402","268711.899343","260988.417803","261755.706592","262522.863775","263290.026366","264057.328676","264824.519512","265592.044169","254867.252582","255634.471362","256401.750535","257168.950686","257936.199512","258703.418291","259470.847099","260238.187568","265594.719249","Mapping"
"Blocked","Female","done","19","F_reek.wav","space","372.110723052","402","268711.899343","260988.417803","261755.706592","262522.863775","263290.026366","264057.328676","264824.519512","265592.044169","269461.214047","255634.471362","256401.750535","257168.950686","257936.199512","258703.418291","259470.847099","260238.187568","268714.987869","Mapping"
"Blocked","Female","done","19","F_cling.wav","None","742.302948609","402","268711.899343","260988.417803","261755.706592","262522.863775","263290.026366","264057.328676","264824.519512","265592.044169","269461.214047","270228.376639","256401.750535","257168.950686","257936.199512","258703.418291","259470.847099","260238.187568","269463.928789","Mapping"
"Blocked","Female","done","19","F_knife.wav","None","740.302723367","402","268711.899343","260988.417803","261755.706592","262522.863775","263290.026366","264057.328676","264824.519512","265592.044169","269461.214047","270228.376639","270995.678348","257168.950686","257936.199512","258703.418291","259470.847099","260238.187568","270231.322141","Mapping"
"Blocked","Female","done","19","F_done.wav","None","737.771568354","402","268711.899343","260988.417803","261755.706592","262522.863775","263290.026366","264057.328676","264824.519512","265592.044169","269461.214047","270228.376639","270995.678348","271762.859568","257936.199512","258703.418291","259470.847099","260238.187568","270998.658404","Mapping"
"Blocked","Female","done","19","F_reek.wav","space","611.484845169","402","268711.899343","260988.417803","261755.706592","262522.863775","263290.026366","264057.328676","264824.519512","265592.044169","269461.214047","270228.376639","270995.678348","271762.859568","272530.087662","258703.418291","259470.847099","260238.187568","271765.586329","Mapping"
"Blocked","Female","done","19","F_cad.wav","None","732.743812259","402","268711.899343","260988.417803","261755.706592","262522.863775","263290.026366","264057.328676","264824.519512","265592.044169","269461.214047","270228.376639","270995.678348","271762.859568","272530.087662","273297.608714","259470.847099","260238.187568","272533.264225","Mapping"
"Blocked","Female","done","19","F_done.wav","None","730.602666736","402","268711.899343","260988.417803","261755.706592","262522.863775","263290.026366","264057.328676","264824.519512","265592.044169","269461.214047","270228.376639","270995.678348","271762.859568","272530.087662","273297.608714","274064.980733","260238.187568","273300.526573","Mapping"
"Blocked","Female","done","19","F_knife.wav","space","432.993351948","402","268711.899343","260988.417803","261755.706592","262522.863775","263290.026366","264057.328676","264824.519512","265592.044169","269461.214047","270228.376639","270995.678348","271762.859568","272530.087662","273297.608714","274064.980733","274832.554967","274068.001953","Mapping"
"Blocked","Female","done","19","F_cling.wav","None","724.72277889","402","268711.899343","275582.442967","261755.706592","262522.863775","263290.026366","264057.328676","264824.519512","265592.044169","269461.214047","270228.376639","270995.678348","271762.859568","272530.087662","273297.608714","274064.980733","274832.554967","274836.201465","Mapping"
"Blocked","Female","done","19","F_park.wav","None","740.616413299","402","268711.899343","275582.442967","276349.948695","262522.863775","263290.026366","264057.328676","264824.519512","265592.044169","269461.214047","270228.376639","270995.678348","271762.859568","272530.087662","273297.608714","274064.980733","274832.554967","275585.676319","Mapping"
"Blocked","Female","done","19","F_done.wav","None","738.229783718","402","268711.899343","275582.442967","276349.948695","277116.724582","263290.026366","264057.328676","264824.519512","265592.044169","269461.214047","270228.376639","270995.678348","271762.859568","272530.087662","273297.608714","274064.980733","274832.554967","276353.33108","Mapping"
"Blocked","Female","done","19","F_lash.wav","space","446.480826475","402","268711.899343","275582.442967","276349.948695","277116.724582","277883.886573","264057.328676","264824.519512","265592.044169","269461.214047","270228.376639","270995.678348","271762.859568","272530.087662","273297.608714","274064.980733","274832.554967","277119.606385","Mapping"
"Blocked","Female","done","19","F_knife.wav","None","734.470009338","402","268711.899343","275582.442967","276349.948695","277116.724582","277883.886573","278651.186479","264824.519512","265592.044169","269461.214047","270228.376639","270995.678348","271762.859568","272530.087662","273297.608714","274064.980733","274832.554967","277886.858216","Mapping"
"Blocked","Female","done","19","F_done.wav","None","732.780469116","402","268711.899343","275582.442967","276349.948695","277116.724582","277883.886573","278651.186479","279418.690404","265592.044169","269461.214047","270228.376639","270995.678348","271762.859568","272530.087662","273297.608714","274064.980733","274832.554967","278653.781935","Mapping"
"Blocked","Female","done","19","F_dime.wav","space","374.345615041","402","268711.899343","275582.442967","276349.948695","277116.724582","277883.886573","278651.186479","279418.690404","280186.543174","269461.214047","270228.376639","270995.678348","271762.859568","272530.087662","273297.608714","274064.980733","274832.554967","279421.711024","Mapping"
"Blocked","Female","tile","18","F_depth.wav","space","443.938253447","402","283305.45307","275582.442967","276349.948695","277116.724582","277883.886573","278651.186479","279418.690404","280186.543174","269461.214047","270228.376639","270995.678348","271762.859568","272530.087662","273297.608714","274064.980733","274832.554967","280190.128075","Mapping"
"Blocked","Female","tile","18","F_tile.wav","None","726.285821293","402","283305.45307","275582.442967","276349.948695","277116.724582","277883.886573","278651.186479","279418.690404","280186.543174","284072.563982","270228.376639","270995.678348","271762.859568","272530.087662","273297.608714","274064.980733","274832.554967","283309.737766","Mapping"
"Blocked","Female","tile","18","F_romp.wav","space","527.619305067","402","283305.45307","275582.442967","276349.948695","277116.724582","277883.886573","278651.186479","279418.690404","280186.543174","284072.563982","284822.359737","270995.678348","271762.859568","272530.087662","273297.608714","274064.980733","274832.554967","284076.445747","Mapping"
"Blocked","Female","tile","18","F_tile.wav","None","740.556018893","402","283305.45307","275582.442967","276349.948695","277116.724582","277883.886573","278651.186479","279418.690404","280186.543174","284072.563982","284822.359737","285589.575212","271762.859568","272530.087662","273297.608714","274064.980733","274832.554967","284825.227118","Mapping"
"Blocked","Female","tile","18","F_jolt.wav","space","470.566460397","402","283305.45307","275582.442967","276349.948695","277116.724582","277883.886573","278651.186479","279418.690404","280186.543174","284072.563982","284822.359737","285589.575212","286356.743211","272530.087662","273297.608714","274064.980733","274832.554967","285592.531531","Mapping"
"Blocked","Female","tile","18","F_depth.wav","None","736.777614802","402","283305.45307","275582.442967","276349.948695","277116.724582","277883.886573","278651.186479","279418.690404","280186.543174","284072.563982","284822.359737","285589.575212","286356.743211","287123.971606","273297.608714","274064.980733","274832.554967","286359.570629","Mapping"
"Blocked","Female","tile","18","F_tile.wav","None","734.746741597","402","283305.45307","275582.442967","276349.948695","277116.724582","277883.886573","278651.186479","279418.690404","280186.543174","284072.563982","284822.359737","285589.575212","286356.743211","287123.971606","287891.227042","274064.980733","274832.554967","287126.944751","Mapping"
"Blocked","Female","tile","18","F_romp.wav","space","523.831586819","402","283305.45307","275582.442967","276349.948695","277116.724582","277883.886573","278651.186479","279418.690404","280186.543174","284072.563982","284822.359737","285589.575212","286356.743211","287123.971606","287891.227042","288659.404019","274832.554967","287894.258779","Mapping"
"Blocked","Female","tile","18","F_lash.wav","None","728.892394342","402","283305.45307","275582.442967","276349.948695","277116.724582","277883.886573","278651.186479","279418.690404","280186.543174","284072.563982","284822.359737","285589.575212","286356.743211","287123.971606","287891.227042","288659.404019","289426.664563","288663.334761","Mapping"
"Blocked","Female","tile","18","F_depth.wav","None","727.63913637","402","283305.45307","290193.192263","276349.948695","277116.724582","277883.886573","278651.186479","279418.690404","280186.543174","284072.563982","284822.359737","285589.575212","286356.743211","287123.971606","287891.227042","288659.404019","289426.664563","289430.223024","Mapping"
"Blocked","Female","tile","18","F_lash.wav","None","726.962478831","402","283305.45307","290193.192263","290943.43662","277116.724582","277883.886573","278651.186479","279418.690404","280186.543174","284072.563982","284822.359737","285589.575212","286356.743211","287123.971606","287891.227042","288659.404019","289426.664563","290196.251043","Mapping"
"Blocked","Female","tile","18","F_dime.wav","None","742.125371005","402","283305.45307","290193.192263","290943.43662","291710.671324","277883.886573","278651.186479","279418.690404","280186.543174","284072.563982","284822.359737","285589.575212","286356.743211","287123.971606","287891.227042","288659.404019","289426.664563","290946.494498","Mapping"
"Blocked","Female","tile","18","F_tile.wav","None","740.50343642","402","283305.45307","290193.192263","290943.43662","291710.671324","292477.824","278651.186479","279418.690404","280186.543174","284072.563982","284822.359737","285589.575212","286356.743211","287123.971606","287891.227042","288659.404019","289426.664563","291713.527587","Mapping"
"Blocked","Female","tile","18","F_reek.wav","space","446.159924846","402","283305.45307","290193.192263","290943.43662","291710.671324","292477.824","293245.066517","279418.690404","280186.543174","284072.563982","284822.359737","285589.575212","286356.743211","287123.971606","287891.227042","288659.404019","289426.664563","292492.897352","Mapping"
"Blocked","Female","tile","18","F_priest.wav","None","735.396056436","402","283305.45307","290193.192263","290943.43662","291710.671324","292477.824","293245.066517","294012.31384","280186.543174","284072.563982","284822.359737","285589.575212","286356.743211","287123.971606","287891.227042","288659.404019","289426.664563","293248.722329","Mapping"
"Blocked","Female","tile","18","F_priest.wav","None","734.279211145","402","283305.45307","290193.192263","290943.43662","291710.671324","292477.824","293245.066517","294012.31384","294779.575888","284072.563982","284822.359737","285589.575212","286356.743211","287123.971606","287891.227042","288659.404019","289426.664563","294015.125033","Mapping"
"Blocked","Female","cave","8","F_depth.wav","None","732.687324286","402","297916.123042","290193.192263","290943.43662","291710.671324","292477.824","293245.066517","294012.31384","294779.575888","284072.563982","284822.359737","285589.575212","286356.743211","287123.971606","287891.227042","288659.404019","289426.664563","294782.239549","Mapping"
"Blocked","Female","cave","8","F_romp.wav","None","727.175511885","402","297916.123042","290193.192263","290943.43662","291710.671324","292477.824","293245.066517","294012.31384","294779.575888","298682.577127","284822.359737","285589.575212","286356.743211","287123.971606","287891.227042","288659.404019","289426.664563","297919.796582","Mapping"
"Blocked","Female","cave","8","F_cave.wav","None","726.572769694","402","297916.123042","290193.192263","290943.43662","291710.671324","292477.824","293245.066517","294012.31384","294779.575888","298682.577127","299432.956395","285589.575212","286356.743211","287123.971606","287891.227042","288659.404019","289426.664563","298685.829709","Mapping"
"Blocked","Female","cave","8","F_reek.wav","space","351.513840258","402","297916.123042","290193.192263","290943.43662","291710.671324","292477.824","293245.066517","294012.31384","294779.575888","298682.577127","299432.956395","300200.221146","286356.743211","287123.971606","287891.227042","288659.404019","289426.664563","299435.527212","Mapping"
"Blocked","Female","cave","8","F_romp.wav","None","739.282028284","402","297916.123042","290193.192263","290943.43662","291710.671324","292477.824","293245.066517","294012.31384","294779.575888","298682.577127","299432.956395","300200.221146","300967.302911","287123.971606","287891.227042","288659.404019","289426.664563","300203.230347","Mapping"
"Blocked","Female","cave","8","F_cad.wav","None","737.763455138","402","297916.123042","290193.192263","290943.43662","291710.671324","292477.824","293245.066517","294012.31384","294779.575888","298682.577127","299432.956395","300200.221146","300967.302911","301734.601615","287891.227042","288659.404019","289426.664563","300970.099681","Mapping"
"Blocked","Female","cave","8","F_gnash.wav","None","735.698028002","402","297916.123042","290193.192263","290943.43662","291710.671324","292477.824","293245.066517","294012.31384","294779.575888","298682.577127","299432.956395","300200.221146","300967.302911","301734.601615","302501.790047","288659.404019","289426.664563","301737.624639","Mapping"
"Blocked","Female","cave","8","F_cave.wav","None","733.564694878","402","297916.123042","290193.192263","290943.43662","291710.671324","292477.824","293245.066517","294012.31384","294779.575888","298682.577127","299432.956395","300200.221146","300967.302911","301734.601615","302501.790047","303269.068319","289426.664563","302504.74847","Mapping"
"Blocked","Female","cave","8","F_lash.wav","space","395.264600869","402","297916.123042","290193.192263","290943.43662","291710.671324","292477.824","293245.066517","294012.31384","294779.575888","298682.577127","299432.956395","300200.221146","300967.302911","301734.601615","302501.790047","303269.068319","304036.568939","303271.848864","Mapping"
"Blocked","Female","cave","8","F_priest.wav","None","729.448262602","402","297916.123042","304803.766085","290943.43662","291710.671324","292477.824","293245.066517","294012.31384","294779.575888","298682.577127","299432.956395","300200.221146","300967.302911","301734.601615","302501.790047","303269.068319","304036.568939","304039.469071","Mapping"
"Blocked","Female","cave","8","F_cave.wav","None","727.650253568","402","297916.123042","304803.766085","305570.91846","291710.671324","292477.824","293245.066517","294012.31384","294779.575888","298682.577127","299432.956395","300200.221146","300967.302911","301734.601615","302501.790047","303269.068319","304036.568939","304806.691456","Mapping"
"Blocked","Female","cave","8","F_knife.wav","space","446.160526015","402","297916.123042","304803.766085","305570.91846","306321.298329","292477.824","293245.066517","294012.31384","294779.575888","298682.577127","299432.956395","300200.221146","300967.302911","301734.601615","302501.790047","303269.068319","304036.568939","305573.93878","Mapping"
"Blocked","Female","cave","8","F_lash.wav","None","741.175887641","402","297916.123042","304803.766085","305570.91846","306321.298329","307088.44139","293245.066517","294012.31384","294779.575888","298682.577127","299432.956395","300200.221146","300967.302911","301734.601615","302501.790047","303269.068319","304036.568939","306323.988732","Mapping"
"Blocked","Female","cave","8","F_jolt.wav","None","739.198798314","402","297916.123042","304803.766085","305570.91846","306321.298329","307088.44139","307855.771644","294012.31384","294779.575888","298682.577127","299432.956395","300200.221146","300967.302911","301734.601615","302501.790047","303269.068319","304036.568939","307091.157333","Mapping"
"Blocked","Female","cave","8","F_cave.wav","None","737.507755868","402","297916.123042","304803.766085","305570.91846","306321.298329","307088.44139","307855.771644","308622.917409","294779.575888","298682.577127","299432.956395","300200.221146","300967.302911","301734.601615","302501.790047","303269.068319","304036.568939","307858.45123","Mapping"
"Blocked","Female","cave","8","F_bluff.wav","space","340.235417709","402","297916.123042","304803.766085","305570.91846","306321.298329","307088.44139","307855.771644","308622.917409","309390.061972","298682.577127","299432.956395","300200.221146","300967.302911","301734.601615","302501.790047","303269.068319","304036.568939","308625.801014","Mapping"
"Blocked","Female","tile","14","F_lash.wav","None","732.945427299","402","312526.951362","304803.766085","305570.91846","306321.298329","307088.44139","307855.771644","308622.917409","309390.061972","298682.577127","299432.956395","300200.221146","300967.302911","301734.601615","302501.790047","303269.068319","304036.568939","309393.331381","Mapping"
"Blocked","Female","tile","14","F_tile.wav","space","0.0216336920857","402","312526.951362","304803.766085","305570.91846","306321.298329","307088.44139","307855.771644","308622.917409","309390.061972","313293.162366","299432.956395","300200.221146","300967.302911","301734.601615","302501.790047","303269.068319","304036.568939","312530.441615","Mapping"
"Blocked","Female","tile","14","F_priest.wav","None","726.3975963","402","312526.951362","304803.766085","305570.91846","306321.298329","307088.44139","307855.771644","308622.917409","309390.061972","313293.162366","314043.66693","300200.221146","300967.302911","301734.601615","302501.790047","303269.068319","304036.568939","313295.96785","Mapping"
"Blocked","Female","tile","14","F_bluff.wav","None","741.022046655","402","312526.951362","304803.766085","305570.91846","306321.298329","307088.44139","307855.771644","308622.917409","309390.061972","313293.162366","314043.66693","314811.072301","300967.302911","301734.601615","302501.790047","303269.068319","304036.568939","314046.561352","Mapping"
"Blocked","Female","tile","14","F_tile.wav","space","0.0351550988853","402","312526.951362","304803.766085","305570.91846","306321.298329","307088.44139","307855.771644","308622.917409","309390.061972","313293.162366","314043.66693","314811.072301","315577.967775","301734.601615","302501.790047","303269.068319","304036.568939","314814.195981","Mapping"
"Blocked","Female","tile","14","F_cling.wav","space","414.14970858","402","312526.951362","304803.766085","305570.91846","306321.298329","307088.44139","307855.771644","308622.917409","309390.061972","313293.162366","314043.66693","314811.072301","315577.967775","316345.242442","302501.790047","303269.068319","304036.568939","315580.927399","Mapping"
"Blocked","Female","tile","14","F_bluff.wav","None","734.555042349","402","312526.951362","304803.766085","305570.91846","306321.298329","307088.44139","307855.771644","308622.917409","309390.061972","313293.162366","314043.66693","314811.072301","315577.967775","316345.242442","317112.367174","303269.068319","304036.568939","316348.1597","Mapping"
"Blocked","Female","tile","14","F_dime.wav","None","732.994103339","402","312526.951362","304803.766085","305570.91846","306321.298329","307088.44139","307855.771644","308622.917409","309390.061972","313293.162366","314043.66693","314811.072301","315577.967775","316345.242442","317112.367174","317879.655061","304036.568939","317114.989671","Mapping"
"Blocked","Female","tile","14","F_cling.wav","None","731.140206568","402","312526.951362","304803.766085","305570.91846","306321.298329","307088.44139","307855.771644","308622.917409","309390.061972","313293.162366","314043.66693","314811.072301","315577.967775","316345.242442","317112.367174","317879.655061","318647.789071","317882.525146","Mapping"
"Blocked","Female","tile","14","F_tile.wav","None","727.532770019","402","312526.951362","319415.018066","305570.91846","306321.298329","307088.44139","307855.771644","308622.917409","309390.061972","313293.162366","314043.66693","314811.072301","315577.967775","316345.242442","317112.367174","317879.655061","318647.789071","318651.384789","Mapping"
"Blocked","Female","tile","14","F_dime.wav","space","336.353051476","402","312526.951362","319415.018066","320164.604695","306321.298329","307088.44139","307855.771644","308622.917409","309390.061972","313293.162366","314043.66693","314811.072301","315577.967775","316345.242442","317112.367174","317879.655061","318647.789071","319418.686798","Mapping"
"Blocked","Female","tile","14","F_tile.wav","None","742.211004719","402","312526.951362","319415.018066","320164.604695","320931.829484","307088.44139","307855.771644","308622.917409","309390.061972","313293.162366","314043.66693","314811.072301","315577.967775","316345.242442","317112.367174","317879.655061","318647.789071","320167.392751","Mapping"
"Blocked","Female","tile","14","F_reek.wav","space","560.567586683","402","312526.951362","319415.018066","320164.604695","320931.829484","321699.048263","307855.771644","308622.917409","309390.061972","313293.162366","314043.66693","314811.072301","315577.967775","316345.242442","317112.367174","317879.655061","318647.789071","320934.515681","Mapping"
"Blocked","Female","tile","14","F_cling.wav","None","737.717182841","402","312526.951362","319415.018066","320164.604695","320931.829484","321699.048263","322466.941296","308622.917409","309390.061972","313293.162366","314043.66693","314811.072301","315577.967775","316345.242442","317112.367174","317879.655061","318647.789071","321702.342911","Mapping"
"Blocked","Female","tile","14","F_dime.wav","None","735.314328689","402","312526.951362","319415.018066","320164.604695","320931.829484","321699.048263","322466.941296","323233.840977","309390.061972","313293.162366","314043.66693","314811.072301","315577.967775","316345.242442","317112.367174","317879.655061","318647.789071","322470.299643","Mapping"
"Blocked","Female","tile","14","F_greet.wav","None","733.811079524","402","312526.951362","319415.018066","320164.604695","320931.829484","321699.048263","322466.941296","323233.840977","324000.987643","313293.162366","314043.66693","314811.072301","315577.967775","316345.242442","317112.367174","317879.655061","318647.789071","323237.547569","Mapping"
"Blocked","Female","cave","12","F_park.wav","None","732.224300504","402","327137.152","319415.018066","320164.604695","320931.829484","321699.048263","322466.941296","323233.840977","324000.987643","313293.162366","314043.66693","314811.072301","315577.967775","316345.242442","317112.367174","317879.655061","318647.789071","324004.81262","Mapping"
"Blocked","Female","cave","12","F_cave.wav","space","0.0216336920857","402","327137.152","319415.018066","320164.604695","320931.829484","321699.048263","322466.941296","323233.840977","324000.987643","327904.499982","314043.66693","314811.072301","315577.967775","316345.242442","317112.367174","317879.655061","318647.789071","327140.970667","Mapping"
"Blocked","Female","cave","12","F_gnash.wav","None","725.151248742","402","327137.152","319415.018066","320164.604695","320931.829484","321699.048263","322466.941296","323233.840977","324000.987643","327904.499982","328654.579981","314811.072301","315577.967775","316345.242442","317112.367174","317879.655061","318647.789071","327907.727024","Mapping"
"Blocked","Female","cave","12","F_knife.wav","None","740.355605725","402","327137.152","319415.018066","320164.604695","320931.829484","321699.048263","322466.941296","323233.840977","324000.987643","327904.499982","328654.579981","329421.254009","315577.967775","316345.242442","317112.367174","317879.655061","318647.789071","328658.04139","Mapping"
"Blocked","Female","cave","12","F_depth.wav","None","740.251643118","402","327137.152","319415.018066","320164.604695","320931.829484","321699.048263","322466.941296","323233.840977","324000.987643","327904.499982","328654.579981","329421.254009","330188.485409","316345.242442","317112.367174","317879.655061","318647.789071","329423.96124","Mapping"
"Blocked","Female","cave","12","F_cave.wav","None","738.148657139","402","327137.152","319415.018066","320164.604695","320931.829484","321699.048263","322466.941296","323233.840977","324000.987643","327904.499982","328654.579981","329421.254009","330188.485409","330955.669934","317112.367174","317879.655061","318647.789071","330191.358197","Mapping"
"Blocked","Female","cave","12","F_priest.wav","space","364.112525713","402","327137.152","319415.018066","320164.604695","320931.829484","321699.048263","322466.941296","323233.840977","324000.987643","327904.499982","328654.579981","329421.254009","330188.485409","330955.669934","331722.983362","317879.655061","318647.789071","330958.934235","Mapping"
"Blocked","Female","cave","12","F_jolt.wav","None","733.708619606","402","327137.152","319415.018066","320164.604695","320931.829484","321699.048263","322466.941296","323233.840977","324000.987643","327904.499982","328654.579981","329421.254009","330188.485409","330955.669934","331722.983362","332490.197033","318647.789071","331725.883794","Mapping"
"Blocked","Female","cave","12","F_park.wav","None","732.100507244","402","327137.152","319415.018066","320164.604695","320931.829484","321699.048263","322466.941296","323233.840977","324000.987643","327904.499982","328654.579981","329421.254009","330188.485409","330955.669934","331722.983362","332490.197033","333257.652583","332493.110686","Mapping"
"Blocked","Female","cave","12","F_cave.wav","None","729.912187904","402","327137.152","334024.84432","320164.604695","320931.829484","321699.048263","322466.941296","323233.840977","324000.987643","327904.499982","328654.579981","329421.254009","330188.485409","330955.669934","331722.983362","332490.197033","333257.652583","333260.837258","Mapping"
"Blocked","Female","cave","12","F_jaw.wav","space","431.185727939","402","327137.152","334024.84432","334792.297164","320931.829484","321699.048263","322466.941296","323233.840977","324000.987643","327904.499982","328654.579981","329421.254009","330188.485409","330955.669934","331722.983362","332490.197033","333257.652583","334027.869747","Mapping"
"Blocked","Female","cave","12","F_priest.wav","None","726.237145718","402","327137.152","334024.84432","334792.297164","335542.432451","321699.048263","322466.941296","323233.840977","324000.987643","327904.499982","328654.579981","329421.254009","330188.485409","330955.669934","331722.983362","332490.197033","333257.652583","334795.232751","Mapping"
"Blocked","Female","cave","12","F_jolt.wav","None","741.666554008","402","327137.152","334024.84432","334792.297164","335542.432451","336309.59324","322466.941296","323233.840977","324000.987643","327904.499982","328654.579981","329421.254009","330188.485409","330955.669934","331722.983362","332490.197033","333257.652583","335545.371343","Mapping"
"Blocked","Female","cave","12","F_lash.wav","None","739.906102885","402","327137.152","334024.84432","334792.297164","335542.432451","336309.59324","337076.891643","323233.840977","324000.987643","327904.499982","328654.579981","329421.254009","330188.485409","330955.669934","331722.983362","332490.197033","333257.652583","336312.864752","Mapping"
"Blocked","Female","cave","12","F_cave.wav","None","738.544075284","402","327137.152","334024.84432","334792.297164","335542.432451","336309.59324","337076.891643","337844.111324","324000.987643","327904.499982","328654.579981","329421.254009","330188.485409","330955.669934","331722.983362","332490.197033","333257.652583","337079.825728","Mapping"
"Blocked","Female","cave","12","F_park.wav","space","389.183999971","402","327137.152","334024.84432","334792.297164","335542.432451","336309.59324","337076.891643","337844.111324","338611.339117","327904.499982","328654.579981","329421.254009","330188.485409","330955.669934","331722.983362","332490.197033","333257.652583","337846.892169","Mapping"
"Blocked","Female","tile","15","F_park.wav","None","734.929126687","402","341747.984526","334024.84432","334792.297164","335542.432451","336309.59324","337076.891643","337844.111324","338611.339117","327904.499982","328654.579981","329421.254009","330188.485409","330955.669934","331722.983362","332490.197033","333257.652583","338614.103137","Mapping"
"Blocked","Female","tile","15","F_tile.wav","None","725.920450408","402","341747.984526","334024.84432","334792.297164","335542.432451","336309.59324","337076.891643","337844.111324","338611.339117","342514.549484","328654.579981","329421.254009","330188.485409","330955.669934","331722.983362","332490.197033","333257.652583","341751.9357","Mapping"
"Blocked","Female","tile","15","F_park.wav","space","454.087812454","402","341747.984526","334024.84432","334792.297164","335542.432451","336309.59324","337076.891643","337844.111324","338611.339117","342514.549484","343264.685071","329421.254009","330188.485409","330955.669934","331722.983362","332490.197033","333257.652583","342517.97724","Mapping"
"Blocked","Female","tile","15","F_lash.wav","None","740.75553054","402","341747.984526","334024.84432","334792.297164","335542.432451","336309.59324","337076.891643","337844.111324","338611.339117","342514.549484","343264.685071","344031.856075","330188.485409","330955.669934","331722.983362","332490.197033","333257.652583","343267.610141","Mapping"
"Blocked","Female","tile","15","F_jolt.wav","None","738.795267418","402","341747.984526","334024.84432","334792.297164","335542.432451","336309.59324","337076.891643","337844.111324","338611.339117","342514.549484","343264.685071","344031.856075","344799.146366","330955.669934","331722.983362","332490.197033","333257.652583","344035.105953","Mapping"
"Blocked","Female","tile","15","F_park.wav","None","736.755680759","402","341747.984526","334024.84432","334792.297164","335542.432451","336309.59324","337076.891643","337844.111324","338611.339117","342514.549484","343264.685071","344031.856075","344799.146366","345566.421033","331722.983362","332490.197033","333257.652583","344802.853559","Mapping"
"Blocked","Female","tile","15","F_bluff.wav","None","737.557032611","402","341747.984526","334024.84432","334792.297164","335542.432451","336309.59324","337076.891643","337844.111324","338611.339117","342514.549484","343264.685071","344031.856075","344799.146366","345566.421033","346333.520826","332490.197033","333257.652583","345569.238836","Mapping"
"Blocked","Female","tile","15","F_tile.wav","None","719.10189651","402","341747.984526","334024.84432","334792.297164","335542.432451","336309.59324","337076.891643","337844.111324","338611.339117","342514.549484","343264.685071","344031.856075","344799.146366","345566.421033","346333.520826","347100.74231","333257.652583","346353.605409","Mapping"
"Blocked","Female","tile","15","F_dime.wav","space","481.767962221","402","341747.984526","334024.84432","334792.297164","335542.432451","336309.59324","337076.891643","337844.111324","338611.339117","342514.549484","343264.685071","344031.856075","344799.146366","345566.421033","346333.520826","347100.74231","347868.027794","347103.32124","Mapping"
"Blocked","Female","tile","15","F_tile.wav","None","732.272075024","402","341747.984526","348636.196056","334792.297164","335542.432451","336309.59324","337076.891643","337844.111324","338611.339117","342514.549484","343264.685071","344031.856075","344799.146366","345566.421033","346333.520826","347100.74231","347868.027794","347871.16169","Mapping"
"Blocked","Female","tile","15","F_romp.wav","space","445.060506929","402","341747.984526","348636.196056","349403.265202","335542.432451","336309.59324","337076.891643","337844.111324","338611.339117","342514.549484","343264.685071","344031.856075","344799.146366","345566.421033","346333.520826","347100.74231","347868.027794","348640.019831","Mapping"
"Blocked","Female","tile","15","F_reek.wav","space","320.193502121","402","341747.984526","348636.196056","349403.265202","350170.01585","336309.59324","337076.891643","337844.111324","338611.339117","342514.549484","343264.685071","344031.856075","344799.146366","345566.421033","346333.520826","347100.74231","347868.027794","349406.863324","Mapping"
"Blocked","Female","tile","15","F_tile.wav","space","0.0309483148158","402","341747.984526","348636.196056","349403.265202","350170.01585","350920.144827","337076.891643","337844.111324","338611.339117","342514.549484","343264.685071","344031.856075","344799.146366","345566.421033","346333.520826","347100.74231","347868.027794","350173.012733","Mapping"
"Blocked","Female","tile","15","F_reek.wav","space","371.033539996","402","341747.984526","348636.196056","349403.265202","350170.01585","350920.144827","351687.387343","337844.111324","338611.339117","342514.549484","343264.685071","344031.856075","344799.146366","345566.421033","346333.520826","347100.74231","347868.027794","350923.031136","Mapping"
"Blocked","Female","tile","15","F_greet.wav","space","0.031849835068","402","341747.984526","348636.196056","349403.265202","350170.01585","350920.144827","351687.387343","352454.676432","338611.339117","342514.549484","343264.685071","344031.856075","344799.146366","345566.421033","346333.520826","347100.74231","347868.027794","351690.286273","Mapping"
"Blocked","Female","tile","15","F_knife.wav","None","735.423098784","402","341747.984526","348636.196056","349403.265202","350170.01585","350920.144827","351687.387343","352454.676432","353221.921052","342514.549484","343264.685071","344031.856075","344799.146366","345566.421033","346333.520826","347100.74231","347868.027794","352457.870122","Mapping"
"Blocked","Female","ball","1","F_jaw.wav","None","734.238046687","402","356358.504864","348636.196056","349403.265202","350170.01585","350920.144827","351687.387343","352454.676432","353221.921052","342514.549484","343264.685071","344031.856075","344799.146366","345566.421033","346333.520826","347100.74231","347868.027794","353224.797446","Mapping"
"Blocked","Female","ball","1","F_romp.wav","None","726.984112523","402","356358.504864","348636.196056","349403.265202","350170.01585","350920.144827","351687.387343","352454.676432","353221.921052","357125.520226","343264.685071","344031.856075","344799.146366","345566.421033","346333.520826","347100.74231","347868.027794","356362.302498","Mapping"
"Blocked","Female","ball","1","F_romp.wav","None","725.993464701","402","356358.504864","348636.196056","349403.265202","350170.01585","350920.144827","351687.387343","352454.676432","353221.921052","357125.520226","357875.730329","344031.856075","344799.146366","345566.421033","346333.520826","347100.74231","347868.027794","357129.119249","Mapping"
"Blocked","Female","ball","1","F_lash.wav","None","741.677671205","402","356358.504864","348636.196056","349403.265202","350170.01585","350920.144827","351687.387343","352454.676432","353221.921052","357125.520226","357875.730329","358642.758611","344799.146366","345566.421033","346333.520826","347100.74231","347868.027794","357878.870536","Mapping"
"Blocked","Female","ball","1","F_park.wav","None","740.558722988","402","356358.504864","348636.196056","349403.265202","350170.01585","350920.144827","351687.387343","352454.676432","353221.921052","357125.520226","357875.730329","358642.758611","359409.668207","345566.421033","346333.520826","347100.74231","347868.027794","358645.774723","Mapping"
"Blocked","Female","ball","1","F_greet.wav","None","739.469821565","402","356358.504864","348636.196056","349403.265202","350170.01585","350920.144827","351687.387343","352454.676432","353221.921052","357125.520226","357875.730329","358642.758611","359409.668207","360176.945277","346333.520826","347100.74231","347868.027794","359412.806911","Mapping"
"Blocked","Female","ball","1","F_ball.wav","None","737.901370972","402","356358.504864","348636.196056","349403.265202","350170.01585","350920.144827","351687.387343","352454.676432","353221.921052","357125.520226","357875.730329","358642.758611","359409.668207","360176.945277","360944.126798","347100.74231","347868.027794","360179.819568","Mapping"
"Blocked","Female","ball","1","F_reek.wav","space","444.827943575","402","356358.504864","348636.196056","349403.265202","350170.01585","350920.144827","351687.387343","352454.676432","353221.921052","357125.520226","357875.730329","358642.758611","359409.668207","360176.945277","360944.126798","361711.408376","347868.027794","360947.235756","Mapping"
"Blocked","Female","ball","1","F_ball.wav","None","734.043342527","402","356358.504864","348636.196056","349403.265202","350170.01585","350920.144827","351687.387343","352454.676432","353221.921052","357125.520226","357875.730329","358642.758611","359409.668207","360176.945277","360944.126798","361711.408376","362478.57908","361714.340357","Mapping"
"Blocked","Female","ball","1","F_lash.wav","space","407.667681109","402","356358.504864","363247.053521","349403.265202","350170.01585","350920.144827","351687.387343","352454.676432","353221.921052","357125.520226","357875.730329","358642.758611","359409.668207","360176.945277","360944.126798","361711.408376","362478.57908","362481.431737","Mapping"
"Blocked","Female","ball","1","F_gnash.wav","None","727.47898614","402","356358.504864","363247.053521","364013.859455","350170.01585","350920.144827","351687.387343","352454.676432","353221.921052","357125.520226","357875.730329","358642.758611","359409.668207","360176.945277","360944.126798","361711.408376","362478.57908","363250.793765","Mapping"
"Blocked","Female","ball","1","F_ball.wav","None","726.450178307","402","356358.504864","363247.053521","364013.859455","364780.646761","350920.144827","351687.387343","352454.676432","353221.921052","357125.520226","357875.730329","358642.758611","359409.668207","360176.945277","360944.126798","361711.408376","362478.57908","364017.526686","Mapping"
"Blocked","Female","ball","1","F_priest.wav","space","462.414422538","402","356358.504864","363247.053521","364013.859455","364780.646761","365530.762817","351687.387343","352454.676432","353221.921052","357125.520226","357875.730329","358642.758611","359409.668207","360176.945277","360944.126798","361711.408376","362478.57908","364783.645146","Mapping"
"Blocked","Female","ball","1","F_lash.wav","None","740.35650678","402","356358.504864","363247.053521","364013.859455","364780.646761","365530.762817","366298.024564","352454.676432","353221.921052","357125.520226","357875.730329","358642.758611","359409.668207","360176.945277","360944.126798","361711.408376","362478.57908","365533.485071","Mapping"
"Blocked","Female","ball","1","F_ball.wav","None","738.930178341","402","356358.504864","363247.053521","364013.859455","364780.646761","365530.762817","366298.024564","367065.253559","353221.921052","357125.520226","357875.730329","358642.758611","359409.668207","360176.945277","360944.126798","361711.408376","362478.57908","366300.813221","Mapping"
"Blocked","Female","ball","1","F_gnash.wav","space","363.033239264","402","356358.504864","363247.053521","364013.859455","364780.646761","365530.762817","366298.024564","367065.253559","367832.917334","357125.520226","357875.730329","358642.758611","359409.668207","360176.945277","360944.126798","361711.408376","362478.57908","367068.04462","Mapping"
"Blocked","Female","done","21","F_knife.wav","None","733.747680672","402","370969.013484","363247.053521","364013.859455","364780.646761","365530.762817","366298.024564","367065.253559","367832.917334","357125.520226","357875.730329","358642.758611","359409.668207","360176.945277","360944.126798","361711.408376","362478.57908","367836.479399","Mapping"
"Blocked","Female","done","21","F_dime.wav","None","726.858215872","402","370969.013484","363247.053521","364013.859455","364780.646761","365530.762817","366298.024564","367065.253559","367832.917334","371736.193803","357875.730329","358642.758611","359409.668207","360176.945277","360944.126798","361711.408376","362478.57908","370972.943624","Mapping"
"Blocked","Female","done","21","F_lash.wav","space","400.057389401","402","370969.013484","363247.053521","364013.859455","364780.646761","365530.762817","366298.024564","367065.253559","367832.917334","371736.193803","372485.742272","358642.758611","359409.668207","360176.945277","360944.126798","361711.408376","362478.57908","371740.031099","Mapping"
"Blocked","Female","done","21","F_depth.wav","None","742.148506921","402","370969.013484","363247.053521","364013.859455","364780.646761","365530.762817","366298.024564","367065.253559","367832.917334","371736.193803","372485.742272","373253.092958","359409.668207","360176.945277","360944.126798","361711.408376","362478.57908","372488.599437","Mapping"
"Blocked","Female","done","21","F_park.wav","None","740.687023383","402","370969.013484","363247.053521","364013.859455","364780.646761","365530.762817","366298.024564","367065.253559","367832.917334","371736.193803","372485.742272","373253.092958","374020.32586","360176.945277","360944.126798","361711.408376","362478.57908","373255.838047","Mapping"
"Blocked","Female","done","21","F_park.wav","None","738.986065611","402","370969.013484","363247.053521","364013.859455","364780.646761","365530.762817","366298.024564","367065.253559","367832.917334","371736.193803","372485.742272","373253.092958","374020.32586","374787.553653","360944.126798","361711.408376","362478.57908","374023.239512","Mapping"
"Blocked","Female","done","21","F_done.wav","None","737.060657237","402","370969.013484","363247.053521","364013.859455","364780.646761","365530.762817","366298.024564","367065.253559","367832.917334","371736.193803","372485.742272","373253.092958","374020.32586","374787.553653","375554.794366","361711.408376","362478.57908","374790.454385","Mapping"
"Blocked","Female","done","21","F_cling.wav","space","389.593840577","402","370969.013484","363247.053521","364013.859455","364780.646761","365530.762817","366298.024564","367065.253559","367832.917334","371736.193803","372485.742272","373253.092958","374020.32586","374787.553653","375554.794366","376321.892357","362478.57908","375557.465239","Mapping"
"Blocked","Female","done","21","F_done.wav","None","732.999511994","402","370969.013484","363247.053521","364013.859455","364780.646761","365530.762817","366298.024564","367065.253559","367832.917334","371736.193803","372485.742272","373253.092958","374020.32586","374787.553653","375554.794366","376321.892357","377089.166423","376324.800902","Mapping"
"Blocked","Female","done","21","F_priest.wav","space","415.073652752","402","370969.013484","377856.638498","364013.859455","364780.646761","365530.762817","366298.024564","367065.253559","367832.917334","371736.193803","372485.742272","373253.092958","374020.32586","374787.553653","375554.794366","376321.892357","377089.166423","377091.990235","Mapping"
"Blocked","Female","done","21","F_done.wav","None","728.781821672","402","370969.013484","377856.638498","378624.275531","364780.646761","365530.762817","366298.024564","367065.253559","367832.917334","371736.193803","372485.742272","373253.092958","374020.32586","374787.553653","375554.794366","376321.892357","377089.166423","377859.672038","Mapping"
"Blocked","Female","done","21","F_greet.wav","space","632.768601179","402","370969.013484","377856.638498","378624.275531","379374.289127","365530.762817","366298.024564","367065.253559","367832.917334","371736.193803","372485.742272","373253.092958","374020.32586","374787.553653","375554.794366","376321.892357","377089.166423","378628.292207","Mapping"
"Blocked","Female","done","21","F_bluff.wav","None","741.641915403","402","370969.013484","377856.638498","378624.275531","379374.289127","380141.340545","366298.024564","367065.253559","367832.917334","371736.193803","372485.742272","373253.092958","374020.32586","374787.553653","375554.794366","376321.892357","377089.166423","379377.158611","Mapping"
"Blocked","Female","done","21","F_done.wav","None","740.371830761","402","370969.013484","377856.638498","378624.275531","379374.289127","380141.340545","380908.642254","367065.253559","367832.917334","371736.193803","372485.742272","373253.092958","374020.32586","374787.553653","375554.794366","376321.892357","377089.166423","380143.98708","Mapping"
"Blocked","Female","done","21","F_knife.wav","space","554.510122165","402","370969.013484","377856.638498","378624.275531","379374.289127","380141.340545","380908.642254","381676.27508","367832.917334","371736.193803","372485.742272","373253.092958","374020.32586","374787.553653","375554.794366","376321.892357","377089.166423","380911.555606","Mapping"
"Blocked","Female","done","21","F_cling.wav","None","734.870234504","402","370969.013484","377856.638498","378624.275531","379374.289127","380141.340545","380908.642254","381676.27508","382443.430761","371736.193803","372485.742272","373253.092958","374020.32586","374787.553653","375554.794366","376321.892357","377089.166423","381679.882216","Mapping"
"Blocked","Female","ball","2","F_reek.wav","None","733.092957642","402","385579.857428","377856.638498","378624.275531","379374.289127","380141.340545","380908.642254","381676.27508","382443.430761","371736.193803","372485.742272","373253.092958","374020.32586","374787.553653","375554.794366","376321.892357","377089.166423","382447.064338","Mapping"
"Blocked","Female","ball","2","F_ball.wav","None","727.573934477","402","385579.857428","377856.638498","378624.275531","379374.289127","380141.340545","380908.642254","381676.27508","382443.430761","386347.14231","372485.742272","373253.092958","374020.32586","374787.553653","375554.794366","376321.892357","377089.166423","385583.710047","Mapping"
"Blocked","Female","ball","2","F_lash.wav","None","726.333295926","402","385579.857428","377856.638498","378624.275531","379374.289127","380141.340545","380908.642254","381676.27508","382443.430761","386347.14231","387114.004432","373253.092958","374020.32586","374787.553653","375554.794366","376321.892357","377089.166423","386351.014761","Mapping"
"Blocked","Female","ball","2","F_cad.wav","space","0.0369576737285","402","385579.857428","377856.638498","378624.275531","379374.289127","380141.340545","380908.642254","381676.27508","382443.430761","386347.14231","387114.004432","387863.656263","374020.32586","374787.553653","375554.794366","376321.892357","377089.166423","387117.952301","Mapping"
"Blocked","Female","ball","2","F_ball.wav","None","741.944788489","402","385579.857428","377856.638498","378624.275531","379374.289127","380141.340545","380908.642254","381676.27508","382443.430761","386347.14231","387114.004432","387863.656263","388630.910798","374787.553653","375554.794366","376321.892357","377089.166423","387866.672977","Mapping"
"Blocked","Female","ball","2","F_priest.wav","space","318.979605567","402","385579.857428","377856.638498","378624.275531","379374.289127","380141.340545","380908.642254","381676.27508","382443.430761","386347.14231","387114.004432","387863.656263","388630.910798","389398.029822","375554.794366","376321.892357","377089.166423","388634.063925","Mapping"
"Blocked","Female","ball","2","F_ball.wav","None","737.790497486","402","385579.857428","377856.638498","378624.275531","379374.289127","380141.340545","380908.642254","381676.27508","382443.430761","386347.14231","387114.004432","387863.656263","388630.910798","389398.029822","390165.349559","376321.892357","377089.166423","389401.386066","Mapping"
"Blocked","Female","ball","2","F_greet.wav","space","327.548394445","402","385579.857428","377856.638498","378624.275531","379374.289127","380141.340545","380908.642254","381676.27508","382443.430761","386347.14231","387114.004432","387863.656263","388630.910798","389398.029822","390165.349559","390932.632038","377089.166423","390168.524019","Mapping"
"Blocked","Female","ball","2","F_depth.wav","None","734.517783858","402","385579.857428","377856.638498","378624.275531","379374.289127","380141.340545","380908.642254","381676.27508","382443.430761","386347.14231","387114.004432","387863.656263","388630.910798","389398.029822","390165.349559","390932.632038","391699.787719","390935.46216","Mapping"
"Blocked","Female","ball","2","F_lash.wav","None","733.274140861","402","385579.857428","392466.954216","378624.275531","379374.289127","380141.340545","380908.642254","381676.27508","382443.430761","386347.14231","387114.004432","387863.656263","388630.910798","389398.029822","390165.349559","390932.632038","391699.787719","391702.754254","Mapping"
"Blocked","Female","ball","2","F_greet.wav","None","732.177126687","402","385579.857428","392466.954216","393234.484282","379374.289127","380141.340545","380908.642254","381676.27508","382443.430761","386347.14231","387114.004432","387863.656263","388630.910798","389398.029822","390165.349559","390932.632038","391699.787719","392469.814986","Mapping"
"Blocked","Female","ball","2","F_greet.wav","None","730.204845313","402","385579.857428","392466.954216","393234.484282","394001.737315","380141.340545","380908.642254","381676.27508","382443.430761","386347.14231","387114.004432","387863.656263","388630.910798","389398.029822","390165.349559","390932.632038","391699.787719","393237.756094","Mapping"
"Blocked","Female","ball","2","F_lash.wav","None","728.554366156","402","385579.857428","392466.954216","393234.484282","394001.737315","394768.930254","380908.642254","381676.27508","382443.430761","386347.14231","387114.004432","387863.656263","388630.910798","389398.029822","390165.349559","390932.632038","391699.787719","394005.127812","Mapping"
"Blocked","Female","ball","2","F_reek.wav","None","727.57363366","402","385579.857428","392466.954216","393234.484282","394001.737315","394768.930254","395536.292657","381676.27508","382443.430761","386347.14231","387114.004432","387863.656263","388630.910798","389398.029822","390165.349559","390932.632038","391699.787719","394771.913315","Mapping"
"Blocked","Female","ball","2","F_ball.wav","None","725.790948141","402","385579.857428","392466.954216","393234.484282","394001.737315","394768.930254","395536.292657","396286.422535","382443.430761","386347.14231","387114.004432","387863.656263","388630.910798","389398.029822","390165.349559","390932.632038","391699.787719","395539.594517","Mapping"
"Blocked","Female","ball","2","F_cling.wav","space","371.276920196","402","385579.857428","392466.954216","393234.484282","394001.737315","394768.930254","395536.292657","396286.422535","397053.653935","386347.14231","387114.004432","387863.656263","388630.910798","389398.029822","390165.349559","390932.632038","391699.787719","396289.801916","Mapping"
"Blocked","Female","cave","9","F_bluff.wav","None","738.797971979","402","400189.802967","392466.954216","393234.484282","394001.737315","394768.930254","395536.292657","396286.422535","397053.653935","386347.14231","387114.004432","387863.656263","388630.910798","389398.029822","390165.349559","390932.632038","391699.787719","397056.918836","Mapping"
"Blocked","Female","cave","9","F_gnash.wav","None","727.255736943","402","400189.802967","392466.954216","393234.484282","394001.737315","394768.930254","395536.292657","396286.422535","397053.653935","400956.805709","387114.004432","387863.656263","388630.910798","389398.029822","390165.349559","390932.632038","391699.787719","400193.854799","Mapping"
"Blocked","Female","cave","9","F_cave.wav","None","726.996131241","402","400189.802967","392466.954216","393234.484282","394001.737315","394768.930254","395536.292657","396286.422535","397053.653935","400956.805709","401723.903099","387863.656263","388630.910798","389398.029822","390165.349559","390932.632038","391699.787719","400960.231362","Mapping"
"Blocked","Female","cave","9","F_reek.wav","space","352.86715487","402","400189.802967","392466.954216","393234.484282","394001.737315","394768.930254","395536.292657","396286.422535","397053.653935","400956.805709","401723.903099","402474.248714","388630.910798","389398.029822","390165.349559","390932.632038","391699.787719","401727.240113","Mapping"
"Blocked","Female","cave","9","F_cave.wav","None","740.920488257","402","400189.802967","392466.954216","393234.484282","394001.737315","394768.930254","395536.292657","396286.422535","397053.653935","400956.805709","401723.903099","402474.248714","403241.499643","389398.029822","390165.349559","390932.632038","391699.787719","402477.594141","Mapping"
"Blocked","Female","cave","9","F_jaw.wav","space","381.196920294","402","400189.802967","392466.954216","393234.484282","394001.737315","394768.930254","395536.292657","396286.422535","397053.653935","400956.805709","401723.903099","402474.248714","403241.499643","404008.929352","390165.349559","390932.632038","391699.787719","403244.868807","Mapping"
"Blocked","Female","cave","9","F_bluff.wav","None","736.358460505","402","400189.802967","392466.954216","393234.484282","394001.737315","394768.930254","395536.292657","396286.422535","397053.653935","400956.805709","401723.903099","402474.248714","403241.499643","404008.929352","404776.248188","390932.632038","391699.787719","404012.558423","Mapping"
"Blocked","Female","cave","9","F_cave.wav","None","735.789971892","402","400189.802967","392466.954216","393234.484282","394001.737315","394768.930254","395536.292657","396286.422535","397053.653935","400956.805709","401723.903099","402474.248714","403241.499643","404008.929352","404776.248188","405543.090479","391699.787719","404779.331606","Mapping"
"Blocked","Female","cave","9","F_lash.wav","space","424.093446229","402","400189.802967","392466.954216","393234.484282","394001.737315","394768.930254","395536.292657","396286.422535","397053.653935","400956.805709","401723.903099","402474.248714","403241.499643","404008.929352","404776.248188","405543.090479","406310.327587","405545.971981","Mapping"
"Blocked","Female","cave","9","F_park.wav","None","732.606497593","402","400189.802967","407077.637108","393234.484282","394001.737315","394768.930254","395536.292657","396286.422535","397053.653935","400956.805709","401723.903099","402474.248714","403241.499643","404008.929352","404776.248188","405543.090479","406310.327587","406313.628244","Mapping"
"Blocked","Female","cave","9","F_cave.wav","None","731.931643095","402","400189.802967","407077.637108","407845.050592","394001.737315","394768.930254","395536.292657","396286.422535","397053.653935","400956.805709","401723.903099","402474.248714","403241.499643","404008.929352","404776.248188","405543.090479","406310.327587","407080.315794","Mapping"
"Blocked","Female","cave","9","F_priest.wav","space","437.941784039","402","400189.802967","407077.637108","407845.050592","408612.412695","394768.930254","395536.292657","396286.422535","397053.653935","400956.805709","401723.903099","402474.248714","403241.499643","404008.929352","404776.248188","405543.090479","406310.327587","407848.155643","Mapping"
"Blocked","Female","cave","9","F_lash.wav","None","727.86659142","402","400189.802967","407077.637108","407845.050592","408612.412695","409379.553352","395536.292657","396286.422535","397053.653935","400956.805709","401723.903099","402474.248714","403241.499643","404008.929352","404776.248188","405543.090479","406310.327587","408615.508432","Mapping"
"Blocked","Female","cave","9","F_bluff.wav","None","726.73292039","402","400189.802967","407077.637108","407845.050592","408612.412695","409379.553352","410146.688601","396286.422535","397053.653935","400956.805709","401723.903099","402474.248714","403241.499643","404008.929352","404776.248188","405543.090479","406310.327587","409382.765071","Mapping"
"Blocked","Female","cave","9","F_greet.wav","None","726.162628736","402","400189.802967","407077.637108","407845.050592","408612.412695","409379.553352","410146.688601","410896.961202","397053.653935","400956.805709","401723.903099","402474.248714","403241.499643","404008.929352","404776.248188","405543.090479","406310.327587","410149.656939","Mapping"
"Blocked","Female","cave","9","F_gnash.wav","None","741.553577129","402","400189.802967","407077.637108","407845.050592","408612.412695","409379.553352","410146.688601","410896.961202","411664.149334","400956.805709","401723.903099","402474.248714","403241.499643","404008.929352","404776.248188","405543.090479","406310.327587","410899.91031","Mapping"
"Blocked","Female","cave","7","F_knife.wav","None","740.603493061","402","414800.866554","407077.637108","407845.050592","408612.412695","409379.553352","410146.688601","410896.961202","411664.149334","400956.805709","401723.903099","402474.248714","403241.499643","404008.929352","404776.248188","405543.090479","406310.327587","411667.147418","Mapping"
"Blocked","Female","cave","7","F_cling.wav","None","726.907192729","402","414800.866554","407077.637108","407845.050592","408612.412695","409379.553352","410146.688601","410896.961202","411664.149334","415567.939005","401723.903099","402474.248714","403241.499643","404008.929352","404776.248188","405543.090479","406310.327587","414804.385953","Mapping"
"Blocked","Female","cave","7","F_greet.wav","None","725.941183046","402","414800.866554","407077.637108","407845.050592","408612.412695","409379.553352","410146.688601","410896.961202","411664.149334","415567.939005","416334.570967","402474.248714","403241.499643","404008.929352","404776.248188","405543.090479","406310.327587","415571.447587","Mapping"
"Blocked","Female","cave","7","F_cave.wav","None","726.434553973","402","414800.866554","407077.637108","407845.050592","408612.412695","409379.553352","410146.688601","410896.961202","411664.149334","415567.939005","416334.570967","417084.821634","403241.499643","404008.929352","404776.248188","405543.090479","406310.327587","416337.480714","Mapping"
"Blocked","Female","cave","7","F_knife.wav","space","403.404319193","402","414800.866554","407077.637108","407845.050592","408612.412695","409379.553352","410146.688601","410896.961202","411664.149334","415567.939005","416334.570967","417084.821634","417852.379043","404008.929352","404776.248188","405543.090479","406310.327587","417087.663174","Mapping"
"Blocked","Female","cave","7","F_jaw.wav","None","739.382084459","402","414800.866554","407077.637108","407845.050592","408612.412695","409379.553352","410146.688601","410896.961202","411664.149334","415567.939005","416334.570967","417084.821634","417852.379043","418619.608338","404776.248188","405543.090479","406310.327587","417855.542986","Mapping"
"Blocked","Female","cave","7","F_cad.wav","None","738.024563063","402","414800.866554","407077.637108","407845.050592","408612.412695","409379.553352","410146.688601","410896.961202","411664.149334","415567.939005","416334.570967","417084.821634","417852.379043","418619.608338","419386.541672","405543.090479","406310.327587","418623.144564","Mapping"
"Blocked","Female","cave","7","F_jolt.wav","None","737.410103437","402","414800.866554","407077.637108","407845.050592","408612.412695","409379.553352","410146.688601","410896.961202","411664.149334","415567.939005","416334.570967","417084.821634","417852.379043","418619.608338","419386.541672","420153.765559","406310.327587","419389.882592","Mapping"
"Blocked","Female","cave","7","F_gnash.wav","None","736.395417713","402","414800.866554","407077.637108","407845.050592","408612.412695","409379.553352","410146.688601","410896.961202","411664.149334","415567.939005","416334.570967","417084.821634","417852.379043","418619.608338","419386.541672","420153.765559","420920.931155","420157.104376","Mapping"
"Blocked","Female","cave","7","F_cave.wav","space","134.250966832","402","414800.866554","421688.190798","407845.050592","408612.412695","409379.553352","410146.688601","410896.961202","411664.149334","415567.939005","416334.570967","417084.821634","417852.379043","418619.608338","419386.541672","420153.765559","420920.931155","420923.813559","Mapping"
"Blocked","Female","cave","7","F_greet.wav","None","733.261220623","402","414800.866554","421688.190798","422455.715155","408612.412695","409379.553352","410146.688601","410896.961202","411664.149334","415567.939005","416334.570967","417084.821634","417852.379043","418619.608338","419386.541672","420153.765559","420920.931155","421691.575286","Mapping"
"Blocked","Female","cave","7","F_cave.wav","None","731.605934445","402","414800.866554","421688.190798","422455.715155","423223.026479","409379.553352","410146.688601","410896.961202","411664.149334","415567.939005","416334.570967","417084.821634","417852.379043","418619.608338","419386.541672","420153.765559","420920.931155","422459.415737","Mapping"
"Blocked","Female","cave","7","F_cling.wav","space","357.029559091","402","414800.866554","421688.190798","422455.715155","423223.026479","423990.055362","410146.688601","410896.961202","411664.149334","415567.939005","416334.570967","417084.821634","417852.379043","418619.608338","419386.541672","420153.765559","420920.931155","423226.11831","Mapping"
"Blocked","Female","cave","7","F_cave.wav","None","728.990647942","402","414800.866554","421688.190798","422455.715155","423223.026479","423990.055362","424757.530442","410896.961202","411664.149334","415567.939005","416334.570967","417084.821634","417852.379043","418619.608338","419386.541672","420153.765559","420920.931155","423993.051643","Mapping"
"Blocked","Female","cave","7","F_greet.wav","space","400.859042071","402","414800.866554","421688.190798","422455.715155","423223.026479","423990.055362","424757.530442","425507.555756","411664.149334","415567.939005","416334.570967","417084.821634","417852.379043","418619.608338","419386.541672","420153.765559","420920.931155","424760.194704","Mapping"
"Blocked","Female","cave","7","F_jaw.wav","None","742.202291265","402","414800.866554","421688.190798","422455.715155","423223.026479","423990.055362","424757.530442","425507.555756","426274.82201","415567.939005","416334.570967","417084.821634","417852.379043","418619.608338","419386.541672","420153.765559","420920.931155","425510.537315","Mapping"
"Blocked","Female","cave","10","F_park.wav","None","741.169877816","402","429411.378779","421688.190798","422455.715155","423223.026479","423990.055362","424757.530442","425507.555756","426274.82201","415567.939005","416334.570967","417084.821634","417852.379043","418619.608338","419386.541672","420153.765559","420920.931155","426277.841127","Mapping"
"Blocked","Female","cave","10","F_cave.wav","None","727.458553854","402","429411.378779","421688.190798","422455.715155","423223.026479","423990.055362","424757.530442","425507.555756","426274.82201","430178.039887","416334.570967","417084.821634","417852.379043","418619.608338","419386.541672","420153.765559","420920.931155","429414.877747","Mapping"
"Blocked","Female","cave","10","F_gnash.wav","space","471.175511368","402","429411.378779","421688.190798","422455.715155","423223.026479","423990.055362","424757.530442","425507.555756","426274.82201","430178.039887","430928.28124","417084.821634","417852.379043","418619.608338","419386.541672","420153.765559","420920.931155","430180.890742","Mapping"
"Blocked","Female","cave","10","F_jolt.wav","None","742.596206255","402","429411.378779","421688.190798","422455.715155","423223.026479","423990.055362","424757.530442","425507.555756","426274.82201","430178.039887","430928.28124","431695.439024","417852.379043","418619.608338","419386.541672","420153.765559","420920.931155","430931.025728","Mapping"
"Blocked","Female","cave","10","F_reek.wav","None","741.531943437","402","429411.378779","421688.190798","422455.715155","423223.026479","423990.055362","424757.530442","425507.555756","426274.82201","430178.039887","430928.28124","431695.439024","432462.574272","418619.608338","419386.541672","420153.765559","420920.931155","431698.248113","Mapping"
"Blocked","Female","cave","10","F_greet.wav","None","740.491417702","402","429411.378779","421688.190798","422455.715155","423223.026479","423990.055362","424757.530442","425507.555756","426274.82201","430178.039887","430928.28124","431695.439024","432462.574272","433229.832113","419386.541672","420153.765559","420920.931155","432465.67692","Mapping"
"Blocked","Female","cave","10","F_cave.wav","None","739.34152117","402","429411.378779","421688.190798","422455.715155","423223.026479","423990.055362","424757.530442","425507.555756","426274.82201","430178.039887","430928.28124","431695.439024","432462.574272","433229.832113","433997.164169","420153.765559","420920.931155","433232.669446","Mapping"
"Blocked","Female","cave","10","F_cling.wav","space","384.07722069","402","429411.378779","421688.190798","422455.715155","423223.026479","423990.055362","424757.530442","425507.555756","426274.82201","430178.039887","430928.28124","431695.439024","432462.574272","433229.832113","433997.164169","434764.313841","420920.931155","434000.02554","Mapping"
"Blocked","Female","cave","10","F_gnash.wav","None","736.000601202","402","429411.378779","421688.190798","422455.715155","423223.026479","423990.055362","424757.530442","425507.555756","426274.82201","430178.039887","430928.28124","431695.439024","432462.574272","433229.832113","433997.164169","434764.313841","435531.489352","434767.073953","Mapping"
"Blocked","Female","cave","10","F_cave.wav","None","734.702873044","402","429411.378779","436298.770629","422455.715155","423223.026479","423990.055362","424757.530442","425507.555756","426274.82201","430178.039887","430928.28124","431695.439024","432462.574272","433229.832113","433997.164169","434764.313841","435531.489352","435534.524695","Mapping"
"Blocked","Female","cave","10","F_priest.wav","space","454.380169045","402","429411.378779","436298.770629","437066.008338","423223.026479","423990.055362","424757.530442","425507.555756","426274.82201","430178.039887","430928.28124","431695.439024","432462.574272","433229.832113","433997.164169","434764.313841","435531.489352","436301.689089","Mapping"
"Blocked","Female","cave","10","F_romp.wav","None","731.795831118","402","429411.378779","436298.770629","437066.008338","437833.44616","423990.055362","424757.530442","425507.555756","426274.82201","430178.039887","430928.28124","431695.439024","432462.574272","433229.832113","433997.164169","434764.313841","435531.489352","437068.997709","Mapping"
"Blocked","Female","cave","10","F_cave.wav","None","730.470760725","402","429411.378779","436298.770629","437066.008338","437833.44616","438600.624977","424757.530442","425507.555756","426274.82201","430178.039887","430928.28124","431695.439024","432462.574272","433229.832113","433997.164169","434764.313841","435531.489352","437836.509146","Mapping"
"Blocked","Female","cave","10","F_greet.wav","space","315.051868558","402","429411.378779","436298.770629","437066.008338","437833.44616","438600.624977","439367.984676","425507.555756","426274.82201","430178.039887","430928.28124","431695.439024","432462.574272","433229.832113","433997.164169","434764.313841","435531.489352","438604.005259","Mapping"
"Blocked","Female","cave","10","F_greet.wav","None","727.011154871","402","429411.378779","436298.770629","437066.008338","437833.44616","438600.624977","439367.984676","440135.128338","426274.82201","430178.039887","430928.28124","431695.439024","432462.574272","433229.832113","433997.164169","434764.313841","435531.489352","439370.79046","Mapping"
"Blocked","Female","cave","10","F_dime.wav","None","726.140995044","402","429411.378779","436298.770629","437066.008338","437833.44616","438600.624977","439367.984676","440135.128338","440885.336939","430178.039887","430928.28124","431695.439024","432462.574272","433229.832113","433997.164169","434764.313841","435531.489352","440138.230085","Mapping"
"Blocked","Female","done","22","F_bluff.wav","None","742.806535214","402","444021.966122","436298.770629","437066.008338","437833.44616","438600.624977","439367.984676","440135.128338","440885.336939","430178.039887","430928.28124","431695.439024","432462.574272","433229.832113","433997.164169","434764.313841","435531.489352","440888.053784","Mapping"
"Blocked","Female","done","22","F_knife.wav","None","726.850103587","402","444021.966122","436298.770629","437066.008338","437833.44616","438600.624977","439367.984676","440135.128338","440885.336939","444788.602892","430928.28124","431695.439024","432462.574272","433229.832113","433997.164169","434764.313841","435531.489352","444025.86862","Mapping"
"Blocked","Female","done","22","F_lash.wav","space","103.04210335","402","444021.966122","436298.770629","437066.008338","437833.44616","438600.624977","439367.984676","440135.128338","440885.336939","444788.602892","445539.128789","431695.439024","432462.574272","433229.832113","433997.164169","434764.313841","435531.489352","444792.014723","Mapping"
"Blocked","Female","done","22","F_dime.wav","None","742.081502452","402","444021.966122","436298.770629","437066.008338","437833.44616","438600.624977","439367.984676","440135.128338","440885.336939","444788.602892","445539.128789","446306.066629","432462.574272","433229.832113","433997.164169","434764.313841","435531.489352","445542.107944","Mapping"
"Blocked","Female","done","22","F_done.wav","None","741.845633835","402","444021.966122","436298.770629","437066.008338","437833.44616","438600.624977","439367.984676","440135.128338","440885.336939","444788.602892","445539.128789","446306.066629","447073.580169","433229.832113","433997.164169","434764.313841","435531.489352","446308.881728","Mapping"
"Blocked","Female","done","22","F_reek.wav","space","619.917521253","402","444021.966122","436298.770629","437066.008338","437833.44616","438600.624977","439367.984676","440135.128338","440885.336939","444788.602892","445539.128789","446306.066629","447073.580169","447840.466629","433997.164169","434764.313841","435531.489352","447077.157259","Mapping"
"Blocked","Female","done","22","F_done.wav","None","738.659455441","402","444021.966122","436298.770629","437066.008338","437833.44616","438600.624977","439367.984676","440135.128338","440885.336939","444788.602892","445539.128789","446306.066629","447073.580169","447840.466629","448607.685409","434764.313841","435531.489352","447843.275718","Mapping"
"Blocked","Female","done","22","F_gnash.wav","space","522.272150498","402","444021.966122","436298.770629","437066.008338","437833.44616","438600.624977","439367.984676","440135.128338","440885.336939","444788.602892","445539.128789","446306.066629","447073.580169","447840.466629","448607.685409","449374.903287","435531.489352","448610.822009","Mapping"
"Blocked","Female","done","22","F_done.wav","None","734.997934196","402","444021.966122","436298.770629","437066.008338","437833.44616","438600.624977","439367.984676","440135.128338","440885.336939","444788.602892","445539.128789","446306.066629","447073.580169","447840.466629","448607.685409","449374.903287","450142.131981","449377.698254","Mapping"
"Blocked","Female","done","22","F_cad.wav","space","409.03151175","402","444021.966122","450909.376","437066.008338","437833.44616","438600.624977","439367.984676","440135.128338","440885.336939","444788.602892","445539.128789","446306.066629","447073.580169","447840.466629","448607.685409","449374.903287","450142.131981","450145.03662","Mapping"
"Blocked","Female","done","22","F_done.wav","None","731.739042327","402","444021.966122","450909.376","451676.765446","437833.44616","438600.624977","439367.984676","440135.128338","440885.336939","444788.602892","445539.128789","446306.066629","447073.580169","447840.466629","448607.685409","449374.903287","450142.131981","450912.266216","Mapping"
"Blocked","Female","done","22","F_park.wav","space","500.274779275","402","444021.966122","450909.376","451676.765446","452443.936751","438600.624977","439367.984676","440135.128338","440885.336939","444788.602892","445539.128789","446306.066629","447073.580169","447840.466629","448607.685409","449374.903287","450142.131981","451679.84015","Mapping"
"Blocked","Female","done","22","F_cling.wav","None","728.156544268","402","444021.966122","450909.376","451676.765446","452443.936751","453211.408526","439367.984676","440135.128338","440885.336939","444788.602892","445539.128789","446306.066629","447073.580169","447840.466629","448607.685409","449374.903287","450142.131981","452446.792413","Mapping"
"Blocked","Female","done","22","F_dime.wav","None","727.227492724","402","444021.966122","450909.376","451676.765446","452443.936751","453211.408526","453961.509559","440135.128338","440885.336939","444788.602892","445539.128789","446306.066629","447073.580169","447840.466629","448607.685409","449374.903287","450142.131981","453214.225728","Mapping"
"Blocked","Female","done","22","F_lash.wav","None","743.01205622","402","444021.966122","450909.376","451676.765446","452443.936751","453211.408526","453961.509559","454728.819681","440885.336939","444788.602892","445539.128789","446306.066629","447073.580169","447840.466629","448607.685409","449374.903287","450142.131981","453964.399775","Mapping"
"Blocked","Female","done","22","F_cad.wav","None","742.038534954","402","444021.966122","450909.376","451676.765446","452443.936751","453211.408526","453961.509559","454728.819681","455496.034254","444788.602892","445539.128789","446306.066629","447073.580169","447840.466629","448607.685409","449374.903287","450142.131981","454731.815662","Mapping"
"Blocked","Female","tile","13","F_cling.wav","None","741.165971849","402","458632.667944","450909.376","451676.765446","452443.936751","453211.408526","453961.509559","454728.819681","455496.034254","444788.602892","445539.128789","446306.066629","447073.580169","447840.466629","448607.685409","449374.903287","450142.131981","455499.039549","Mapping"
"Blocked","Female","tile","13","F_tile.wav","None","728.039361537","402","458632.667944","450909.376","451676.765446","452443.936751","453211.408526","453961.509559","454728.819681","455496.034254","459399.84015","445539.128789","446306.066629","447073.580169","447840.466629","448607.685409","449374.903287","450142.131981","458635.974611","Mapping"
"Blocked","Female","tile","13","F_depth.wav","space","420.658478979","402","458632.667944","450909.376","451676.765446","452443.936751","453211.408526","453961.509559","454728.819681","455496.034254","459399.84015","460149.323418","446306.066629","447073.580169","447840.466629","448607.685409","449374.903287","450142.131981","459403.408526","Mapping"
"Blocked","Female","tile","13","F_cad.wav","None","742.373257875","402","458632.667944","450909.376","451676.765446","452443.936751","453211.408526","453961.509559","454728.819681","455496.034254","459399.84015","460149.323418","460916.681014","447073.580169","447840.466629","448607.685409","449374.903287","450142.131981","460152.610554","Mapping"
"Blocked","Female","tile","13","F_bluff.wav","None","741.892506834","402","458632.667944","450909.376","451676.765446","452443.936751","453211.408526","453961.509559","454728.819681","455496.034254","459399.84015","460149.323418","460916.681014","461683.873052","447840.466629","448607.685409","449374.903287","450142.131981","460919.577841","Mapping"
"Blocked","Female","tile","13","F_lash.wav","None","740.506140981","402","458632.667944","450909.376","451676.765446","452443.936751","453211.408526","453961.509559","454728.819681","455496.034254","459399.84015","460149.323418","460916.681014","461683.873052","462450.985164","448607.685409","449374.903287","450142.131981","461686.948658","Mapping"
"Blocked","Female","tile","13","F_tile.wav","None","739.657014143","402","458632.667944","450909.376","451676.765446","452443.936751","453211.408526","453961.509559","454728.819681","455496.034254","459399.84015","460149.323418","460916.681014","461683.873052","462450.985164","463218.168489","449374.903287","450142.131981","462453.898216","Mapping"
"Blocked","Female","tile","13","F_reek.wav","space","417.030910961","402","458632.667944","450909.376","451676.765446","452443.936751","453211.408526","453961.509559","454728.819681","455496.034254","459399.84015","460149.323418","460916.681014","461683.873052","462450.985164","463218.168489","463985.724995","450142.131981","463221.063512","Mapping"
"Blocked","Female","tile","13","F_tile.wav","None","735.848262906","402","458632.667944","450909.376","451676.765446","452443.936751","453211.408526","453961.509559","454728.819681","455496.034254","459399.84015","460149.323418","460916.681014","461683.873052","462450.985164","463218.168489","463985.724995","464753.09431","463989.01123","Mapping"
"Blocked","Female","tile","13","F_cad.wav","space","359.466666356","402","458632.667944","465519.894535","451676.765446","452443.936751","453211.408526","453961.509559","454728.819681","455496.034254","459399.84015","460149.323418","460916.681014","461683.873052","462450.985164","463218.168489","463985.724995","464753.09431","464756.60109","Mapping"
"Blocked","Female","tile","13","F_greet.wav","None","733.129614964","402","458632.667944","465519.894535","466287.137653","452443.936751","453211.408526","453961.509559","454728.819681","455496.034254","459399.84015","460149.323418","460916.681014","461683.873052","462450.985164","463218.168489","463985.724995","464753.09431","465522.810892","Mapping"
"Blocked","Female","tile","13","F_reek.wav","None","732.641953044","402","458632.667944","465519.894535","466287.137653","467054.477221","453211.408526","453961.509559","454728.819681","455496.034254","459399.84015","460149.323418","460916.681014","461683.873052","462450.985164","463218.168489","463985.724995","464753.09431","466289.840977","Mapping"
"Blocked","Female","tile","13","F_cad.wav","None","731.4343662","402","458632.667944","465519.894535","466287.137653","467054.477221","467821.941784","453961.509559","454728.819681","455496.034254","459399.84015","460149.323418","460916.681014","461683.873052","462450.985164","463218.168489","463985.724995","464753.09431","467057.548319","Mapping"
"Blocked","Female","tile","13","F_tile.wav","None","730.364995077","402","458632.667944","465519.894535","466287.137653","467054.477221","467821.941784","468589.208639","454728.819681","455496.034254","459399.84015","460149.323418","460916.681014","461683.873052","462450.985164","463218.168489","463985.724995","464753.09431","467824.993352","Mapping"
"Blocked","Female","tile","13","F_jolt.wav","space","346.862873528","402","458632.667944","465519.894535","466287.137653","467054.477221","467821.941784","468589.208639","469356.427718","455496.034254","459399.84015","460149.323418","460916.681014","461683.873052","462450.985164","463218.168489","463985.724995","464753.09431","468592.229258","Mapping"
"Blocked","Female","tile","13","F_bluff.wav","None","727.461258415","402","458632.667944","465519.894535","466287.137653","467054.477221","467821.941784","468589.208639","469356.427718","470123.560864","459399.84015","460149.323418","460916.681014","461683.873052","462450.985164","463218.168489","463985.724995","464753.09431","469359.315831","Mapping"
"Blocked","Female","ball","5","F_gnash.wav","None","726.328487974","402","473243.12308","465519.894535","466287.137653","467054.477221","467821.941784","468589.208639","469356.427718","470123.560864","459399.84015","460149.323418","460916.681014","461683.873052","462450.985164","463218.168489","463985.724995","464753.09431","470126.589897","Mapping"
"Blocked","Female","ball","5","F_bluff.wav","None","726.804732345","402","473243.12308","465519.894535","466287.137653","467054.477221","467821.941784","468589.208639","469356.427718","470123.560864","474009.856","460149.323418","460916.681014","461683.873052","462450.985164","463218.168489","463985.724995","464753.09431","473246.924319","Mapping"
"Blocked","Female","ball","5","F_greet.wav","None","726.801727898","402","473243.12308","465519.894535","466287.137653","467054.477221","467821.941784","468589.208639","469356.427718","470123.560864","474009.856","474776.981334","460916.681014","461683.873052","462450.985164","463218.168489","463985.724995","464753.09431","474013.018441","Mapping"
"Blocked","Female","ball","5","F_park.wav","None","726.400300395","402","473243.12308","465519.894535","466287.137653","467054.477221","467821.941784","468589.208639","469356.427718","470123.560864","474009.856","474776.981334","475527.194441","461683.873052","462450.985164","463218.168489","463985.724995","464753.09431","474779.941559","Mapping"
"Blocked","Female","ball","5","F_jaw.wav","None","742.351924535","402","473243.12308","465519.894535","466287.137653","467054.477221","467821.941784","468589.208639","469356.427718","470123.560864","474009.856","474776.981334","475527.194441","476294.397596","462450.985164","463218.168489","463985.724995","464753.09431","475530.034479","Mapping"
"Blocked","Female","ball","5","F_ball.wav","None","741.850441322","402","473243.12308","465519.894535","466287.137653","467054.477221","467821.941784","468589.208639","469356.427718","470123.560864","474009.856","474776.981334","475527.194441","476294.397596","477061.664751","463218.168489","463985.724995","464753.09431","476297.024901","Mapping"
"Blocked","Female","ball","5","F_bluff.wav","space","302.520188037","402","473243.12308","465519.894535","466287.137653","467054.477221","467821.941784","468589.208639","469356.427718","470123.560864","474009.856","474776.981334","475527.194441","476294.397596","477061.664751","477829.287662","463985.724995","464753.09431","477064.551963","Mapping"
"Blocked","Female","ball","5","F_ball.wav","None","737.397182733","402","473243.12308","465519.894535","466287.137653","467054.477221","467821.941784","468589.208639","469356.427718","470123.560864","474009.856","474776.981334","475527.194441","476294.397596","477061.664751","477829.287662","478596.445446","464753.09431","477832.48646","Mapping"
"Blocked","Female","ball","5","F_gnash.wav","space","377.54261028","402","473243.12308","465519.894535","466287.137653","467054.477221","467821.941784","468589.208639","469356.427718","470123.560864","474009.856","474776.981334","475527.194441","476294.397596","477061.664751","477829.287662","478596.445446","479363.706592","478599.53247","Mapping"
"Blocked","Female","ball","5","F_dime.wav","None","734.254573006","402","473243.12308","480131.004695","466287.137653","467054.477221","467821.941784","468589.208639","469356.427718","470123.560864","474009.856","474776.981334","475527.194441","476294.397596","477061.664751","477829.287662","478596.445446","479363.706592","479367.06554","Mapping"
"Blocked","Female","ball","5","F_knife.wav","None","733.938478865","402","473243.12308","480131.004695","480898.183212","467054.477221","467821.941784","468589.208639","469356.427718","470123.560864","474009.856","474776.981334","475527.194441","476294.397596","477061.664751","477829.287662","478596.445446","479363.706592","480134.110348","Mapping"
"Blocked","Female","ball","5","F_priest.wav","space","222.884958144","402","473243.12308","480131.004695","480898.183212","481666.063624","467821.941784","468589.208639","469356.427718","470123.560864","474009.856","474776.981334","475527.194441","476294.397596","477061.664751","477829.287662","478596.445446","479363.706592","480901.191211","Mapping"
"Blocked","Female","ball","5","F_ball.wav","None","729.429333471","402","473243.12308","480131.004695","480898.183212","481666.063624","482433.092808","468589.208639","469356.427718","470123.560864","474009.856","474776.981334","475527.194441","476294.397596","477061.664751","477829.287662","478596.445446","479363.706592","481669.703512","Mapping"
