"Condition","Talker","Target","Trial","current_stimulus","response_response","response_time_response","subject_nr","time_Audio1","time_Audio10","time_Audio11","time_Audio12","time_Audio13","time_Audio14","time_Audio15","time_Audio16","time_Audio2","time_Audio3","time_Audio4","time_Audio5","time_Audio6","time_Audio7","time_Audio8","time_Audio9","time_response","title"
"Blocked","Female","done","21","F_jaw.wav","NA","NA","445","21645.0744226","NA","NA","NA","NA","NA","NA","NA","NA","NA","NA","NA","NA","NA","NA","NA","NA","Mapping"
"Blocked","Female","done","21","F_bluff.wav","None","732.000322777","445","21645.0744226","NA","NA","NA","NA","NA","NA","NA","22411.4820125","NA","NA","NA","NA","NA","NA","NA","21659.2855688","Mapping"
"Blocked","Female","done","21","F_jaw.wav","None","733.266696203","445","21645.0744226","NA","NA","NA","NA","NA","NA","NA","22411.4820125","23177.8200383","NA","NA","NA","NA","NA","NA","22421.179539","Mapping"
"Blocked","Female","done","21","F_done.wav","None","730.515363899","445","21645.0744226","NA","NA","NA","NA","NA","NA","NA","22411.4820125","23177.8200383","23944.6746926","NA","NA","NA","NA","NA","23187.0705005","Mapping"
"Blocked","Female","done","21","F_park.wav","space","507.552946684","445","21645.0744226","NA","NA","NA","NA","NA","NA","NA","22411.4820125","23177.8200383","23944.6746926","24711.7111407","NA","NA","NA","NA","23953.8327119","Mapping"
"Blocked","Female","done","21","F_done.wav","None","722.894244524","445","21645.0744226","NA","NA","NA","NA","NA","NA","NA","22411.4820125","23177.8200383","23944.6746926","24711.7111407","25461.1441944","NA","NA","NA","24721.144015","Mapping"
"Blocked","Female","done","21","F_lash.wav","space","566.27483086","445","21645.0744226","NA","NA","NA","NA","NA","NA","NA","22411.4820125","23177.8200383","23944.6746926","24711.7111407","25461.1441944","26227.9889551","NA","NA","25471.1122475","Mapping"
"Blocked","Female","done","21","F_romp.wav","None","732.364219633","445","21645.0744226","NA","NA","NA","NA","NA","NA","NA","22411.4820125","23177.8200383","23944.6746926","24711.7111407","25461.1441944","26227.9889551","26994.732307","NA","26238.243921","Mapping"
"Blocked","Female","done","21","F_knife.wav","None","729.808903137","445","21645.0744226","NA","NA","NA","NA","NA","NA","NA","22411.4820125","23177.8200383","23944.6746926","24711.7111407","25461.1441944","26227.9889551","26994.732307","27761.1578289","27004.0953082","Mapping"
"Blocked","Female","done","21","F_cad.wav","None","727.110748623","445","21645.0744226","28528.8528159","NA","NA","NA","NA","NA","NA","22411.4820125","23177.8200383","23944.6746926","24711.7111407","25461.1441944","26227.9889551","26994.732307","27761.1578289","27770.5041347","Mapping"
"Blocked","Female","done","21","F_bluff.wav","None","721.952812131","445","21645.0744226","28528.8528159","29295.3460467","NA","NA","NA","NA","NA","22411.4820125","23177.8200383","23944.6746926","24711.7111407","25461.1441944","26227.9889551","26994.732307","27761.1578289","28538.8391103","Mapping"
"Blocked","Female","done","21","F_done.wav","None","718.974237525","445","21645.0744226","28528.8528159","29295.3460467","30045.0932204","NA","NA","NA","NA","22411.4820125","23177.8200383","23944.6746926","24711.7111407","25461.1441944","26227.9889551","26994.732307","27761.1578289","29304.978647","Mapping"
"Blocked","Female","done","21","F_cling.wav","space","334.855599112","445","21645.0744226","28528.8528159","29295.3460467","30045.0932204","30811.459381","NA","NA","NA","22411.4820125","23177.8200383","23944.6746926","24711.7111407","25461.1441944","26227.9889551","26994.732307","27761.1578289","30054.4280868","Mapping"
"Blocked","Female","done","21","F_done.wav","None","729.455208997","445","21645.0744226","28528.8528159","29295.3460467","30045.0932204","30811.459381","31578.3934928","NA","NA","22411.4820125","23177.8200383","23944.6746926","24711.7111407","25461.1441944","26227.9889551","26994.732307","27761.1578289","30820.9142066","Mapping"
"Blocked","Female","done","21","F_park.wav","space","489.512381304","445","21645.0744226","28528.8528159","29295.3460467","30045.0932204","30811.459381","31578.3934928","32345.2076454","NA","22411.4820125","23177.8200383","23944.6746926","24711.7111407","25461.1441944","26227.9889551","26994.732307","27761.1578289","31587.7394894","Mapping"
"Blocked","Female","done","21","F_gnash.wav","None","721.127628861","445","21645.0744226","28528.8528159","29295.3460467","30045.0932204","30811.459381","31578.3934928","32345.2076454","33094.7108813","22411.4820125","23177.8200383","23944.6746926","24711.7111407","25461.1441944","26227.9889551","26994.732307","27761.1578289","32355.5773145","Mapping"
"Blocked","Female","cave","11","F_jolt.wav","None","736.011845043","445","36245.2624618","28528.8528159","29295.3460467","30045.0932204","30811.459381","31578.3934928","32345.2076454","33094.7108813","22411.4820125","23177.8200383","23944.6746926","24711.7111407","25461.1441944","26227.9889551","26994.732307","27761.1578289","33103.994425","Mapping"
"Blocked","Female","cave","11","F_cling.wav","None","719.238889784","445","36245.2624618","28528.8528159","29295.3460467","30045.0932204","30811.459381","31578.3934928","32345.2076454","33094.7108813","36994.5087748","23177.8200383","23944.6746926","24711.7111407","25461.1441944","26227.9889551","26994.732307","27761.1578289","36255.912551","Mapping"
"Blocked","Female","cave","11","F_dime.wav","None","734.944579159","445","36245.2624618","28528.8528159","29295.3460467","30045.0932204","30811.459381","31578.3934928","32345.2076454","33094.7108813","36994.5087748","37762.0386633","23944.6746926","24711.7111407","25461.1441944","26227.9889551","26994.732307","27761.1578289","37003.6785427","Mapping"
"Blocked","Female","cave","11","F_cave.wav","None","730.070772837","445","36245.2624618","28528.8528159","29295.3460467","30045.0932204","30811.459381","31578.3934928","32345.2076454","33094.7108813","36994.5087748","37762.0386633","38528.6793698","24711.7111407","25461.1441944","26227.9889551","26994.732307","27761.1578289","37771.8750087","Mapping"
"Blocked","Female","cave","11","F_jolt.wav","space","555.18726157","445","36245.2624618","28528.8528159","29295.3460467","30045.0932204","30811.459381","31578.3934928","32345.2076454","33094.7108813","36994.5087748","37762.0386633","38528.6793698","39295.2563865","25461.1441944","26227.9889551","26994.732307","27761.1578289","38537.9455997","Mapping"
"Blocked","Female","cave","11","F_cave.wav","None","723.406853689","445","36245.2624618","28528.8528159","29295.3460467","30045.0932204","30811.459381","31578.3934928","32345.2076454","33094.7108813","36994.5087748","37762.0386633","38528.6793698","39295.2563865","40061.868649","26227.9889551","26994.732307","27761.1578289","39304.8169494","Mapping"
"Blocked","Female","cave","11","F_priest.wav","space","565.194888873","445","36245.2624618","28528.8528159","29295.3460467","30045.0932204","30811.459381","31578.3934928","32345.2076454","33094.7108813","36994.5087748","37762.0386633","38528.6793698","39295.2563865","40061.868649","40811.4170243","26994.732307","27761.1578289","40071.911522","Mapping"
"Blocked","Female","cave","11","F_jolt.wav","None","734.526267819","445","36245.2624618","28528.8528159","29295.3460467","30045.0932204","30811.459381","31578.3934928","32345.2076454","33094.7108813","36994.5087748","37762.0386633","38528.6793698","39295.2563865","40061.868649","40811.4170243","41578.2166457","27761.1578289","40820.5923573","Mapping"
"Blocked","Female","cave","11","F_priest.wav","None","730.591111332","445","36245.2624618","28528.8528159","29295.3460467","30045.0932204","30811.459381","31578.3934928","32345.2076454","33094.7108813","36994.5087748","37762.0386633","38528.6793698","39295.2563865","40061.868649","40811.4170243","41578.2166457","42344.7710928","41587.8254396","Mapping"
"Blocked","Female","cave","11","F_gnash.wav","None","727.652420069","445","36245.2624618","43111.9395579","29295.3460467","30045.0932204","30811.459381","31578.3934928","32345.2076454","33094.7108813","36994.5087748","37762.0386633","38528.6793698","39295.2563865","40061.868649","40811.4170243","41578.2166457","42344.7710928","42354.0196999","Mapping"
"Blocked","Female","cave","11","F_park.wav","None","722.387200477","445","36245.2624618","43111.9395579","43878.7258849","30045.0932204","30811.459381","31578.3934928","32345.2076454","33094.7108813","36994.5087748","37762.0386633","38528.6793698","39295.2563865","40061.868649","40811.4170243","41578.2166457","42344.7710928","43122.4403164","Mapping"
"Blocked","Female","cave","11","F_cling.wav","None","719.574961052","445","36245.2624618","43111.9395579","43878.7258849","44628.1357505","30811.459381","31578.3934928","32345.2076454","33094.7108813","36994.5087748","37762.0386633","38528.6793698","39295.2563865","40061.868649","40811.4170243","41578.2166457","42344.7710928","43888.4639131","Mapping"
"Blocked","Female","cave","11","F_cave.wav","None","733.532585155","445","36245.2624618","43111.9395579","43878.7258849","44628.1357505","45394.5148964","31578.3934928","32345.2076454","33094.7108813","36994.5087748","37762.0386633","38528.6793698","39295.2563865","40061.868649","40811.4170243","41578.2166457","42344.7710928","44637.6548842","Mapping"
"Blocked","Female","cave","11","F_jaw.wav","space","504.935486374","445","36245.2624618","43111.9395579","43878.7258849","44628.1357505","45394.5148964","46161.1766266","32345.2076454","33094.7108813","36994.5087748","37762.0386633","38528.6793698","39295.2563865","40061.868649","40811.4170243","41578.2166457","42344.7710928","45404.1008115","Mapping"
"Blocked","Female","cave","11","F_cave.wav","None","727.398588871","445","36245.2624618","43111.9395579","43878.7258849","44628.1357505","45394.5148964","46161.1766266","46928.6558108","33094.7108813","36994.5087748","37762.0386633","38528.6793698","39295.2563865","40061.868649","40811.4170243","41578.2166457","42344.7710928","46170.3862779","Mapping"
"Blocked","Female","cave","11","F_knife.wav","space","586.5330956","445","36245.2624618","43111.9395579","43878.7258849","44628.1357505","45394.5148964","46161.1766266","46928.6558108","47695.0510337","36994.5087748","37762.0386633","38528.6793698","39295.2563865","40061.868649","40811.4170243","41578.2166457","42344.7710928","46938.4451618","Mapping"
"Blocked","Female","ball","5","F_gnash.wav","None","719.497976926","445","50811.8186402","43111.9395579","43878.7258849","44628.1357505","45394.5148964","46161.1766266","46928.6558108","47695.0510337","36994.5087748","37762.0386633","38528.6793698","39295.2563865","40061.868649","40811.4170243","41578.2166457","42344.7710928","47704.7021843","Mapping"
"Blocked","Female","ball","5","F_knife.wav","None","718.705566014","445","50811.8186402","43111.9395579","43878.7258849","44628.1357505","45394.5148964","46161.1766266","46928.6558108","47695.0510337","51561.3011616","37762.0386633","38528.6793698","39295.2563865","40061.868649","40811.4170243","41578.2166457","42344.7710928","50822.1230738","Mapping"
"Blocked","Female","ball","5","F_bluff.wav","None","733.456837721","445","50811.8186402","43111.9395579","43878.7258849","44628.1357505","45394.5148964","46161.1766266","46928.6558108","47695.0510337","51561.3011616","52328.0816143","38528.6793698","39295.2563865","40061.868649","40811.4170243","41578.2166457","42344.7710928","51570.6505592","Mapping"
"Blocked","Female","ball","5","F_greet.wav","None","730.069845317","445","50811.8186402","43111.9395579","43878.7258849","44628.1357505","45394.5148964","46161.1766266","46928.6558108","47695.0510337","51561.3011616","52328.0816143","53094.5637149","39295.2563865","40061.868649","40811.4170243","41578.2166457","42344.7710928","52337.4656393","Mapping"
"Blocked","Female","ball","5","F_ball.wav","None","727.189278616","445","50811.8186402","43111.9395579","43878.7258849","44628.1357505","45394.5148964","46161.1766266","46928.6558108","47695.0510337","51561.3011616","52328.0816143","53094.5637149","53861.9427269","40061.868649","40811.4170243","41578.2166457","42344.7710928","53103.7375021","Mapping"
"Blocked","Female","ball","5","F_bluff.wav","space","364.886519523","445","50811.8186402","43111.9395579","43878.7258849","44628.1357505","45394.5148964","46161.1766266","46928.6558108","47695.0510337","51561.3011616","52328.0816143","53094.5637149","53861.9427269","54628.0204289","40811.4170243","41578.2166457","42344.7710928","53871.9927109","Mapping"
"Blocked","Female","ball","5","F_reek.wav","None","719.572487666","445","50811.8186402","43111.9395579","43878.7258849","44628.1357505","45394.5148964","46161.1766266","46928.6558108","47695.0510337","51561.3011616","52328.0816143","53094.5637149","53861.9427269","54628.0204289","55377.8047033","41578.2166457","42344.7710928","54637.6078899","Mapping"
"Blocked","Female","ball","5","F_bluff.wav","None","733.563811648","445","50811.8186402","43111.9395579","43878.7258849","44628.1357505","45394.5148964","46161.1766266","46928.6558108","47695.0510337","51561.3011616","52328.0816143","53094.5637149","53861.9427269","54628.0204289","55377.8047033","56144.4067631","42344.7710928","55387.0594939","Mapping"
"Blocked","Female","ball","5","F_priest.wav","None","730.441471504","445","50811.8186402","43111.9395579","43878.7258849","44628.1357505","45394.5148964","46161.1766266","46928.6558108","47695.0510337","51561.3011616","52328.0816143","53094.5637149","53861.9427269","54628.0204289","55377.8047033","56144.4067631","56911.2011286","56153.5786952","Mapping"
"Blocked","Female","ball","5","F_ball.wav","None","726.441388645","445","50811.8186402","57678.313015","43878.7258849","44628.1357505","45394.5148964","46161.1766266","46928.6558108","47695.0510337","51561.3011616","52328.0816143","53094.5637149","53861.9427269","54628.0204289","55377.8047033","56144.4067631","56911.2011286","56920.9778035","Mapping"
"Blocked","Female","ball","5","F_greet.wav","space","428.600314181","445","50811.8186402","57678.313015","58444.7920238","44628.1357505","45394.5148964","46161.1766266","46928.6558108","47695.0510337","51561.3011616","52328.0816143","53094.5637149","53861.9427269","54628.0204289","55377.8047033","56144.4067631","56911.2011286","57688.1570897","Mapping"
"Blocked","Female","ball","5","F_reek.wav","None","719.329168358","445","50811.8186402","57678.313015","58444.7920238","59194.1892134","45394.5148964","46161.1766266","46928.6558108","47695.0510337","51561.3011616","52328.0816143","53094.5637149","53861.9427269","54628.0204289","55377.8047033","56144.4067631","56911.2011286","58454.4948064","Mapping"
"Blocked","Female","ball","5","F_ball.wav","None","733.632757271","445","50811.8186402","57678.313015","58444.7920238","59194.1892134","59961.1761938","46161.1766266","46928.6558108","47695.0510337","51561.3011616","52328.0816143","53094.5637149","53861.9427269","54628.0204289","55377.8047033","56144.4067631","56911.2011286","59203.6010639","Mapping"
"Blocked","Female","ball","5","F_greet.wav","space","489.748898802","445","50811.8186402","57678.313015","58444.7920238","59194.1892134","59961.1761938","60727.9353135","46928.6558108","47695.0510337","51561.3011616","52328.0816143","53094.5637149","53861.9427269","54628.0204289","55377.8047033","56144.4067631","56911.2011286","59971.0236694","Mapping"
"Blocked","Female","ball","5","F_ball.wav","None","726.44664459","445","50811.8186402","57678.313015","58444.7920238","59194.1892134","59961.1761938","60727.9353135","61494.9844378","47695.0510337","51561.3011616","52328.0816143","53094.5637149","53861.9427269","54628.0204289","55377.8047033","56144.4067631","56911.2011286","60737.1811381","Mapping"
"Blocked","Female","ball","5","F_gnash.wav","space","388.223530987","445","50811.8186402","57678.313015","58444.7920238","59194.1892134","59961.1761938","60727.9353135","61494.9844378","62261.9129844","51561.3011616","52328.0816143","53094.5637149","53861.9427269","54628.0204289","55377.8047033","56144.4067631","56911.2011286","61504.5440731","Mapping"
"Blocked","Female","cave","10","F_priest.wav","None","718.598282914","445","65378.1178958","57678.313015","58444.7920238","59194.1892134","59961.1761938","60727.9353135","61494.9844378","62261.9129844","51561.3011616","52328.0816143","53094.5637149","53861.9427269","54628.0204289","55377.8047033","56144.4067631","56911.2011286","62271.4914793","Mapping"
"Blocked","Female","cave","10","F_cave.wav","None","719.447890867","445","65378.1178958","57678.313015","58444.7920238","59194.1892134","59961.1761938","60727.9353135","61494.9844378","62261.9129844","66127.7887036","52328.0816143","53094.5637149","53861.9427269","54628.0204289","55377.8047033","56144.4067631","56911.2011286","65387.8998266","Mapping"
"Blocked","Female","cave","10","F_depth.wav","space","619.43839925","445","65378.1178958","57678.313015","58444.7920238","59194.1892134","59961.1761938","60727.9353135","61494.9844378","62261.9129844","66127.7887036","66894.4770227","53094.5637149","53861.9427269","54628.0204289","55377.8047033","56144.4067631","56911.2011286","66137.2082835","Mapping"
"Blocked","Female","cave","10","F_cave.wav","None","729.749541882","445","65378.1178958","57678.313015","58444.7920238","59194.1892134","59961.1761938","60727.9353135","61494.9844378","62261.9129844","66127.7887036","66894.4770227","67661.1118548","53861.9427269","54628.0204289","55377.8047033","56144.4067631","56911.2011286","66903.7945754","Mapping"
"Blocked","Female","cave","10","F_cad.wav","space","685.566527425","445","65378.1178958","57678.313015","58444.7920238","59194.1892134","59961.1761938","60727.9353135","61494.9844378","62261.9129844","66127.7887036","66894.4770227","67661.1118548","68427.9618715","54628.0204289","55377.8047033","56144.4067631","56911.2011286","67671.0629035","Mapping"
"Blocked","Female","cave","10","F_depth.wav","None","722.740894617","445","65378.1178958","57678.313015","58444.7920238","59194.1892134","59961.1761938","60727.9353135","61494.9844378","62261.9129844","66127.7887036","66894.4770227","67661.1118548","68427.9618715","69194.6523548","55377.8047033","56144.4067631","56911.2011286","68437.2228455","Mapping"
"Blocked","Female","cave","10","F_knife.wav","None","718.472758595","445","65378.1178958","57678.313015","58444.7920238","59194.1892134","59961.1761938","60727.9353135","61494.9844378","62261.9129844","66127.7887036","66894.4770227","67661.1118548","68427.9618715","69194.6523548","69944.7526042","56144.4067631","56911.2011286","69204.8192063","Mapping"
"Blocked","Female","cave","10","F_knife.wav","None","732.536738279","445","65378.1178958","57678.313015","58444.7920238","59194.1892134","59961.1761938","60727.9353135","61494.9844378","62261.9129844","66127.7887036","66894.4770227","67661.1118548","68427.9618715","69194.6523548","69944.7526042","70711.0420899","56911.2011286","69954.2368013","Mapping"
"Blocked","Female","cave","10","F_cave.wav","None","729.74830519","445","65378.1178958","57678.313015","58444.7920238","59194.1892134","59961.1761938","60727.9353135","61494.9844378","62261.9129844","66127.7887036","66894.4770227","67661.1118548","68427.9618715","69194.6523548","69944.7526042","70711.0420899","71477.6002471","70720.4743459","Mapping"
"Blocked","Female","cave","10","F_cling.wav","space","669.3457555","445","65378.1178958","72244.657719","58444.7920238","59194.1892134","59961.1761938","60727.9353135","61494.9844378","62261.9129844","66127.7887036","66894.4770227","67661.1118548","68427.9618715","69194.6523548","69944.7526042","70711.0420899","71477.6002471","71487.1923456","Mapping"
"Blocked","Female","cave","10","F_park.wav","None","722.537149479","445","65378.1178958","72244.657719","73011.4347708","59194.1892134","59961.1761938","60727.9353135","61494.9844378","62261.9129844","66127.7887036","66894.4770227","67661.1118548","68427.9618715","69194.6523548","69944.7526042","70711.0420899","71477.6002471","72254.1663407","Mapping"
"Blocked","Female","cave","10","F_knife.wav","None","719.215083448","445","65378.1178958","72244.657719","73011.4347708","73760.8811189","59961.1761938","60727.9353135","61494.9844378","62261.9129844","66127.7887036","66894.4770227","67661.1118548","68427.9618715","69194.6523548","69944.7526042","70711.0420899","71477.6002471","73021.3335691","Mapping"
"Blocked","Female","cave","10","F_depth.wav","None","734.043030108","445","65378.1178958","72244.657719","73011.4347708","73760.8811189","74527.3604369","60727.9353135","61494.9844378","62261.9129844","66127.7887036","66894.4770227","67661.1118548","68427.9618715","69194.6523548","69944.7526042","70711.0420899","71477.6002471","73770.0802583","Mapping"
"Blocked","Female","cave","10","F_jaw.wav","None","730.920999137","445","65378.1178958","72244.657719","73011.4347708","73760.8811189","74527.3604369","75294.2800175","61494.9844378","62261.9129844","66127.7887036","66894.4770227","67661.1118548","68427.9618715","69194.6523548","69944.7526042","70711.0420899","71477.6002471","74536.6869556","Mapping"
"Blocked","Female","cave","10","F_cave.wav","None","727.35685049","445","65378.1178958","72244.657719","73011.4347708","73760.8811189","74527.3604369","75294.2800175","76060.647724","62261.9129844","66127.7887036","66894.4770227","67661.1118548","68427.9618715","69194.6523548","69944.7526042","70711.0420899","71477.6002471","75303.7954411","Mapping"
"Blocked","Female","cave","10","F_dime.wav","None","724.835852218","445","65378.1178958","72244.657719","73011.4347708","73760.8811189","74527.3604369","75294.2800175","76060.647724","76827.6665493","66127.7887036","66894.4770227","67661.1118548","68427.9618715","69194.6523548","69944.7526042","70711.0420899","71477.6002471","76069.7646234","Mapping"
"Blocked","Female","cave","8","F_dime.wav","space","0.0272072420485","445","79944.5318546","72244.657719","73011.4347708","73760.8811189","74527.3604369","75294.2800175","76060.647724","76827.6665493","66127.7887036","66894.4770227","67661.1118548","68427.9618715","69194.6523548","69944.7526042","70711.0420899","71477.6002471","76837.5944099","Mapping"
"Blocked","Female","cave","8","F_priest.wav","None","724.950555476","445","79944.5318546","72244.657719","73011.4347708","73760.8811189","74527.3604369","75294.2800175","76060.647724","76827.6665493","80693.9893329","66894.4770227","67661.1118548","68427.9618715","69194.6523548","69944.7526042","70711.0420899","71477.6002471","79949.1045262","Mapping"
"Blocked","Female","cave","8","F_gnash.wav","None","734.349111575","445","79944.5318546","72244.657719","73011.4347708","73760.8811189","74527.3604369","75294.2800175","76060.647724","76827.6665493","80693.9893329","81460.7552545","67661.1118548","68427.9618715","69194.6523548","69944.7526042","70711.0420899","71477.6002471","80703.2240272","Mapping"
"Blocked","Female","cave","8","F_romp.wav","None","731.392797439","445","79944.5318546","72244.657719","73011.4347708","73760.8811189","74527.3604369","75294.2800175","76060.647724","76827.6665493","80693.9893329","81460.7552545","82227.4899496","68427.9618715","69194.6523548","69944.7526042","70711.0420899","71477.6002471","81470.1213474","Mapping"
"Blocked","Female","cave","8","F_cave.wav","None","727.850600089","445","79944.5318546","72244.657719","73011.4347708","73760.8811189","74527.3604369","75294.2800175","76060.647724","76827.6665493","80693.9893329","81460.7552545","82227.4899496","82994.0440875","69194.6523548","69944.7526042","70711.0420899","71477.6002471","82237.1092553","Mapping"
"Blocked","Female","cave","8","F_depth.wav","space","689.118618317","445","79944.5318546","72244.657719","73011.4347708","73760.8811189","74527.3604369","75294.2800175","76060.647724","76827.6665493","80693.9893329","81460.7552545","82227.4899496","82994.0440875","83761.2131709","69944.7526042","70711.0420899","71477.6002471","83003.1971601","Mapping"
"Blocked","Female","cave","8","F_bluff.wav","None","721.106914257","445","79944.5318546","72244.657719","73011.4347708","73760.8811189","74527.3604369","75294.2800175","76060.647724","76827.6665493","80693.9893329","81460.7552545","82227.4899496","82994.0440875","83761.2131709","84510.243681","70711.0420899","71477.6002471","83771.0037586","Mapping"
"Blocked","Female","cave","8","F_reek.wav","None","736.589689755","445","79944.5318546","72244.657719","73011.4347708","73760.8811189","74527.3604369","75294.2800175","76060.647724","76827.6665493","80693.9893329","81460.7552545","82227.4899496","82994.0440875","83761.2131709","84510.243681","85277.4616138","71477.6002471","84519.1460142","Mapping"
"Blocked","Female","cave","8","F_jolt.wav","None","731.654976313","445","79944.5318546","72244.657719","73011.4347708","73760.8811189","74527.3604369","75294.2800175","76060.647724","76827.6665493","80693.9893329","81460.7552545","82227.4899496","82994.0440875","83761.2131709","84510.243681","85277.4616138","86044.0491425","85287.5140712","Mapping"
"Blocked","Female","cave","8","F_cave.wav","None","729.136142255","445","79944.5318546","86810.6394537","73011.4347708","73760.8811189","74527.3604369","75294.2800175","76060.647724","76827.6665493","80693.9893329","81460.7552545","82227.4899496","82994.0440875","83761.2131709","84510.243681","85277.4616138","86044.0491425","86053.5630202","Mapping"
"Blocked","Female","cave","8","F_bluff.wav","space","680.268226301","445","79944.5318546","86810.6394537","87577.8178123","73760.8811189","74527.3604369","75294.2800175","76060.647724","76827.6665493","80693.9893329","81460.7552545","82227.4899496","82994.0440875","83761.2131709","84510.243681","85277.4616138","86044.0491425","86820.0033824","Mapping"
"Blocked","Female","cave","8","F_cave.wav","None","721.861915211","445","79944.5318546","86810.6394537","87577.8178123","88327.2681796","74527.3604369","75294.2800175","76060.647724","76827.6665493","80693.9893329","81460.7552545","82227.4899496","82994.0440875","83761.2131709","84510.243681","85277.4616138","86044.0491425","87587.4974068","Mapping"
"Blocked","Female","cave","8","F_jolt.wav","None","736.230739669","445","79944.5318546","86810.6394537","87577.8178123","88327.2681796","89093.757082","75294.2800175","76060.647724","76827.6665493","80693.9893329","81460.7552545","82227.4899496","82994.0440875","83761.2131709","84510.243681","85277.4616138","86044.0491425","88336.6466395","Mapping"
"Blocked","Female","cave","8","F_cave.wav","space","53.0173294674","445","79944.5318546","86810.6394537","87577.8178123","88327.2681796","89093.757082","89860.375528","76060.647724","76827.6665493","80693.9893329","81460.7552545","82227.4899496","82994.0440875","83761.2131709","84510.243681","85277.4616138","86044.0491425","89103.2091251","Mapping"
"Blocked","Female","cave","8","F_bluff.wav","space","718.665991844","445","79944.5318546","86810.6394537","87577.8178123","88327.2681796","89093.757082","89860.375528","90626.9216274","76827.6665493","80693.9893329","81460.7552545","82227.4899496","82994.0440875","83761.2131709","84510.243681","85277.4616138","86044.0491425","89869.5471509","Mapping"
"Blocked","Female","cave","8","F_cad.wav","None","726.359457747","445","79944.5318546","86810.6394537","87577.8178123","88327.2681796","89093.757082","89860.375528","90626.9216274","91394.4406949","80693.9893329","81460.7552545","82227.4899496","82994.0440875","83761.2131709","84510.243681","85277.4616138","86044.0491425","90635.8468393","Mapping"
"Blocked","Female","tile","13","F_lash.wav","None","721.169676416","445","94511.0302177","86810.6394537","87577.8178123","88327.2681796","89093.757082","89860.375528","90626.9216274","91394.4406949","80693.9893329","81460.7552545","82227.4899496","82994.0440875","83761.2131709","84510.243681","85277.4616138","86044.0491425","91404.6777287","Mapping"
"Blocked","Female","tile","13","F_dime.wav","None","718.961252251","445","94511.0302177","86810.6394537","87577.8178123","88327.2681796","89093.757082","89860.375528","90626.9216274","91394.4406949","95260.5025363","81460.7552545","82227.4899496","82994.0440875","83761.2131709","84510.243681","85277.4616138","86044.0491425","94520.9447838","Mapping"
"Blocked","Female","tile","13","F_dime.wav","None","739.094611018","445","94511.0302177","86810.6394537","87577.8178123","88327.2681796","89093.757082","89860.375528","90626.9216274","91394.4406949","95260.5025363","96027.3250366","82227.4899496","82994.0440875","83761.2131709","84510.243681","85277.4616138","86044.0491425","95264.4259442","Mapping"
"Blocked","Female","tile","13","F_tile.wav","None","730.477644768","445","94511.0302177","86810.6394537","87577.8178123","88327.2681796","89093.757082","89860.375528","90626.9216274","91394.4406949","95260.5025363","96027.3250366","96793.6169956","82994.0440875","83761.2131709","84510.243681","85277.4616138","86044.0491425","96036.7140083","Mapping"
"Blocked","Female","tile","13","F_lash.wav","None","727.903468707","445","94511.0302177","86810.6394537","87577.8178123","88327.2681796","89093.757082","89860.375528","90626.9216274","91394.4406949","95260.5025363","96027.3250366","96793.6169956","97560.521736","83761.2131709","84510.243681","85277.4616138","86044.0491425","96802.9478428","Mapping"
"Blocked","Female","tile","13","F_park.wav","space","0.0340090518876","445","94511.0302177","86810.6394537","87577.8178123","88327.2681796","89093.757082","89860.375528","90626.9216274","91394.4406949","95260.5025363","96027.3250366","96793.6169956","97560.521736","98327.0548501","84510.243681","85277.4616138","86044.0491425","97569.8365061","Mapping"
"Blocked","Female","tile","13","F_priest.wav","None","721.43278281","445","94511.0302177","86810.6394537","87577.8178123","88327.2681796","89093.757082","89860.375528","90626.9216274","91394.4406949","95260.5025363","96027.3250366","96793.6169956","97560.521736","98327.0548501","99076.6950498","85277.4616138","86044.0491425","98336.4799951","Mapping"
"Blocked","Female","tile","13","F_park.wav","None","735.782747703","445","94511.0302177","86810.6394537","87577.8178123","88327.2681796","89093.757082","89860.375528","90626.9216274","91394.4406949","95260.5025363","96027.3250366","96793.6169956","97560.521736","98327.0548501","99076.6950498","99843.7287154","86044.0491425","99085.8017464","Mapping"
"Blocked","Female","tile","13","F_tile.wav","None","731.863049876","445","94511.0302177","86810.6394537","87577.8178123","88327.2681796","89093.757082","89860.375528","90626.9216274","91394.4406949","95260.5025363","96027.3250366","96793.6169956","97560.521736","98327.0548501","99076.6950498","99843.7287154","100610.359219","99853.4648886","Mapping"
"Blocked","Female","tile","13","F_bluff.wav","space","616.252369426","445","94511.0302177","101377.088967","87577.8178123","88327.2681796","89093.757082","89860.375528","90626.9216274","91394.4406949","95260.5025363","96027.3250366","96793.6169956","97560.521736","98327.0548501","99076.6950498","99843.7287154","100610.359219","100619.772306","Mapping"
"Blocked","Female","tile","13","F_tile.wav","None","725.393600671","445","94511.0302177","101377.088967","102143.921052","88327.2681796","89093.757082","89860.375528","90626.9216274","91394.4406949","95260.5025363","96027.3250366","96793.6169956","97560.521736","98327.0548501","99076.6950498","99843.7287154","100610.359219","101386.661588","Mapping"
"Blocked","Female","tile","13","F_gnash.wav","None","721.141850828","445","94511.0302177","101377.088967","102143.921052","102910.63967","89093.757082","89860.375528","90626.9216274","91394.4406949","95260.5025363","96027.3250366","96793.6169956","97560.521736","98327.0548501","99076.6950498","99843.7287154","100610.359219","102154.625865","Mapping"
"Blocked","Female","tile","13","F_gnash.wav","space","0.0355549173109","445","94511.0302177","101377.088967","102143.921052","102910.63967","103660.324391","89860.375528","90626.9216274","91394.4406949","95260.5025363","96027.3250366","96793.6169956","97560.521736","98327.0548501","99076.6950498","99843.7287154","100610.359219","102921.185568","Mapping"
"Blocked","Female","tile","13","F_knife.wav","None","732.682049683","445","94511.0302177","101377.088967","102143.921052","102910.63967","103660.324391","104427.183373","90626.9216274","91394.4406949","95260.5025363","96027.3250366","96793.6169956","97560.521736","98327.0548501","99076.6950498","99843.7287154","100610.359219","103669.90505","Mapping"
"Blocked","Female","tile","13","F_tile.wav","None","729.603921305","445","94511.0302177","101377.088967","102143.921052","102910.63967","103660.324391","104427.183373","105193.720507","91394.4406949","95260.5025363","96027.3250366","96793.6169956","97560.521736","98327.0548501","99076.6950498","99843.7287154","100610.359219","104436.711782","Mapping"
"Blocked","Female","tile","13","F_cad.wav","space","600.828336836","445","94511.0302177","101377.088967","102143.921052","102910.63967","103660.324391","104427.183373","105193.720507","105960.541461","95260.5025363","96027.3250366","96793.6169956","97560.521736","98327.0548501","99076.6950498","99843.7287154","100610.359219","105203.107005","Mapping"
"Blocked","Female","ball","2","F_dime.wav","None","722.104306999","445","109076.387732","101377.088967","102143.921052","102910.63967","103660.324391","104427.183373","105193.720507","105960.541461","95260.5025363","96027.3250366","96793.6169956","97560.521736","98327.0548501","99076.6950498","99843.7287154","100610.359219","105971.169908","Mapping"
"Blocked","Female","ball","2","F_ball.wav","None","723.40592617","445","109076.387732","101377.088967","102143.921052","102910.63967","103660.324391","104427.183373","105193.720507","105960.541461","109827.111274","96027.3250366","96793.6169956","97560.521736","98327.0548501","99076.6950498","99843.7287154","100610.359219","109085.109198","Mapping"
"Blocked","Female","ball","2","F_depth.wav","None","735.636817953","445","109076.387732","101377.088967","102143.921052","102910.63967","103660.324391","104427.183373","105193.720507","105960.541461","109827.111274","110593.641606","96793.6169956","97560.521736","98327.0548501","99076.6950498","99843.7287154","100610.359219","109836.686987","Mapping"
"Blocked","Female","ball","2","F_cad.wav","space","32.8379038929","445","109076.387732","101377.088967","102143.921052","102910.63967","103660.324391","104427.183373","105193.720507","105960.541461","109827.111274","110593.641606","111360.220787","97560.521736","98327.0548501","99076.6950498","99843.7287154","100610.359219","110603.01852","Mapping"
"Blocked","Female","ball","2","F_jaw.wav","None","729.586607606","445","109076.387732","101377.088967","102143.921052","102910.63967","103660.324391","104427.183373","105193.720507","105960.541461","109827.111274","110593.641606","111360.220787","112126.939714","98327.0548501","99076.6950498","99843.7287154","100610.359219","111369.581315","Mapping"
"Blocked","Female","ball","2","F_ball.wav","None","726.223112366","445","109076.387732","101377.088967","102143.921052","102910.63967","103660.324391","104427.183373","105193.720507","105960.541461","109827.111274","110593.641606","111360.220787","112126.939714","112893.827759","99076.6950498","99843.7287154","100610.359219","112136.553455","Mapping"
"Blocked","Female","ball","2","F_lash.wav","space","419.856896093","445","109076.387732","101377.088967","102143.921052","102910.63967","103660.324391","104427.183373","105193.720507","105960.541461","109827.111274","110593.641606","111360.220787","112126.939714","112893.827759","113660.634491","99843.7287154","100610.359219","112903.937104","Mapping"
"Blocked","Female","ball","2","F_reek.wav","None","719.113365464","445","109076.387732","101377.088967","102143.921052","102910.63967","103660.324391","104427.183373","105193.720507","105960.541461","109827.111274","110593.641606","111360.220787","112126.939714","112893.827759","113660.634491","114410.130616","100610.359219","113670.525251","Mapping"
"Blocked","Female","ball","2","F_knife.wav","None","733.996963301","445","109076.387732","101377.088967","102143.921052","102910.63967","103660.324391","104427.183373","105193.720507","105960.541461","109827.111274","110593.641606","111360.220787","112126.939714","112893.827759","113660.634491","114410.130616","115176.845834","114419.439203","Mapping"
"Blocked","Female","ball","2","F_ball.wav","None","730.722200768","445","109076.387732","115943.425015","102143.921052","102910.63967","103660.324391","104427.183373","105193.720507","105960.541461","109827.111274","110593.641606","111360.220787","112126.939714","112893.827759","113660.634491","114410.130616","115176.845834","115186.507496","Mapping"
"Blocked","Female","ball","2","F_greet.wav","space","491.133685564","445","109076.387732","115943.425015","116710.442294","102910.63967","103660.324391","104427.183373","105193.720507","105960.541461","109827.111274","110593.641606","111360.220787","112126.939714","112893.827759","113660.634491","114410.130616","115176.845834","115952.632502","Mapping"
"Blocked","Female","ball","2","F_romp.wav","None","723.859174081","445","109076.387732","115943.425015","116710.442294","117477.220582","103660.324391","104427.183373","105193.720507","105960.541461","109827.111274","110593.641606","111360.220787","112126.939714","112893.827759","113660.634491","114410.130616","115176.845834","116720.019552","Mapping"
"Blocked","Female","ball","2","F_gnash.wav","None","720.712409254","445","109076.387732","115943.425015","116710.442294","117477.220582","118226.47648","104427.183373","105193.720507","105960.541461","109827.111274","110593.641606","111360.220787","112126.939714","112893.827759","113660.634491","114410.130616","115176.845834","117486.97747","Mapping"
"Blocked","Female","ball","2","F_ball.wav","None","735.192845237","445","109076.387732","115943.425015","116710.442294","117477.220582","118226.47648","118993.640307","105193.720507","105960.541461","109827.111274","110593.641606","111360.220787","112126.939714","112893.827759","113660.634491","114410.130616","115176.845834","118236.204615","Mapping"
"Blocked","Female","ball","2","F_cling.wav","space","368.338747471","445","109076.387732","115943.425015","116710.442294","117477.220582","118226.47648","118993.640307","119760.047279","105960.541461","109827.111274","110593.641606","111360.220787","112126.939714","112893.827759","113660.634491","114410.130616","115176.845834","119003.367824","Mapping"
"Blocked","Female","ball","2","F_greet.wav","None","729.02174817","445","109076.387732","115943.425015","116710.442294","117477.220582","118226.47648","118993.640307","119760.047279","120526.849683","109827.111274","110593.641606","111360.220787","112126.939714","112893.827759","113660.634491","114410.130616","115176.845834","119769.662874","Mapping"
"Blocked","Female","done","20","F_cling.wav","None","726.572787255","445","123643.708805","115943.425015","116710.442294","117477.220582","118226.47648","118993.640307","119760.047279","120526.849683","109827.111274","110593.641606","111360.220787","112126.939714","112893.827759","113660.634491","114410.130616","115176.845834","120536.062117","Mapping"
"Blocked","Female","done","20","F_priest.wav","None","719.477571494","445","123643.708805","115943.425015","116710.442294","117477.220582","118226.47648","118993.640307","119760.047279","120526.849683","124393.256252","110593.641606","111360.220787","112126.939714","112893.827759","113660.634491","114410.130616","115176.845834","123654.002726","Mapping"
"Blocked","Female","done","20","F_done.wav","None","734.849044639","445","123643.708805","115943.425015","116710.442294","117477.220582","118226.47648","118993.640307","119760.047279","120526.849683","124393.256252","125160.119254","111360.220787","112126.939714","112893.827759","113660.634491","114410.130616","115176.845834","124402.373461","Mapping"
"Blocked","Female","done","20","F_romp.wav","space","450.270263753","445","123643.708805","115943.425015","116710.442294","117477.220582","118226.47648","118993.640307","119760.047279","120526.849683","124393.256252","125160.119254","125926.663189","112126.939714","112893.827759","113660.634491","114410.130616","115176.845834","125169.321176","Mapping"
"Blocked","Female","done","20","F_bluff.wav","None","728.028065507","445","123643.708805","115943.425015","116710.442294","117477.220582","118226.47648","118993.640307","119760.047279","120526.849683","124393.256252","125160.119254","125926.663189","126693.246081","112893.827759","113660.634491","114410.130616","115176.845834","125936.011041","Mapping"
"Blocked","Female","done","20","F_reek.wav","None","724.929531699","445","123643.708805","115943.425015","116710.442294","117477.220582","118226.47648","118993.640307","119760.047279","120526.849683","124393.256252","125160.119254","125926.663189","126693.246081","127460.783698","113660.634491","114410.130616","115176.845834","126702.930313","Mapping"
"Blocked","Female","done","20","F_lash.wav","None","721.104440871","445","123643.708805","115943.425015","116710.442294","117477.220582","118226.47648","118993.640307","119760.047279","120526.849683","124393.256252","125160.119254","125926.663189","126693.246081","127460.783698","128227.106575","114410.130616","115176.845834","127470.552335","Mapping"
"Blocked","Female","done","20","F_park.wav","None","718.412160647","445","123643.708805","115943.425015","116710.442294","117477.220582","118226.47648","118993.640307","119760.047279","120526.849683","124393.256252","125160.119254","125926.663189","126693.246081","127460.783698","128227.106575","128976.703799","115176.845834","128236.97662","Mapping"
"Blocked","Female","done","20","F_done.wav","None","737.936139039","445","123643.708805","115943.425015","116710.442294","117477.220582","118226.47648","118993.640307","119760.047279","120526.849683","124393.256252","125160.119254","125926.663189","126693.246081","127460.783698","128227.106575","128976.703799","129742.993594","128981.187738","Mapping"
"Blocked","Female","done","20","F_dime.wav","space","387.51366932","445","123643.708805","130509.825988","116710.442294","117477.220582","118226.47648","118993.640307","119760.047279","120526.849683","124393.256252","125160.119254","125926.663189","126693.246081","127460.783698","128227.106575","128976.703799","129742.993594","129751.978786","Mapping"
"Blocked","Female","done","20","F_done.wav","None","726.858154118","445","123643.708805","130509.825988","131277.010221","117477.220582","118226.47648","118993.640307","119760.047279","120526.849683","124393.256252","125160.119254","125926.663189","126693.246081","127460.783698","128227.106575","128976.703799","129742.993594","130519.11757","Mapping"
"Blocked","Female","done","20","F_gnash.wav","space","612.614328385","445","123643.708805","130509.825988","131277.010221","132043.555084","118226.47648","118993.640307","119760.047279","120526.849683","124393.256252","125160.119254","125926.663189","126693.246081","127460.783698","128227.106575","128976.703799","129742.993594","131286.859242","Mapping"
"Blocked","Female","done","20","F_done.wav","None","719.722436668","445","123643.708805","130509.825988","131277.010221","132043.555084","132793.099131","118993.640307","119760.047279","120526.849683","124393.256252","125160.119254","125926.663189","126693.246081","127460.783698","128227.106575","128976.703799","129742.993594","132053.200978","Mapping"
"Blocked","Female","done","20","F_lash.wav","space","560.251209408","445","123643.708805","130509.825988","131277.010221","132043.555084","132793.099131","133559.595762","119760.047279","120526.849683","124393.256252","125160.119254","125926.663189","126693.246081","127460.783698","128227.106575","128976.703799","129742.993594","132803.206312","Mapping"
"Blocked","Female","done","20","F_depth.wav","None","731.6228223","445","123643.708805","130509.825988","131277.010221","132043.555084","132793.099131","133559.595762","134326.540695","120526.849683","124393.256252","125160.119254","125926.663189","126693.246081","127460.783698","128227.106575","128976.703799","129742.993594","133568.748216","Mapping"
"Blocked","Female","done","20","F_priest.wav","None","728.336311186","445","123643.708805","130509.825988","131277.010221","132043.555084","132793.099131","133559.595762","134326.540695","135093.147702","124393.256252","125160.119254","125926.663189","126693.246081","127460.783698","128227.106575","128976.703799","129742.993594","134335.871851","Mapping"
"Blocked","Female","cave","9","F_dime.wav","None","725.35680906","445","138210.115343","130509.825988","131277.010221","132043.555084","132793.099131","133559.595762","134326.540695","135093.147702","124393.256252","125160.119254","125926.663189","126693.246081","127460.783698","128227.106575","128976.703799","129742.993594","135102.675492","Mapping"
"Blocked","Female","cave","9","F_cling.wav","None","718.709276092","445","138210.115343","130509.825988","131277.010221","132043.555084","132793.099131","133559.595762","134326.540695","135093.147702","138959.669593","125160.119254","125926.663189","126693.246081","127460.783698","128227.106575","128976.703799","129742.993594","138220.440182","Mapping"
"Blocked","Female","cave","9","F_cad.wav","None","733.925853465","445","138210.115343","130509.825988","131277.010221","132043.555084","132793.099131","133559.595762","134326.540695","135093.147702","138959.669593","139726.538469","125926.663189","126693.246081","127460.783698","128227.106575","128976.703799","129742.993594","138969.062275","Mapping"
"Blocked","Female","cave","9","F_park.wav","None","730.604714953","445","138210.115343","130509.825988","131277.010221","132043.555084","132793.099131","133559.595762","134326.540695","135093.147702","138959.669593","139726.538469","140493.078076","126693.246081","127460.783698","128227.106575","128976.703799","129742.993594","139736.195803","Mapping"
"Blocked","Female","cave","9","F_cave.wav","None","728.279114144","445","138210.115343","130509.825988","131277.010221","132043.555084","132793.099131","133559.595762","134326.540695","135093.147702","138959.669593","139726.538469","140493.078076","141259.442072","127460.783698","128227.106575","128976.703799","129742.993594","140502.46983","Mapping"
"Blocked","Female","cave","9","F_dime.wav","space","566.595443467","445","138210.115343","130509.825988","131277.010221","132043.555084","132793.099131","133559.595762","134326.540695","135093.147702","138959.669593","139726.538469","140493.078076","141259.442072","142026.630943","128227.106575","128976.703799","129742.993594","141268.686969","Mapping"
"Blocked","Female","cave","9","F_depth.wav","None","720.710554215","445","138210.115343","130509.825988","131277.010221","132043.555084","132793.099131","133559.595762","134326.540695","135093.147702","138959.669593","139726.538469","140493.078076","141259.442072","142026.630943","142775.865198","128976.703799","129742.993594","142036.957018","Mapping"
"Blocked","Female","cave","9","F_cave.wav","None","736.450561814","445","138210.115343","130509.825988","131277.010221","132043.555084","132793.099131","133559.595762","134326.540695","135093.147702","138959.669593","139726.538469","140493.078076","141259.442072","142026.630943","142775.865198","143542.954515","129742.993594","142785.025382","Mapping"
"Blocked","Female","cave","9","F_bluff.wav","space","459.210934343","445","138210.115343","130509.825988","131277.010221","132043.555084","132793.099131","133559.595762","134326.540695","135093.147702","138959.669593","139726.538469","140493.078076","141259.442072","142026.630943","142775.865198","143542.954515","144309.784126","143552.043898","Mapping"
"Blocked","Female","cave","9","F_reek.wav","None","728.980628135","445","138210.115343","145076.348467","131277.010221","132043.555084","132793.099131","133559.595762","134326.540695","135093.147702","138959.669593","139726.538469","140493.078076","141259.442072","142026.630943","142775.865198","143542.954515","144309.784126","144319.413944","Mapping"
"Blocked","Female","cave","9","F_jolt.wav","None","726.254648032","445","138210.115343","145076.348467","145843.307621","132043.555084","132793.099131","133559.595762","134326.540695","135093.147702","138959.669593","139726.538469","140493.078076","141259.442072","142026.630943","142775.865198","143542.954515","144309.784126","145085.952005","Mapping"
"Blocked","Female","cave","9","F_cave.wav","None","722.892389485","445","138210.115343","145076.348467","145843.307621","146609.961313","132793.099131","133559.595762","134326.540695","135093.147702","138959.669593","139726.538469","140493.078076","141259.442072","142026.630943","142775.865198","143542.954515","144309.784126","145853.225898","Mapping"
"Blocked","Female","cave","9","F_romp.wav","space","551.523249979","445","138210.115343","145076.348467","145843.307621","146609.961313","147359.577707","133559.595762","134326.540695","135093.147702","138959.669593","139726.538469","140493.078076","141259.442072","142026.630943","142775.865198","143542.954515","144309.784126","146619.648328","Mapping"
"Blocked","Female","cave","9","F_romp.wav","None","733.442924927","445","138210.115343","145076.348467","145843.307621","146609.961313","147359.577707","148126.356613","134326.540695","135093.147702","138959.669593","139726.538469","140493.078076","141259.442072","142026.630943","142775.865198","143542.954515","144309.784126","147369.566474","Mapping"
"Blocked","Female","cave","9","F_cave.wav","None","731.064764674","445","138210.115343","145076.348467","145843.307621","146609.961313","147359.577707","148126.356613","148892.920954","135093.147702","138959.669593","139726.538469","140493.078076","141259.442072","142026.630943","142775.865198","143542.954515","144309.784126","148135.775884","Mapping"
"Blocked","Female","cave","9","F_priest.wav","space","484.891169488","445","138210.115343","145076.348467","145843.307621","146609.961313","147359.577707","148126.356613","148892.920954","149659.52827","138959.669593","139726.538469","140493.078076","141259.442072","142026.630943","142775.865198","143542.954515","144309.784126","148902.270042","Mapping"
"Blocked","Female","done","24","F_cling.wav","None","725.113489752","445","152776.631948","145076.348467","145843.307621","146609.961313","147359.577707","148126.356613","148892.920954","149659.52827","138959.669593","139726.538469","140493.078076","141259.442072","142026.630943","142775.865198","143542.954515","144309.784126","149668.652589","Mapping"
"Blocked","Female","done","24","F_depth.wav","None","719.60185912","445","152776.631948","145076.348467","145843.307621","146609.961313","147359.577707","148126.356613","148892.920954","149659.52827","153525.916907","139726.538469","140493.078076","141259.442072","142026.630943","142775.865198","143542.954515","144309.784126","152786.380797","Mapping"
"Blocked","Female","done","24","F_depth.wav","None","735.006104625","445","152776.631948","145076.348467","145843.307621","146609.961313","147359.577707","148126.356613","148892.920954","149659.52827","153525.916907","154292.87668","140493.078076","141259.442072","142026.630943","142775.865198","143542.954515","144309.784126","153534.950639","Mapping"
"Blocked","Female","done","24","F_done.wav","None","731.302209691","445","152776.631948","145076.348467","145843.307621","146609.961313","147359.577707","148126.356613","148892.920954","149659.52827","153525.916907","154292.87668","155059.214088","141259.442072","142026.630943","142775.865198","143542.954515","144309.784126","154302.599559","Mapping"
"Blocked","Female","done","24","F_cad.wav","None","729.546105918","445","152776.631948","145076.348467","145843.307621","146609.961313","147359.577707","148126.356613","148892.920954","149659.52827","153525.916907","154292.87668","155059.214088","155825.744729","142026.630943","142775.865198","143542.954515","144309.784126","155068.231124","Mapping"
"Blocked","Female","done","24","F_done.wav","None","727.000992138","445","152776.631948","145076.348467","145843.307621","146609.961313","147359.577707","148126.356613","148892.920954","149659.52827","153525.916907","154292.87668","155059.214088","155825.744729","156593.115084","142775.865198","143542.954515","144309.784126","155835.057335","Mapping"
"Blocked","Female","done","24","F_gnash.wav","None","723.28040185","445","152776.631948","145076.348467","145843.307621","146609.961313","147359.577707","148126.356613","148892.920954","149659.52827","153525.916907","154292.87668","155059.214088","155825.744729","156593.115084","157359.888426","143542.954515","144309.784126","156602.757578","Mapping"
"Blocked","Female","done","24","F_done.wav","space","73.3133133381","445","152776.631948","145076.348467","145843.307621","146609.961313","147359.577707","148126.356613","148892.920954","149659.52827","153525.916907","154292.87668","155059.214088","155825.744729","156593.115084","157359.888426","158109.002103","144309.784126","157369.729718","Mapping"
"Blocked","Female","done","24","F_lash.wav","space","669.044002457","445","152776.631948","145076.348467","145843.307621","146609.961313","147359.577707","148126.356613","148892.920954","149659.52827","153525.916907","154292.87668","155059.214088","155825.744729","156593.115084","157359.888426","158109.002103","158875.679292","158117.93319","Mapping"
"Blocked","Female","done","24","F_jaw.wav","None","731.500698886","445","152776.631948","159642.453871","145843.307621","146609.961313","147359.577707","148126.356613","148892.920954","149659.52827","153525.916907","154292.87668","155059.214088","155825.744729","156593.115084","157359.888426","158109.002103","158875.679292","158884.862973","Mapping"
"Blocked","Female","done","24","F_done.wav","None","728.474820779","445","152776.631948","159642.453871","160409.135079","146609.961313","147359.577707","148126.356613","148892.920954","149659.52827","153525.916907","154292.87668","155059.214088","155825.744729","156593.115084","157359.888426","158109.002103","158875.679292","159651.868813","Mapping"
"Blocked","Female","done","24","F_reek.wav","space","664.659617311","445","152776.631948","159642.453871","160409.135079","161176.503579","147359.577707","148126.356613","148892.920954","149659.52827","153525.916907","154292.87668","155059.214088","155825.744729","156593.115084","157359.888426","158109.002103","158875.679292","160418.292171","Mapping"
"Blocked","Female","done","24","F_depth.wav","None","721.063011662","445","152776.631948","159642.453871","160409.135079","161176.503579","161926.085654","148126.356613","148892.920954","149659.52827","153525.916907","154292.87668","155059.214088","155825.744729","156593.115084","157359.888426","158109.002103","158875.679292","161186.34147","Mapping"
"Blocked","Female","done","24","F_romp.wav","None","735.685358145","445","152776.631948","159642.453871","160409.135079","161176.503579","161926.085654","162692.583832","148892.920954","149659.52827","153525.916907","154292.87668","155059.214088","155825.744729","156593.115084","157359.888426","158109.002103","158875.679292","161935.738041","Mapping"
"Blocked","Female","done","24","F_cling.wav","None","733.722108326","445","152776.631948","159642.453871","160409.135079","161176.503579","161926.085654","162692.583832","163459.334294","149659.52827","153525.916907","154292.87668","155059.214088","155825.744729","156593.115084","157359.888426","158109.002103","158875.679292","162701.789773","Mapping"
"Blocked","Female","done","24","F_reek.wav","None","730.496504333","445","152776.631948","159642.453871","160409.135079","161176.503579","161926.085654","162692.583832","163459.334294","164225.96047","153525.916907","154292.87668","155059.214088","155825.744729","156593.115084","157359.888426","158109.002103","158875.679292","163469.020072","Mapping"
"Blocked","Female","ball","4","F_cad.wav","None","728.711647452","445","167359.742496","159642.453871","160409.135079","161176.503579","161926.085654","162692.583832","163459.334294","164225.96047","153525.916907","154292.87668","155059.214088","155825.744729","156593.115084","157359.888426","158109.002103","158875.679292","164235.056345","Mapping"
"Blocked","Female","ball","4","F_jolt.wav","None","718.409068915","445","167359.742496","159642.453871","160409.135079","161176.503579","161926.085654","162692.583832","163459.334294","164225.96047","168109.131338","154292.87668","155059.214088","155825.744729","156593.115084","157359.888426","158109.002103","158875.679292","167370.342499","Mapping"
"Blocked","Female","ball","4","F_ball.wav","None","733.956152439","445","167359.742496","159642.453871","160409.135079","161176.503579","161926.085654","162692.583832","163459.334294","164225.96047","168109.131338","168875.965587","155059.214088","155825.744729","156593.115084","157359.888426","158109.002103","158875.679292","168118.885134","Mapping"
"Blocked","Female","ball","4","F_priest.wav","space","357.422150962","445","167359.742496","159642.453871","160409.135079","161176.503579","161926.085654","162692.583832","163459.334294","164225.96047","168109.131338","168875.965587","169642.658852","155825.744729","156593.115084","157359.888426","158109.002103","158875.679292","168885.39135","Mapping"
"Blocked","Female","ball","4","F_jaw.wav","None","702.846217559","445","167359.742496","159642.453871","160409.135079","161176.503579","161926.085654","162692.583832","163459.334294","164225.96047","168109.131338","168875.965587","169642.658852","170409.249782","156593.115084","157359.888426","158109.002103","158875.679292","169677.167219","Mapping"
"Blocked","Female","ball","4","F_ball.wav","None","725.765845204","445","167359.742496","159642.453871","160409.135079","161176.503579","161926.085654","162692.583832","163459.334294","164225.96047","168109.131338","168875.965587","169642.658852","170409.249782","171175.953869","157359.888426","158109.002103","158875.679292","170418.233737","Mapping"
"Blocked","Female","ball","4","F_cad.wav","space","417.626211456","445","167359.742496","159642.453871","160409.135079","161176.503579","161926.085654","162692.583832","163459.334294","164225.96047","168109.131338","168875.965587","169642.658852","170409.249782","171175.953869","171942.801412","158109.002103","158875.679292","171185.154554","Mapping"
"Blocked","Female","ball","4","F_ball.wav","None","719.230232934","445","167359.742496","159642.453871","160409.135079","161176.503579","161926.085654","162692.583832","163459.334294","164225.96047","168109.131338","168875.965587","169642.658852","170409.249782","171175.953869","171942.801412","172692.417496","158875.679292","171952.237687","Mapping"
"Blocked","Female","ball","4","F_gnash.wav","space","589.109745047","445","167359.742496","159642.453871","160409.135079","161176.503579","161926.085654","162692.583832","163459.334294","164225.96047","168109.131338","168875.965587","169642.658852","170409.249782","171175.953869","171942.801412","172692.417496","173458.860641","172701.593139","Mapping"
"Blocked","Female","ball","4","F_cling.wav","None","731.152260691","445","167359.742496","174225.495164","160409.135079","161176.503579","161926.085654","162692.583832","163459.334294","164225.96047","168109.131338","168875.965587","169642.658852","170409.249782","171175.953869","171942.801412","172692.417496","173458.860641","173467.681662","Mapping"
"Blocked","Female","ball","4","F_gnash.wav","None","729.009072069","445","167359.742496","174225.495164","174992.413199","161176.503579","161926.085654","162692.583832","163459.334294","164225.96047","168109.131338","168875.965587","169642.658852","170409.249782","171175.953869","171942.801412","172692.417496","173458.860641","174234.267644","Mapping"
"Blocked","Female","ball","4","F_gnash.wav","None","725.574776166","445","167359.742496","174225.495164","174992.413199","175759.514883","161926.085654","162692.583832","163459.334294","164225.96047","168109.131338","168875.965587","169642.658852","170409.249782","171175.953869","171942.801412","172692.417496","173458.860641","175001.854421","Mapping"
"Blocked","Female","ball","4","F_park.wav","None","722.475314839","445","167359.742496","174225.495164","174992.413199","175759.514883","176526.363353","162692.583832","163459.334294","164225.96047","168109.131338","168875.965587","169642.658852","170409.249782","171175.953869","171942.801412","172692.417496","173458.860641","175769.419246","Mapping"
"Blocked","Female","ball","4","F_ball.wav","None","720.237210046","445","167359.742496","174225.495164","174992.413199","175759.514883","176526.363353","177275.661607","163459.334294","164225.96047","168109.131338","168875.965587","169642.658852","170409.249782","171175.953869","171942.801412","172692.417496","173458.860641","176535.70564","Mapping"
"Blocked","Female","ball","4","F_greet.wav","space","515.379047889","445","167359.742496","174225.495164","174992.413199","175759.514883","176526.363353","177275.661607","178042.346835","164225.96047","168109.131338","168875.965587","169642.658852","170409.249782","171175.953869","171942.801412","172692.417496","173458.860641","177279.270277","Mapping"
"Blocked","Female","ball","4","F_jaw.wav","None","731.872943419","445","167359.742496","174225.495164","174992.413199","175759.514883","176526.363353","177275.661607","178042.346835","178808.979503","168109.131338","168875.965587","169642.658852","170409.249782","171175.953869","171942.801412","172692.417496","173458.860641","178051.29338","Mapping"
"Blocked","Female","ball","3","F_romp.wav","None","728.958058491","445","181942.759365","174225.495164","174992.413199","175759.514883","176526.363353","177275.661607","178042.346835","178808.979503","168109.131338","168875.965587","169642.658852","170409.249782","171175.953869","171942.801412","172692.417496","173458.860641","178818.368165","Mapping"
"Blocked","Female","ball","3","F_jolt.wav","None","720.224843118","445","181942.759365","174225.495164","174992.413199","175759.514883","176526.363353","177275.661607","178042.346835","178808.979503","182691.966722","168875.965587","169642.658852","170409.249782","171175.953869","171942.801412","172692.417496","173458.860641","181952.179872","Mapping"
"Blocked","Female","ball","3","F_lash.wav","None","735.291471487","445","181942.759365","174225.495164","174992.413199","175759.514883","176526.363353","177275.661607","178042.346835","178808.979503","182691.966722","183458.880119","169642.658852","170409.249782","171175.953869","171942.801412","172692.417496","173458.860641","182701.309936","Mapping"
"Blocked","Female","ball","3","F_ball.wav","None","732.682977202","445","181942.759365","174225.495164","174992.413199","175759.514883","176526.363353","177275.661607","178042.346835","178808.979503","182691.966722","183458.880119","184225.691798","170409.249782","171175.953869","171942.801412","172692.417496","173458.860641","183468.24312","Mapping"
"Blocked","Female","ball","3","F_dime.wav","space","447.250569111","445","181942.759365","174225.495164","174992.413199","175759.514883","176526.363353","177275.661607","178042.346835","178808.979503","182691.966722","183458.880119","184225.691798","184992.905712","171175.953869","171942.801412","172692.417496","173458.860641","184235.267511","Mapping"
"Blocked","Female","ball","3","F_ball.wav","None","726.547435052","445","181942.759365","174225.495164","174992.413199","175759.514883","176526.363353","177275.661607","178042.346835","178808.979503","182691.966722","183458.880119","184225.691798","184992.905712","185758.85758","171942.801412","172692.417496","173458.860641","185002.032814","Mapping"
"Blocked","Female","ball","3","F_reek.wav","space","418.591450186","445","181942.759365","174225.495164","174992.413199","175759.514883","176526.363353","177275.661607","178042.346835","178808.979503","182691.966722","183458.880119","184225.691798","184992.905712","185758.85758","186526.042122","172692.417496","173458.860641","185767.917592","Mapping"
"Blocked","Female","ball","3","F_bluff.wav","None","720.950781792","445","181942.759365","174225.495164","174992.413199","175759.514883","176526.363353","177275.661607","178042.346835","178808.979503","182691.966722","183458.880119","184225.691798","184992.905712","185758.85758","186526.042122","187275.378405","173458.860641","186535.521991","Mapping"
"Blocked","Female","ball","3","F_jolt.wav","None","736.011845044","445","181942.759365","174225.495164","174992.413199","175759.514883","176526.363353","177275.661607","178042.346835","178808.979503","182691.966722","183458.880119","184225.691798","184992.905712","185758.85758","186526.042122","187275.378405","188041.954185","187284.697194","Mapping"
"Blocked","Female","ball","3","F_gnash.wav","None","734.096207898","445","181942.759365","188808.597365","174992.413199","175759.514883","176526.363353","177275.661607","178042.346835","178808.979503","182691.966722","183458.880119","184225.691798","184992.905712","185758.85758","186526.042122","187275.378405","188041.954185","188050.854663","Mapping"
"Blocked","Female","ball","3","F_cad.wav","None","731.705680718","445","181942.759365","188808.597365","189575.554355","175759.514883","176526.363353","177275.661607","178042.346835","178808.979503","182691.966722","183458.880119","184225.691798","184992.905712","185758.85758","186526.042122","187275.378405","188041.954185","188817.39056","Mapping"
"Blocked","Female","ball","3","F_ball.wav","None","727.989418857","445","181942.759365","188808.597365","189575.554355","190342.123334","176526.363353","177275.661607","178042.346835","178808.979503","182691.966722","183458.880119","184225.691798","184992.905712","185758.85758","186526.042122","187275.378405","188041.954185","189585.155111","Mapping"
"Blocked","Female","ball","3","F_lash.wav","space","547.20224534","445","181942.759365","188808.597365","189575.554355","190342.123334","191109.264901","177275.661607","178042.346835","178808.979503","182691.966722","183458.880119","184225.691798","184992.905712","185758.85758","186526.042122","187275.378405","188041.954185","190351.237141","Mapping"
"Blocked","Female","ball","3","F_ball.wav","None","721.549959451","445","181942.759365","188808.597365","189575.554355","190342.123334","191109.264901","191875.753185","178042.346835","178808.979503","182691.966722","183458.880119","184225.691798","184992.905712","185758.85758","186526.042122","187275.378405","188041.954185","191118.663147","Mapping"
"Blocked","Female","ball","3","F_priest.wav","space","700.832263336","445","181942.759365","188808.597365","189575.554355","190342.123334","191109.264901","191875.753185","192624.766999","178808.979503","182691.966722","183458.880119","184225.691798","184992.905712","185758.85758","186526.042122","187275.378405","188041.954185","191885.552429","Mapping"
"Blocked","Female","ball","3","F_knife.wav","None","733.125404051","445","181942.759365","188808.597365","189575.554355","190342.123334","191109.264901","191875.753185","192624.766999","193392.093452","182691.966722","183458.880119","184225.691798","184992.905712","185758.85758","186526.042122","187275.378405","188041.954185","192634.838007","Mapping"
"Blocked","Female","tile","17","F_cad.wav","None","731.181322971","445","196525.911342","188808.597365","189575.554355","190342.123334","191109.264901","191875.753185","192624.766999","193392.093452","182691.966722","183458.880119","184225.691798","184992.905712","185758.85758","186526.042122","187275.378405","188041.954185","193400.972906","Mapping"
"Blocked","Female","tile","17","F_tile.wav","None","719.787053868","445","196525.911342","188808.597365","189575.554355","190342.123334","191109.264901","191875.753185","192624.766999","193392.093452","197275.261228","183458.880119","184225.691798","184992.905712","185758.85758","186526.042122","187275.378405","188041.954185","196535.459229","Mapping"
"Blocked","Female","tile","17","F_jolt.wav","space","550.050348856","445","196525.911342","188808.597365","189575.554355","190342.123334","191109.264901","191875.753185","192624.766999","193392.093452","197275.261228","198042.059922","184225.691798","184992.905712","185758.85758","186526.042122","187275.378405","188041.954185","197284.248893","Mapping"
"Blocked","Female","tile","17","F_romp.wav","None","731.185342223","445","196525.911342","188808.597365","189575.554355","190342.123334","191109.264901","191875.753185","192624.766999","193392.093452","197275.261228","198042.059922","198808.584689","184992.905712","185758.85758","186526.042122","187275.378405","188041.954185","198051.468372","Mapping"
"Blocked","Female","tile","17","F_lash.wav","None","729.303404955","445","196525.911342","188808.597365","189575.554355","190342.123334","191109.264901","191875.753185","192624.766999","193392.093452","197275.261228","198042.059922","198808.584689","199574.986095","185758.85758","186526.042122","187275.378405","188041.954185","198817.717974","Mapping"
"Blocked","Female","tile","17","F_tile.wav","None","727.418685129","445","196525.911342","188808.597365","189575.554355","190342.123334","191109.264901","191875.753185","192624.766999","193392.093452","197275.261228","198042.059922","198808.584689","199574.986095","200342.652329","186526.042122","187275.378405","188041.954185","199583.853491","Mapping"
"Blocked","Female","tile","17","F_greet.wav","space","458.160054637","445","196525.911342","188808.597365","189575.554355","190342.123334","191109.264901","191875.753185","192624.766999","193392.093452","197275.261228","198042.059922","198808.584689","199574.986095","200342.652329","201109.031475","187275.378405","188041.954185","200352.045629","Mapping"
"Blocked","Female","tile","17","F_romp.wav","None","719.54002448","445","196525.911342","188808.597365","189575.554355","190342.123334","191109.264901","191875.753185","192624.766999","193392.093452","197275.261228","198042.059922","198808.584689","199574.986095","200342.652329","201109.031475","201858.504103","188041.954185","201118.924708","Mapping"
"Blocked","Female","tile","17","F_greet.wav","None","734.851208852","445","196525.911342","188808.597365","189575.554355","190342.123334","191109.264901","191875.753185","192624.766999","193392.093452","197275.261228","198042.059922","198808.584689","199574.986095","200342.652329","201109.031475","201858.504103","202625.096578","201867.821655","Mapping"
"Blocked","Female","tile","17","F_tile.wav","None","733.17363507","445","196525.911342","203391.948141","189575.554355","190342.123334","191109.264901","191875.753185","192624.766999","193392.093452","197275.261228","198042.059922","198808.584689","199574.986095","200342.652329","201109.031475","201858.504103","202625.096578","202633.852054","Mapping"
"Blocked","Female","tile","17","F_cad.wav","space","560.847913684","445","196525.911342","203391.948141","204158.078711","190342.123334","191109.264901","191875.753185","192624.766999","193392.093452","197275.261228","198042.059922","198808.584689","199574.986095","200342.652329","201109.031475","201858.504103","202625.096578","203401.338967","Mapping"
"Blocked","Female","tile","17","F_dime.wav","None","728.726796938","445","196525.911342","203391.948141","204158.078711","204924.973558","191109.264901","191875.753185","192624.766999","193392.093452","197275.261228","198042.059922","198808.584689","199574.986095","200342.652329","201109.031475","201858.504103","202625.096578","204166.813782","Mapping"
"Blocked","Female","tile","17","F_tile.wav","None","726.500749899","445","196525.911342","203391.948141","204158.078711","204924.973558","205692.154081","191875.753185","192624.766999","193392.093452","197275.261228","198042.059922","198808.584689","199574.986095","200342.652329","201109.031475","201858.504103","202625.096578","204933.622678","Mapping"
"Blocked","Female","tile","17","F_bluff.wav","space","540.873779114","445","196525.911342","203391.948141","204158.078711","204924.973558","205692.154081","206459.244634","192624.766999","193392.093452","197275.261228","198042.059922","198808.584689","199574.986095","200342.652329","201109.031475","201858.504103","202625.096578","205701.280564","Mapping"
"Blocked","Female","tile","17","F_cling.wav","None","718.966817368","445","196525.911342","203391.948141","204158.078711","204924.973558","205692.154081","206459.244634","207208.693147","193392.093452","197275.261228","198042.059922","198808.584689","199574.986095","200342.652329","201109.031475","201858.504103","202625.096578","206468.59465","Mapping"
"Blocked","Female","tile","17","F_dime.wav","None","734.329942837","445","196525.911342","203391.948141","204158.078711","204924.973558","205692.154081","206459.244634","207208.693147","207975.231207","197275.261228","198042.059922","198808.584689","199574.986095","200342.652329","201109.031475","201858.504103","202625.096578","207217.696888","Mapping"
"Blocked","Female","cave","7","F_cling.wav","None","731.793176733","445","211108.622129","203391.948141","204158.078711","204924.973558","205692.154081","206459.244634","207208.693147","207975.231207","197275.261228","198042.059922","198808.584689","199574.986095","200342.652329","201109.031475","201858.504103","202625.096578","207984.925333","Mapping"
"Blocked","Female","cave","7","F_bluff.wav","None","720.816909796","445","211108.622129","203391.948141","204158.078711","204924.973558","205692.154081","206459.244634","207208.693147","207975.231207","211858.286135","198042.059922","198808.584689","199574.986095","200342.652329","201109.031475","201858.504103","202625.096578","211117.922987","Mapping"
"Blocked","Female","cave","7","F_lash.wav","None","735.142450006","445","211108.622129","203391.948141","204158.078711","204924.973558","205692.154081","206459.244634","207208.693147","207975.231207","211858.286135","212624.859751","198808.584689","199574.986095","200342.652329","201109.031475","201858.504103","202625.096578","211867.746835","Mapping"
"Blocked","Female","cave","7","F_cave.wav","None","733.440451541","445","211108.622129","203391.948141","204158.078711","204924.973558","205692.154081","206459.244634","207208.693147","207975.231207","211858.286135","212624.859751","213391.75769","199574.986095","200342.652329","201109.031475","201858.504103","202625.096578","212633.676443","Mapping"
"Blocked","Female","cave","7","F_romp.wav","space","449.260813255","445","211108.622129","203391.948141","204158.078711","204924.973558","205692.154081","206459.244634","207208.693147","207975.231207","211858.286135","212624.859751","213391.75769","214158.171154","200342.652329","201109.031475","201858.504103","202625.096578","213400.758958","Mapping"
"Blocked","Female","cave","7","F_cave.wav","None","727.321295572","445","211108.622129","203391.948141","204158.078711","204924.973558","205692.154081","206459.244634","207208.693147","207975.231207","211858.286135","212624.859751","213391.75769","214158.171154","214925.43639","201109.031475","201858.504103","202625.096578","214167.23302","Mapping"
"Blocked","Female","cave","7","F_jolt.wav","space","578.942584373","445","211108.622129","203391.948141","204158.078711","204924.973558","205692.154081","206459.244634","207208.693147","207975.231207","211858.286135","212624.859751","213391.75769","214158.171154","214925.43639","215692.065657","201858.504103","202625.096578","214935.038073","Mapping"
"Blocked","Female","cave","7","F_cave.wav","None","720.16610021","445","211108.622129","203391.948141","204158.078711","204924.973558","205692.154081","206459.244634","207208.693147","207975.231207","211858.286135","212624.859751","213391.75769","214158.171154","214925.43639","215692.065657","216441.565492","202625.096578","215701.534086","Mapping"
"Blocked","Female","cave","7","F_greet.wav","space","631.341258267","445","211108.622129","203391.948141","204158.078711","204924.973558","205692.154081","206459.244634","207208.693147","207975.231207","211858.286135","212624.859751","213391.75769","214158.171154","214925.43639","215692.065657","216441.565492","217208.26185","216450.602934","Mapping"
"Blocked","Female","cave","7","F_cave.wav","None","731.395889172","445","211108.622129","217974.874731","204158.078711","204924.973558","205692.154081","206459.244634","207208.693147","207975.231207","211858.286135","212624.859751","213391.75769","214158.171154","214925.43639","215692.065657","216441.565492","217208.26185","217217.695343","Mapping"
"Blocked","Female","cave","7","F_knife.wav","space","618.089476579","445","211108.622129","217974.874731","218741.59675","204924.973558","205692.154081","206459.244634","207208.693147","207975.231207","211858.286135","212624.859751","213391.75769","214158.171154","214925.43639","215692.065657","216441.565492","217208.26185","217983.819421","Mapping"
"Blocked","Female","cave","7","F_jaw.wav","None","725.728126074","445","211108.622129","217974.874731","218741.59675","219508.67339","205692.154081","206459.244634","207208.693147","207975.231207","211858.286135","212624.859751","213391.75769","214158.171154","214925.43639","215692.065657","216441.565492","217208.26185","218750.602965","Mapping"
"Blocked","Female","cave","7","F_romp.wav","None","722.774594496","445","211108.622129","217974.874731","218741.59675","219508.67339","220275.329865","206459.244634","207208.693147","207975.231207","211858.286135","212624.859751","213391.75769","214158.171154","214925.43639","215692.065657","216441.565492","217208.26185","219518.16037","Mapping"
"Blocked","Female","cave","7","F_romp.wav","None","720.561223559","445","211108.622129","217974.874731","218741.59675","219508.67339","220275.329865","221025.014894","207208.693147","207975.231207","211858.286135","212624.859751","213391.75769","214158.171154","214925.43639","215692.065657","216441.565492","217208.26185","220285.20362","Mapping"
"Blocked","Female","cave","7","F_lash.wav","None","736.069660433","445","211108.622129","217974.874731","218741.59675","219508.67339","220275.329865","221025.014894","221791.578617","207975.231207","211858.286135","212624.859751","213391.75769","214158.171154","214925.43639","215692.065657","216441.565492","217208.26185","221034.123137","Mapping"
"Blocked","Female","cave","7","F_lash.wav","None","733.889061854","445","211108.622129","217974.874731","218741.59675","219508.67339","220275.329865","221025.014894","221791.578617","222558.033819","211858.286135","212624.859751","213391.75769","214158.171154","214925.43639","215692.065657","216441.565492","217208.26185","221800.607711","Mapping"
"Blocked","Female","cave","12","F_jolt.wav","None","731.841716925","445","225691.74319","217974.874731","218741.59675","219508.67339","220275.329865","221025.014894","221791.578617","222558.033819","211858.286135","212624.859751","213391.75769","214158.171154","214925.43639","215692.065657","216441.565492","217208.26185","222567.009736","Mapping"
"Blocked","Female","cave","12","F_cave.wav","None","719.772213553","445","225691.74319","217974.874731","218741.59675","219508.67339","220275.329865","221025.014894","221791.578617","222558.033819","226441.185828","212624.859751","213391.75769","214158.171154","214925.43639","215692.065657","216441.565492","217208.26185","225701.927664","Mapping"
"Blocked","Female","cave","12","F_gnash.wav","space","471.529322142","445","225691.74319","217974.874731","218741.59675","219508.67339","220275.329865","221025.014894","221791.578617","222558.033819","226441.185828","227208.159823","213391.75769","214158.171154","214925.43639","215692.065657","216441.565492","217208.26185","226450.282012","Mapping"
"Blocked","Female","cave","12","F_greet.wav","None","731.912517588","445","225691.74319","217974.874731","218741.59675","219508.67339","220275.329865","221025.014894","221791.578617","222558.033819","226441.185828","227208.159823","227975.005202","214158.171154","214925.43639","215692.065657","216441.565492","217208.26185","227217.247969","Mapping"
"Blocked","Female","cave","12","F_cave.wav","None","729.108007493","445","225691.74319","217974.874731","218741.59675","219508.67339","220275.329865","221025.014894","221791.578617","222558.033819","226441.185828","227208.159823","227975.005202","228741.41341","214925.43639","215692.065657","216441.565492","217208.26185","227984.559272","Mapping"
"Blocked","Female","cave","12","F_knife.wav","space","363.384556119","445","225691.74319","217974.874731","218741.59675","219508.67339","220275.329865","221025.014894","221791.578617","222558.033819","226441.185828","227208.159823","227975.005202","228741.41341","229508.457897","215692.065657","216441.565492","217208.26185","228750.34295","Mapping"
"Blocked","Female","cave","12","F_bluff.wav","None","723.226914887","445","225691.74319","217974.874731","218741.59675","219508.67339","220275.329865","221025.014894","221791.578617","222558.033819","226441.185828","227208.159823","227975.005202","228741.41341","229508.457897","230275.376241","216441.565492","217208.26185","229518.202727","Mapping"
"Blocked","Female","cave","12","F_cad.wav","None","721.070740992","445","225691.74319","217974.874731","218741.59675","219508.67339","220275.329865","221025.014894","221791.578617","222558.033819","226441.185828","227208.159823","227975.005202","228741.41341","229508.457897","230275.376241","231041.670055","217208.26185","230284.67277","Mapping"
"Blocked","Female","cave","12","F_lash.wav","None","719.348955443","445","225691.74319","217974.874731","218741.59675","219508.67339","220275.329865","221025.014894","221791.578617","222558.033819","226441.185828","227208.159823","227975.005202","228741.41341","229508.457897","230275.376241","231041.670055","231791.308709","231050.906913","Mapping"
"Blocked","Female","cave","12","F_greet.wav","None","733.91967","445","225691.74319","232557.809359","218741.59675","219508.67339","220275.329865","221025.014894","221791.578617","222558.033819","226441.185828","227208.159823","227975.005202","228741.41341","229508.457897","230275.376241","231041.670055","231791.308709","231800.737564","Mapping"
"Blocked","Female","cave","12","F_romp.wav","None","732.683595548","445","225691.74319","232557.809359","233324.715337","219508.67339","220275.329865","221025.014894","221791.578617","222558.033819","226441.185828","227208.159823","227975.005202","228741.41341","229508.457897","230275.376241","231041.670055","231791.308709","232566.606883","Mapping"
"Blocked","Female","cave","12","F_dime.wav","None","729.505913401","445","225691.74319","232557.809359","233324.715337","234091.339966","220275.329865","221025.014894","221791.578617","222558.033819","226441.185828","227208.159823","227975.005202","228741.41341","229508.457897","230275.376241","231041.670055","231791.308709","233334.151921","Mapping"
"Blocked","Female","cave","12","F_cave.wav","None","727.787219584","445","225691.74319","232557.809359","233324.715337","234091.339966","234857.76085","221025.014894","221791.578617","222558.033819","226441.185828","227208.159823","227975.005202","228741.41341","229508.457897","230275.376241","231041.670055","231791.308709","234100.271052","Mapping"
"Blocked","Female","cave","12","F_cad.wav","space","574.78358649","445","225691.74319","232557.809359","233324.715337","234091.339966","234857.76085","235623.973352","221791.578617","222558.033819","226441.185828","227208.159823","227975.005202","228741.41341","229508.457897","230275.376241","231041.670055","231791.308709","234866.825499","Mapping"
"Blocked","Female","cave","12","F_cave.wav","None","726.749943498","445","225691.74319","232557.809359","233324.715337","234091.339966","234857.76085","235623.973352","236391.703585","222558.033819","226441.185828","227208.159823","227975.005202","228741.41341","229508.457897","230275.376241","231041.670055","231791.308709","235632.629892","Mapping"
"Blocked","Female","cave","12","F_cad.wav","space","688.359598113","445","225691.74319","232557.809359","233324.715337","234091.339966","234857.76085","235623.973352","236391.703585","237141.473019","226441.185828","227208.159823","227975.005202","228741.41341","229508.457897","230275.376241","231041.670055","231791.308709","236401.221791","Mapping"
"Blocked","Female","done","22","F_park.wav","None","736.359046547","445","240274.971842","232557.809359","233324.715337","234091.339966","234857.76085","235623.973352","236391.703585","237141.473019","226441.185828","227208.159823","227975.005202","228741.41341","229508.457897","230275.376241","231041.670055","231791.308709","237150.430694","Mapping"
"Blocked","Female","done","22","F_bluff.wav","None","719.924326768","445","240274.971842","232557.809359","233324.715337","234091.339966","234857.76085","235623.973352","236391.703585","237141.473019","241024.252164","227208.159823","227975.005202","228741.41341","229508.457897","230275.376241","231041.670055","231791.308709","240284.405644","Mapping"
"Blocked","Female","done","22","F_depth.wav","None","735.270756883","445","240274.971842","232557.809359","233324.715337","234091.339966","234857.76085","235623.973352","236391.703585","237141.473019","241024.252164","241791.239763","227975.005202","228741.41341","229508.457897","230275.376241","231041.670055","231791.308709","241033.439555","Mapping"
"Blocked","Female","done","22","F_done.wav","None","733.006990716","445","240274.971842","232557.809359","233324.715337","234091.339966","234857.76085","235623.973352","236391.703585","237141.473019","241024.252164","241791.239763","242557.978786","228741.41341","229508.457897","230275.376241","231041.670055","231791.308709","241800.237321","Mapping"
"Blocked","Female","done","22","F_knife.wav","space","450.474627237","445","240274.971842","232557.809359","233324.715337","234091.339966","234857.76085","235623.973352","236391.703585","237141.473019","241024.252164","241791.239763","242557.978786","243324.585793","229508.457897","230275.376241","231041.670055","231791.308709","242567.027358","Mapping"
"Blocked","Female","done","22","F_done.wav","None","726.779933299","445","240274.971842","232557.809359","233324.715337","234091.339966","234857.76085","235623.973352","236391.703585","237141.473019","241024.252164","241791.239763","242557.978786","243324.585793","244091.185379","230275.376241","231041.670055","231791.308709","243334.133989","Mapping"
"Blocked","Female","done","22","F_bluff.wav","space","716.875879018","445","240274.971842","232557.809359","233324.715337","234091.339966","234857.76085","235623.973352","236391.703585","237141.473019","241024.252164","241791.239763","242557.978786","243324.585793","244091.185379","244857.976035","231041.670055","231791.308709","244100.560438","Mapping"
"Blocked","Female","done","22","F_gnash.wav","None","721.986202837","445","240274.971842","232557.809359","233324.715337","234091.339966","234857.76085","235623.973352","236391.703585","237141.473019","241024.252164","241791.239763","242557.978786","243324.585793","244091.185379","244857.976035","245624.803482","231791.308709","244867.833404","Mapping"
"Blocked","Female","done","22","F_done.wav","None","720.123743481","445","240274.971842","232557.809359","233324.715337","234091.339966","234857.76085","235623.973352","236391.703585","237141.473019","241024.252164","241791.239763","242557.978786","243324.585793","244091.185379","244857.976035","245624.803482","246374.325886","245634.355388","Mapping"
"Blocked","Female","done","22","F_jaw.wav","space","425.405627509","445","240274.971842","247140.692356","233324.715337","234091.339966","234857.76085","235623.973352","236391.703585","237141.473019","241024.252164","241791.239763","242557.978786","243324.585793","244091.185379","244857.976035","245624.803482","246374.325886","246384.016302","Mapping"
"Blocked","Female","done","22","F_jolt.wav","None","732.546631821","445","240274.971842","247140.692356","247907.533098","234091.339966","234857.76085","235623.973352","236391.703585","237141.473019","241024.252164","241791.239763","242557.978786","243324.585793","244091.185379","244857.976035","245624.803482","246374.325886","247149.508739","Mapping"
"Blocked","Female","done","22","F_knife.wav","None","730.303580257","445","240274.971842","247140.692356","247907.533098","248674.176278","234857.76085","235623.973352","236391.703585","237141.473019","241024.252164","241791.239763","242557.978786","243324.585793","244091.185379","244857.976035","245624.803482","246374.325886","247916.341442","Mapping"
"Blocked","Female","done","22","F_romp.wav","None","728.296427844","445","240274.971842","247140.692356","247907.533098","248674.176278","249441.043299","235623.973352","236391.703585","237141.473019","241024.252164","241791.239763","242557.978786","243324.585793","244091.185379","244857.976035","245624.803482","246374.325886","248682.988332","Mapping"
"Blocked","Female","done","22","F_done.wav","None","725.780376344","445","240274.971842","247140.692356","247907.533098","248674.176278","249441.043299","250208.086549","236391.703585","237141.473019","241024.252164","241791.239763","242557.978786","243324.585793","244091.185379","244857.976035","245624.803482","246374.325886","249450.067137","Mapping"
"Blocked","Female","done","22","F_bluff.wav","space","479.754256774","445","240274.971842","247140.692356","247907.533098","248674.176278","249441.043299","250208.086549","250975.070128","237141.473019","241024.252164","241791.239763","242557.978786","243324.585793","244091.185379","244857.976035","245624.803482","246374.325886","250217.594861","Mapping"
"Blocked","Female","done","22","F_jolt.wav","None","719.677606554","445","240274.971842","247140.692356","247907.533098","248674.176278","249441.043299","250208.086549","250975.070128","251724.046224","241024.252164","241791.239763","242557.978786","243324.585793","244091.185379","244857.976035","245624.803482","246374.325886","250984.388918","Mapping"
"Blocked","Female","tile","18","F_greet.wav","None","735.487487296","445","254857.985928","247140.692356","247907.533098","248674.176278","249441.043299","250208.086549","250975.070128","251724.046224","241024.252164","241791.239763","242557.978786","243324.585793","244091.185379","244857.976035","245624.803482","246374.325886","251733.08583","Mapping"
"Blocked","Female","tile","18","F_tile.wav","None","719.016594253","445","254857.985928","247140.692356","247907.533098","248674.176278","249441.043299","250208.086549","250975.070128","251724.046224","255607.285419","241791.239763","242557.978786","243324.585793","244091.185379","244857.976035","245624.803482","246374.325886","254868.127737","Mapping"
"Blocked","Female","tile","18","F_dime.wav","space","569.136847169","445","254857.985928","247140.692356","247907.533098","248674.176278","249441.043299","250208.086549","250975.070128","251724.046224","255607.285419","256374.297752","242557.978786","243324.585793","244091.185379","244857.976035","245624.803482","246374.325886","255616.082015","Mapping"
"Blocked","Female","tile","18","F_greet.wav","None","731.520795144","445","254857.985928","247140.692356","247907.533098","248674.176278","249441.043299","250208.086549","250975.070128","251724.046224","255607.285419","256374.297752","257140.693284","243324.585793","244091.185379","244857.976035","245624.803482","246374.325886","256383.40383","Mapping"
"Blocked","Female","tile","18","F_depth.wav","None","729.952050328","445","254857.985928","247140.692356","247907.533098","248674.176278","249441.043299","250208.086549","250975.070128","251724.046224","255607.285419","256374.297752","257140.693284","257907.541755","244091.185379","244857.976035","245624.803482","246374.325886","257149.668891","Mapping"
"Blocked","Female","tile","18","F_jolt.wav","None","727.103019292","445","254857.985928","247140.692356","247907.533098","248674.176278","249441.043299","250208.086549","250975.070128","251724.046224","255607.285419","256374.297752","257140.693284","257907.541755","258673.995411","244857.976035","245624.803482","246374.325886","257917.298952","Mapping"
"Blocked","Female","tile","18","F_tile.wav","None","726.354201803","445","254857.985928","247140.692356","247907.533098","248674.176278","249441.043299","250208.086549","250975.070128","251724.046224","255607.285419","256374.297752","257140.693284","257907.541755","258673.995411","259441.011145","245624.803482","246374.325886","258682.782732","Mapping"
"Blocked","Female","tile","18","F_greet.wav","space","486.62872287","445","254857.985928","247140.692356","247907.533098","248674.176278","249441.043299","250208.086549","250975.070128","251724.046224","255607.285419","256374.297752","257140.693284","257907.541755","258673.995411","259441.011145","260207.909083","246374.325886","259450.536153","Mapping"
"Blocked","Female","tile","18","F_reek.wav","None","719.422538664","445","254857.985928","247140.692356","247907.533098","248674.176278","249441.043299","250208.086549","250975.070128","251724.046224","255607.285419","256374.297752","257140.693284","257907.541755","258673.995411","259441.011145","260207.909083","260957.334408","260217.748211","Mapping"
"Blocked","Female","tile","18","F_tile.wav","None","741.069609418","445","254857.985928","261724.318605","247907.533098","248674.176278","249441.043299","250208.086549","250975.070128","251724.046224","255607.285419","256374.297752","257140.693284","257907.541755","258673.995411","259441.011145","260207.909083","260957.334408","260960.884953","Mapping"
"Blocked","Female","tile","18","F_dime.wav","space","619.78436406","445","254857.985928","261724.318605","262490.585212","248674.176278","249441.043299","250208.086549","250975.070128","251724.046224","255607.285419","256374.297752","257140.693284","257907.541755","258673.995411","259441.011145","260207.909083","260957.334408","261733.318637","Mapping"
"Blocked","Female","tile","18","F_greet.wav","None","730.088086536","445","254857.985928","261724.318605","262490.585212","263257.425026","249441.043299","250208.086549","250975.070128","251724.046224","255607.285419","256374.297752","257140.693284","257907.541755","258673.995411","259441.011145","260207.909083","260957.334408","262499.532685","Mapping"
"Blocked","Female","tile","18","F_park.wav","None","727.509891224","445","254857.985928","261724.318605","262490.585212","263257.425026","264024.2837","250208.086549","250975.070128","251724.046224","255607.285419","256374.297752","257140.693284","257907.541755","258673.995411","259441.011145","260207.909083","260957.334408","263266.851408","Mapping"
"Blocked","Female","tile","18","F_gnash.wav","None","725.160174906","445","254857.985928","261724.318605","262490.585212","263257.425026","264024.2837","264791.135572","250975.070128","251724.046224","255607.285419","256374.297752","257140.693284","257907.541755","258673.995411","259441.011145","260207.909083","260957.334408","264033.837152","Mapping"
"Blocked","Female","tile","18","F_tile.wav","None","723.405616997","445","254857.985928","261724.318605","262490.585212","263257.425026","264024.2837","264791.135572","265557.821726","251724.046224","255607.285419","256374.297752","257140.693284","257907.541755","258673.995411","259441.011145","260207.909083","260957.334408","264800.311214","Mapping"
"Blocked","Female","tile","18","F_priest.wav","space","481.788307255","445","254857.985928","261724.318605","262490.585212","263257.425026","264024.2837","264791.135572","265557.821726","266306.887173","255607.285419","256374.297752","257140.693284","257907.541755","258673.995411","259441.011145","260207.909083","260957.334408","265567.297885","Mapping"
"Blocked","Female","tile","16","F_depth.wav","None","736.698518721","445","269441.004343","261724.318605","262490.585212","263257.425026","264024.2837","264791.135572","265557.821726","266306.887173","255607.285419","256374.297752","257140.693284","257907.541755","258673.995411","259441.011145","260207.909083","260957.334408","266315.702629","Mapping"
"Blocked","Female","tile","16","F_cad.wav","space","717.959840256","445","269441.004343","261724.318605","262490.585212","263257.425026","264024.2837","264791.135572","265557.821726","266306.887173","270190.425957","256374.297752","257140.693284","257907.541755","258673.995411","259441.011145","260207.909083","260957.334408","269451.04938","Mapping"
"Blocked","Female","tile","16","F_tile.wav","None","734.790920078","445","269441.004343","261724.318605","262490.585212","263257.425026","264024.2837","264791.135572","265557.821726","266306.887173","270190.425957","270957.096035","257140.693284","257907.541755","258673.995411","259441.011145","260207.909083","260957.334408","270199.276968","Mapping"
"Blocked","Female","tile","16","F_dime.wav","space","723.077275059","445","269441.004343","261724.318605","262490.585212","263257.425026","264024.2837","264791.135572","265557.821726","266306.887173","270190.425957","270957.096035","271724.150724","257907.541755","258673.995411","259441.011145","260207.909083","260957.334408","270965.907471","Mapping"
"Blocked","Female","tile","16","F_reek.wav","None","728.47389326","445","269441.004343","261724.318605","262490.585212","263257.425026","264024.2837","264791.135572","265557.821726","266306.887173","270190.425957","270957.096035","271724.150724","272490.64983","258673.995411","259441.011145","260207.909083","260957.334408","271733.619772","Mapping"
"Blocked","Female","tile","16","F_tile.wav","None","727.648400817","445","269441.004343","261724.318605","262490.585212","263257.425026","264024.2837","264791.135572","265557.821726","266306.887173","270190.425957","270957.096035","271724.150724","272490.64983","273257.572811","259441.011145","260207.909083","260957.334408","272499.639349","Mapping"
"Blocked","Female","tile","16","F_depth.wav","None","725.484806765","445","269441.004343","261724.318605","262490.585212","263257.425026","264024.2837","264791.135572","265557.821726","266306.887173","270190.425957","270957.096035","271724.150724","272490.64983","273257.572811","274024.287719","260207.909083","260957.334408","273266.560476","Mapping"
"Blocked","Female","tile","16","F_romp.wav","None","723.561131116","445","269441.004343","261724.318605","262490.585212","263257.425026","264024.2837","264791.135572","265557.821726","266306.887173","270190.425957","270957.096035","271724.150724","272490.64983","273257.572811","274024.287719","274791.030143","260957.334408","274033.726158","Mapping"
"Blocked","Female","tile","16","F_tile.wav","None","721.488124813","445","269441.004343","261724.318605","262490.585212","263257.425026","264024.2837","264791.135572","265557.821726","266306.887173","270190.425957","270957.096035","271724.150724","272490.64983","273257.572811","274024.287719","274791.030143","275557.371879","274800.569373","Mapping"
"Blocked","Female","tile","16","F_romp.wav","space","602.170457697","445","269441.004343","276307.164811","262490.585212","263257.425026","264024.2837","264791.135572","265557.821726","266306.887173","270190.425957","270957.096035","271724.150724","272490.64983","273257.572811","274024.287719","274791.030143","275557.371879","275566.714475","Mapping"
"Blocked","Female","tile","16","F_romp.wav","None","733.422210323","445","269441.004343","276307.164811","277073.698234","263257.425026","264024.2837","264791.135572","265557.821726","266306.887173","270190.425957","270957.096035","271724.150724","272490.64983","273257.572811","274024.287719","274791.030143","275557.371879","276316.627366","Mapping"
"Blocked","Female","tile","16","F_tile.wav","None","732.474903639","445","269441.004343","276307.164811","277073.698234","277840.464156","264024.2837","264791.135572","265557.821726","266306.887173","270190.425957","270957.096035","271724.150724","272490.64983","273257.572811","274024.287719","274791.030143","275557.371879","277082.462676","Mapping"
