"Condition","Talker","Target","Trial","current_stimulus","response_response","response_time_response","subject_nr","time_Audio1","time_Audio10","time_Audio11","time_Audio12","time_Audio13","time_Audio14","time_Audio15","time_Audio16","time_Audio2","time_Audio3","time_Audio4","time_Audio5","time_Audio6","time_Audio7","time_Audio8","time_Audio9","time_response","title"
"Blocked","Male","ball","1","M_jaw.wav","NA","NA","121","817494.075469","NA","NA","NA","NA","NA","NA","NA","NA","NA","NA","NA","NA","NA","NA","NA","NA","Mapping"
"Blocked","Male","ball","1","M_done.wav","None","716.488175793","121","817494.075469","NA","NA","NA","NA","NA","NA","NA","818244.442225","NA","NA","NA","NA","NA","NA","NA","817508.352778","Mapping"
"Blocked","Male","ball","1","M_ball.wav","None","734.704969916","121","817494.075469","NA","NA","NA","NA","NA","NA","NA","818244.442225","819010.477571","NA","NA","NA","NA","NA","NA","818254.315053","Mapping"
"Blocked","Male","ball","1","M_romp.wav","space","571.395048231","121","817494.075469","NA","NA","NA","NA","NA","NA","NA","818244.442225","819010.477571","819777.013776","NA","NA","NA","NA","NA","819020.112026","Mapping"
"Blocked","Male","ball","1","M_ball.wav","None","730.142501066","121","817494.075469","NA","NA","NA","NA","NA","NA","NA","818244.442225","819010.477571","819777.013776","820543.540089","NA","NA","NA","NA","819787.099006","Mapping"
"Blocked","Male","ball","1","M_tile.wav","space","478.487265005","121","817494.075469","NA","NA","NA","NA","NA","NA","NA","818244.442225","819010.477571","819777.013776","820543.540089","821310.417004","NA","NA","NA","820552.995224","Mapping"
"Blocked","Male","ball","1","M_ball.wav","None","726.290202932","121","817494.075469","NA","NA","NA","NA","NA","NA","NA","818244.442225","819010.477571","819777.013776","820543.540089","821310.417004","822076.304873","NA","NA","821319.584916","Mapping"
"Blocked","Male","ball","1","M_romp.wav","space","378.293196962","121","817494.075469","NA","NA","NA","NA","NA","NA","NA","818244.442225","819010.477571","819777.013776","820543.540089","821310.417004","822076.304873","822843.900616","NA","822085.231631","Mapping"
"Blocked","Male","ball","1","M_jolt.wav","None","721.966724959","121","817494.075469","NA","NA","NA","NA","NA","NA","NA","818244.442225","819010.477571","819777.013776","820543.540089","821310.417004","822076.304873","822843.900616","823610.692508","822854.102404","Mapping"
"Blocked","Male","ball","1","M_park.wav","None","719.426867086","121","817494.075469","824360.247994","NA","NA","NA","NA","NA","NA","818244.442225","819010.477571","819777.013776","820543.540089","821310.417004","822076.304873","822843.900616","823610.692508","823620.821331","Mapping"
"Blocked","Male","ball","1","M_done.wav","None","734.507099085","121","817494.075469","824360.247994","825126.96723","NA","NA","NA","NA","NA","818244.442225","819010.477571","819777.013776","820543.540089","821310.417004","822076.304873","822843.900616","823610.692508","824369.96809","Mapping"
"Blocked","Male","ball","1","M_dime.wav","None","732.25631821","121","817494.075469","824360.247994","825126.96723","825893.365854","NA","NA","NA","NA","818244.442225","819010.477571","819777.013776","820543.540089","821310.417004","822076.304873","822843.900616","823610.692508","825136.42051","Mapping"
"Blocked","Male","ball","1","M_ball.wav","None","730.560812342","121","817494.075469","824360.247994","825126.96723","825893.365854","826660.158983","NA","NA","NA","818244.442225","819010.477571","819777.013776","820543.540089","821310.417004","822076.304873","822843.900616","823610.692508","825902.362794","Mapping"
"Blocked","Male","ball","1","M_dime.wav","space","553.611714975","121","817494.075469","824360.247994","825126.96723","825893.365854","826660.158983","827426.910373","NA","NA","818244.442225","819010.477571","819777.013776","820543.540089","821310.417004","822076.304873","822843.900616","823610.692508","826669.754792","Mapping"
"Blocked","Male","ball","1","M_tile.wav","None","724.761650607","121","817494.075469","824360.247994","825126.96723","825893.365854","826660.158983","827426.910373","828193.908484","NA","818244.442225","819010.477571","819777.013776","820543.540089","821310.417004","822076.304873","822843.900616","823610.692508","827436.273375","Mapping"
"Blocked","Male","ball","1","M_gnash.wav","None","721.109387639","121","817494.075469","824360.247994","825126.96723","825893.365854","826660.158983","827426.910373","828193.908484","828960.69512","818244.442225","819010.477571","819777.013776","820543.540089","821310.417004","822076.304873","822843.900616","823610.692508","828204.301341","Mapping"
"Blocked","Male","tile","16","M_bluff.wav","None","718.866336043","121","832093.740696","824360.247994","825126.96723","825893.365854","826660.158983","827426.910373","828193.908484","828960.69512","818244.442225","819010.477571","819777.013776","820543.540089","821310.417004","822076.304873","822843.900616","823610.692508","828970.748505","Mapping"
"Blocked","Male","tile","16","M_tile.wav","None","722.140789439","121","832093.740696","824360.247994","825126.96723","825893.365854","826660.158983","827426.910373","828193.908484","828960.69512","832860.701396","819010.477571","819777.013776","820543.540089","821310.417004","822076.304873","822843.900616","823610.692508","832103.316408","Mapping"
"Blocked","Male","tile","16","M_park.wav","space","424.393394438","121","832093.740696","824360.247994","825126.96723","825893.365854","826660.158983","827426.910373","828193.908484","828960.69512","832860.701396","833610.022839","819777.013776","820543.540089","821310.417004","822076.304873","822843.900616","823610.692508","832870.876596","Mapping"
"Blocked","Male","tile","16","M_romp.wav","None","734.734032245","121","832093.740696","824360.247994","825126.96723","825893.365854","826660.158983","827426.910373","828193.908484","828960.69512","832860.701396","833610.022839","834377.279109","820543.540089","821310.417004","822076.304873","822843.900616","823610.692508","833619.361106","Mapping"
"Blocked","Male","tile","16","M_park.wav","None","731.654357922","121","832093.740696","824360.247994","825126.96723","825893.365854","826660.158983","827426.910373","828193.908484","828960.69512","832860.701396","833610.022839","834377.279109","835143.15523","821310.417004","822076.304873","822843.900616","823610.692508","834386.697761","Mapping"
"Blocked","Male","tile","16","M_tile.wav","None","730.369124969","121","832093.740696","824360.247994","825126.96723","825893.365854","826660.158983","827426.910373","828193.908484","828960.69512","832860.701396","833610.022839","834377.279109","835143.15523","835910.171582","822076.304873","822843.900616","823610.692508","835152.405074","Mapping"
"Blocked","Male","tile","16","M_reek.wav","space","359.254620504","121","832093.740696","824360.247994","825126.96723","825893.365854","826660.158983","827426.910373","828193.908484","828960.69512","832860.701396","833610.022839","834377.279109","835143.15523","835910.171582","836676.753236","822843.900616","823610.692508","835919.951349","Mapping"
"Blocked","Male","tile","16","M_tile.wav","None","725.266839669","121","832093.740696","824360.247994","825126.96723","825893.365854","826660.158983","827426.910373","828193.908484","828960.69512","832860.701396","833610.022839","834377.279109","835143.15523","835910.171582","836676.753236","837443.737125","823610.692508","836686.222284","Mapping"
"Blocked","Male","tile","16","M_priest.wav","space","505.669154343","121","832093.740696","824360.247994","825126.96723","825893.365854","826660.158983","827426.910373","828193.908484","828960.69512","832860.701396","833610.022839","834377.279109","835143.15523","835910.171582","836676.753236","837443.737125","838210.366083","837453.523075","Mapping"
"Blocked","Male","tile","16","M_depth.wav","None","719.779324543","121","832093.740696","838959.633729","825126.96723","825893.365854","826660.158983","827426.910373","828193.908484","828960.69512","832860.701396","833610.022839","834377.279109","835143.15523","835910.171582","836676.753236","837443.737125","838210.366083","838220.179858","Mapping"
"Blocked","Male","tile","16","M_cad.wav","None","735.397208715","121","832093.740696","838959.633729","839726.703567","825893.365854","826660.158983","827426.910373","828193.908484","828960.69512","832860.701396","833610.022839","834377.279109","835143.15523","835910.171582","836676.753236","837443.737125","838210.366083","838969.068458","Mapping"
"Blocked","Male","tile","16","M_knife.wav","None","732.877756294","121","832093.740696","838959.633729","839726.703567","840493.250594","826660.158983","827426.910373","828193.908484","828960.69512","832860.701396","833610.022839","834377.279109","835143.15523","835910.171582","836676.753236","837443.737125","838210.366083","839735.886939","Mapping"
"Blocked","Male","tile","16","M_tile.wav","None","730.410554213","121","832093.740696","838959.633729","839726.703567","840493.250594","841260.091336","827426.910373","828193.908484","828960.69512","832860.701396","833610.022839","834377.279109","835143.15523","835910.171582","836676.753236","837443.737125","838210.366083","840502.743139","Mapping"
"Blocked","Male","tile","16","M_cave.wav","space","441.538903397","121","832093.740696","838959.633729","839726.703567","840493.250594","841260.091336","842026.679174","828193.908484","828960.69512","832860.701396","833610.022839","834377.279109","835143.15523","835910.171582","836676.753236","837443.737125","838210.366083","841269.570277","Mapping"
"Blocked","Male","tile","16","M_romp.wav","None","725.466874719","121","832093.740696","838959.633729","839726.703567","840493.250594","841260.091336","842026.679174","842793.820122","828960.69512","832860.701396","833610.022839","834377.279109","835143.15523","835910.171582","836676.753236","837443.737125","838210.366083","842036.144511","Mapping"
"Blocked","Male","tile","16","M_reek.wav","None","722.304960422","121","832093.740696","838959.633729","839726.703567","840493.250594","841260.091336","842026.679174","842793.820122","843560.399303","832860.701396","833610.022839","834377.279109","835143.15523","835910.171582","836676.753236","837443.737125","838210.366083","842803.735307","Mapping"
"Blocked","Male","tile","17","M_reek.wav","None","720.04861437","121","846677.016343","838959.633729","839726.703567","840493.250594","841260.091336","842026.679174","842793.820122","843560.399303","832860.701396","833610.022839","834377.279109","835143.15523","835910.171582","836676.753236","837443.737125","838210.366083","843570.469693","Mapping"
"Blocked","Male","tile","17","M_tile.wav","None","720.379429753","121","846677.016343","838959.633729","839726.703567","840493.250594","841260.091336","842026.679174","842793.820122","843560.399303","847426.396528","833610.022839","834377.279109","835143.15523","835910.171582","836676.753236","837443.737125","838210.366083","846686.678005","Mapping"
"Blocked","Male","tile","17","M_bluff.wav","space","411.534571904","121","846677.016343","838959.633729","839726.703567","840493.250594","841260.091336","842026.679174","842793.820122","843560.399303","847426.396528","848193.004153","834377.279109","835143.15523","835910.171582","836676.753236","837443.737125","838210.366083","847435.463032","Mapping"
"Blocked","Male","tile","17","M_greet.wav","None","732.882703072","121","846677.016343","838959.633729","839726.703567","840493.250594","841260.091336","842026.679174","842793.820122","843560.399303","847426.396528","848193.004153","848959.929917","835143.15523","835910.171582","836676.753236","837443.737125","838210.366083","848202.706935","Mapping"
"Blocked","Male","tile","17","M_tile.wav","None","730.547517887","121","846677.016343","838959.633729","839726.703567","840493.250594","841260.091336","842026.679174","842793.820122","843560.399303","847426.396528","848193.004153","848959.929917","849726.518682","835910.171582","836676.753236","837443.737125","838210.366083","848969.435137","Mapping"
"Blocked","Male","tile","17","M_ball.wav","space","430.993314774","121","846677.016343","838959.633729","839726.703567","840493.250594","841260.091336","842026.679174","842793.820122","843560.399303","847426.396528","848193.004153","848959.929917","849726.518682","850493.062617","836676.753236","837443.737125","838210.366083","849735.981855","Mapping"
"Blocked","Male","tile","17","M_cave.wav","None","725.940528093","121","846677.016343","838959.633729","839726.703567","840493.250594","841260.091336","842026.679174","842793.820122","843560.399303","847426.396528","848193.004153","848959.929917","849726.518682","850493.062617","851260.260144","837443.737125","838210.366083","850502.541558","Mapping"
"Blocked","Male","tile","17","M_ball.wav","None","722.536531161","121","846677.016343","838959.633729","839726.703567","840493.250594","841260.091336","842026.679174","842793.820122","843560.399303","847426.396528","848193.004153","848959.929917","849726.518682","850493.062617","851260.260144","852026.662478","838210.366083","851270.467189","Mapping"
"Blocked","Male","tile","17","M_jolt.wav","None","721.294891555","121","846677.016343","838959.633729","839726.703567","840493.250594","841260.091336","842026.679174","842793.820122","843560.399303","847426.396528","848193.004153","848959.929917","849726.518682","850493.062617","851260.260144","852026.662478","852793.423762","852036.057324","Mapping"
"Blocked","Male","tile","17","M_tile.wav","None","718.969599926","121","846677.016343","853542.832082","839726.703567","840493.250594","841260.091336","842026.679174","842793.820122","843560.399303","847426.396528","848193.004153","848959.929917","849726.518682","850493.062617","851260.260144","852026.662478","852793.423762","852802.948461","Mapping"
"Blocked","Male","tile","17","M_cave.wav","space","679.031224339","121","846677.016343","853542.832082","854309.862656","840493.250594","841260.091336","842026.679174","842793.820122","843560.399303","847426.396528","848193.004153","848959.929917","849726.518682","850493.062617","851260.260144","852026.662478","852793.423762","853551.86736","Mapping"
"Blocked","Male","tile","17","M_tile.wav","None","724.472264526","121","846677.016343","853542.832082","854309.862656","855076.339501","841260.091336","842026.679174","842793.820122","843560.399303","847426.396528","848193.004153","848959.929917","849726.518682","850493.062617","851260.260144","852026.662478","852793.423762","854326.555535","Mapping"
"Blocked","Male","tile","17","M_gnash.wav","space","712.856627419","121","846677.016343","853542.832082","854309.862656","855076.339501","855842.955782","842026.679174","842793.820122","843560.399303","847426.396528","848193.004153","848959.929917","849726.518682","850493.062617","851260.260144","852026.662478","852793.423762","855086.015076","Mapping"
"Blocked","Male","tile","17","M_done.wav","None","726.932974008","121","846677.016343","853542.832082","854309.862656","855076.339501","855842.955782","856609.432009","842793.820122","843560.399303","847426.396528","848193.004153","848959.929917","849726.518682","850493.062617","851260.260144","852026.662478","852793.423762","855852.500268","Mapping"
"Blocked","Male","tile","17","M_romp.wav","None","725.390199746","121","846677.016343","853542.832082","854309.862656","855076.339501","855842.955782","856609.432009","857376.364884","843560.399303","847426.396528","848193.004153","848959.929917","849726.518682","850493.062617","851260.260144","852026.662478","852793.423762","856618.670104","Mapping"
"Blocked","Male","tile","17","M_cave.wav","None","722.282081551","121","846677.016343","853542.832082","854309.862656","855076.339501","855842.955782","856609.432009","857376.364884","858143.281991","847426.396528","848193.004153","848959.929917","849726.518682","850493.062617","851260.260144","852026.662478","852793.423762","857386.196591","Mapping"
"Blocked","Male","cave","7","M_gnash.wav","None","719.477571489","121","861260.102775","853542.832082","854309.862656","855076.339501","855842.955782","856609.432009","857376.364884","858143.281991","847426.396528","848193.004153","848959.929917","849726.518682","850493.062617","851260.260144","852026.662478","852793.423762","858153.89467","Mapping"
"Blocked","Male","cave","7","M_cave.wav","None","720.378811355","121","861260.102775","853542.832082","854309.862656","855076.339501","855842.955782","856609.432009","857376.364884","858143.281991","862009.792443","848193.004153","848959.929917","849726.518682","850493.062617","851260.260144","852026.662478","852793.423762","861270.378456","Mapping"
"Blocked","Male","cave","7","M_ball.wav","space","403.069100517","121","861260.102775","853542.832082","854309.862656","855076.339501","855842.955782","856609.432009","857376.364884","858143.281991","862009.792443","862776.361421","848959.929917","849726.518682","850493.062617","851260.260144","852026.662478","852793.423762","862019.678565","Mapping"
"Blocked","Male","cave","7","M_done.wav","None","733.058622631","121","861260.102775","853542.832082","854309.862656","855076.339501","855842.955782","856609.432009","857376.364884","858143.281991","862009.792443","862776.361421","863542.904119","849726.518682","850493.062617","851260.260144","852026.662478","852793.423762","862786.09172","Mapping"
"Blocked","Male","cave","7","M_cave.wav","None","731.107430591","121","861260.102775","853542.832082","854309.862656","855076.339501","855842.955782","856609.432009","857376.364884","858143.281991","862009.792443","862776.361421","863542.904119","864309.676534","850493.062617","851260.260144","852026.662478","852793.423762","863552.393263","Mapping"
"Blocked","Male","cave","7","M_knife.wav","space","390.051672119","121","861260.102775","853542.832082","854309.862656","855076.339501","855842.955782","856609.432009","857376.364884","858143.281991","862009.792443","862776.361421","863542.904119","864309.676534","865076.197281","851260.260144","852026.662478","852793.423762","864320.652491","Mapping"
"Blocked","Male","cave","7","M_cave.wav","None","725.352171459","121","861260.102775","853542.832082","854309.862656","855076.339501","855842.955782","856609.432009","857376.364884","858143.281991","862009.792443","862776.361421","863542.904119","864309.676534","865076.197281","865842.796558","852026.662478","852793.423762","865086.35393","Mapping"
"Blocked","Male","cave","7","M_tile.wav","space","522.016687319","121","861260.102775","853542.832082","854309.862656","855076.339501","855842.955782","856609.432009","857376.364884","858143.281991","862009.792443","862776.361421","863542.904119","864309.676534","865076.197281","865842.796558","866609.61473","852793.423762","865852.668149","Mapping"
"Blocked","Male","cave","7","M_jolt.wav","None","720.444974431","121","861260.102775","853542.832082","854309.862656","855076.339501","855842.955782","856609.432009","857376.364884","858143.281991","862009.792443","862776.361421","863542.904119","864309.676534","865076.197281","865842.796558","866609.61473","867376.650869","866619.540426","Mapping"
"Blocked","Male","cave","7","M_bluff.wav","None","718.542631716","121","861260.102775","868126.041257","854309.862656","855076.339501","855842.955782","856609.432009","857376.364884","858143.281991","862009.792443","862776.361421","863542.904119","864309.676534","865076.197281","865842.796558","866609.61473","867376.650869","867386.585841","Mapping"
"Blocked","Male","cave","7","M_park.wav","None","734.657975612","121","861260.102775","868126.041257","868892.723392","855076.339501","855842.955782","856609.432009","857376.364884","858143.281991","862009.792443","862776.361421","863542.904119","864309.676534","865076.197281","865842.796558","866609.61473","867376.650869","868135.357882","Mapping"
"Blocked","Male","cave","7","M_done.wav","None","731.13865708","121","861260.102775","868126.041257","868892.723392","869659.252178","855842.955782","856609.432009","857376.364884","858143.281991","862009.792443","862776.361421","863542.904119","864309.676534","865076.197281","865842.796558","866609.61473","867376.650869","868903.252904","Mapping"
"Blocked","Male","cave","7","M_cave.wav","None","729.691108165","121","861260.102775","868126.041257","868892.723392","869659.252178","870426.511231","856609.432009","857376.364884","858143.281991","862009.792443","862776.361421","863542.904119","864309.676534","865076.197281","865842.796558","866609.61473","867376.650869","869669.157778","Mapping"
"Blocked","Male","cave","7","M_greet.wav","space","401.893005648","121","861260.102775","868126.041257","868892.723392","869659.252178","870426.511231","871192.815248","857376.364884","858143.281991","862009.792443","862776.361421","863542.904119","864309.676534","865076.197281","865842.796558","866609.61473","867376.650869","870436.696942","Mapping"
"Blocked","Male","cave","7","M_cad.wav","None","724.721767299","121","861260.102775","868126.041257","868892.723392","869659.252178","870426.511231","871192.815248","871959.868082","858143.281991","862009.792443","862776.361421","863542.904119","864309.676534","865076.197281","865842.796558","866609.61473","867376.650869","871202.499171","Mapping"
"Blocked","Male","cave","7","M_jaw.wav","None","721.566345659","121","861260.102775","868126.041257","868892.723392","869659.252178","870426.511231","871192.815248","871959.868082","872725.894152","862009.792443","862776.361421","863542.904119","864309.676534","865076.197281","865842.796558","866609.61473","867376.650869","871970.199104","Mapping"
"Blocked","Male","ball","6","M_reek.wav","None","720.838861074","121","875842.880035","868126.041257","868892.723392","869659.252178","870426.511231","871192.815248","871959.868082","872725.894152","862009.792443","862776.361421","863542.904119","864309.676534","865076.197281","865842.796558","866609.61473","867376.650869","872735.357325","Mapping"
"Blocked","Male","ball","6","M_reek.wav","None","720.192070759","121","875842.880035","868126.041257","868892.723392","869659.252178","870426.511231","871192.815248","871959.868082","872725.894152","876592.763245","862776.361421","863542.904119","864309.676534","865076.197281","865842.796558","866609.61473","867376.650869","875853.216313","Mapping"
"Blocked","Male","ball","6","M_cad.wav","None","735.234583612","121","875842.880035","868126.041257","868892.723392","869659.252178","870426.511231","871192.815248","871959.868082","872725.894152","876592.763245","877359.39684","863542.904119","864309.676534","865076.197281","865842.796558","866609.61473","867376.650869","876602.666062","Mapping"
"Blocked","Male","ball","6","M_ball.wav","None","733.667384717","121","875842.880035","868126.041257","868892.723392","869659.252178","870426.511231","871192.815248","871959.868082","872725.894152","876592.763245","877359.39684","878125.966128","864309.676534","865076.197281","865842.796558","866609.61473","867376.650869","877368.691205","Mapping"
"Blocked","Male","ball","6","M_done.wav","space","375.155707297","121","875842.880035","868126.041257","868892.723392","869659.252178","870426.511231","871192.815248","871959.868082","872725.894152","876592.763245","877359.39684","878125.966128","878892.337544","865076.197281","865842.796558","866609.61473","867376.650869","878135.307796","Mapping"
"Blocked","Male","ball","6","M_park.wav","None","729.516425286","121","875842.880035","868126.041257","868892.723392","869659.252178","870426.511231","871192.815248","871959.868082","872725.894152","876592.763245","877359.39684","878125.966128","878892.337544","879659.414185","865842.796558","866609.61473","867376.650869","878901.790824","Mapping"
"Blocked","Male","ball","6","M_ball.wav","None","726.757363649","121","875842.880035","868126.041257","868892.723392","869659.252178","870426.511231","871192.815248","871959.868082","872725.894152","876592.763245","877359.39684","878125.966128","878892.337544","879659.414185","880425.903706","866609.61473","867376.650869","879669.039983","Mapping"
"Blocked","Male","ball","6","M_cave.wav","space","282.93088777","121","875842.880035","868126.041257","868892.723392","869659.252178","870426.511231","871192.815248","871959.868082","872725.894152","876592.763245","877359.39684","878125.966128","878892.337544","879659.414185","880425.903706","881192.669009","867376.650869","880435.450665","Mapping"
"Blocked","Male","ball","6","M_romp.wav","None","721.092383144","121","875842.880035","868126.041257","868892.723392","869659.252178","870426.511231","871192.815248","871959.868082","872725.894152","876592.763245","877359.39684","878125.966128","878892.337544","879659.414185","880425.903706","881192.669009","881959.688762","881203.267157","Mapping"
"Blocked","Male","ball","6","M_ball.wav","None","718.336413207","121","875842.880035","882709.164172","868892.723392","869659.252178","870426.511231","871192.815248","871959.868082","872725.894152","876592.763245","877359.39684","878125.966128","878892.337544","879659.414185","880425.903706","881192.669009","881959.688762","881970.483853","Mapping"
"Blocked","Male","ball","6","M_greet.wav","space","335.90122289","121","875842.880035","882709.164172","883475.877534","869659.252178","870426.511231","871192.815248","871959.868082","872725.894152","876592.763245","877359.39684","878125.966128","878892.337544","879659.414185","880425.903706","881192.669009","881959.688762","882718.512024","Mapping"
"Blocked","Male","ball","6","M_ball.wav","None","731.48895026","121","875842.880035","882709.164172","883475.877534","884242.500927","870426.511231","871192.815248","871959.868082","872725.894152","876592.763245","877359.39684","878125.966128","878892.337544","879659.414185","880425.903706","881192.669009","881959.688762","883485.848988","Mapping"
"Blocked","Male","ball","6","M_park.wav","space","434.262821334","121","875842.880035","882709.164172","883475.877534","884242.500927","885009.328065","871192.815248","871959.868082","872725.894152","876592.763245","877359.39684","878125.966128","878892.337544","879659.414185","880425.903706","881192.669009","881959.688762","884252.123633","Mapping"
"Blocked","Male","ball","6","M_jolt.wav","None","726.213528018","121","875842.880035","882709.164172","883475.877534","884242.500927","885009.328065","885775.549532","871959.868082","872725.894152","876592.763245","877359.39684","878125.966128","878892.337544","879659.414185","880425.903706","881192.669009","881959.688762","885019.701135","Mapping"
"Blocked","Male","ball","6","M_dime.wav","None","725.573230302","121","875842.880035","882709.164172","883475.877534","884242.500927","885009.328065","885775.549532","886542.788489","872725.894152","876592.763245","877359.39684","878125.966128","878892.337544","879659.414185","880425.903706","881192.669009","881959.688762","885784.926755","Mapping"
"Blocked","Male","ball","6","M_park.wav","None","721.794206242","121","875842.880035","882709.164172","883475.877534","884242.500927","885009.328065","885775.549532","886542.788489","887309.358394","876592.763245","877359.39684","878125.966128","878892.337544","879659.414185","880425.903706","881192.669009","881959.688762","886553.231123","Mapping"
"Blocked","Male","ball","5","M_reek.wav","None","720.605744515","121","890426.072823","882709.164172","883475.877534","884242.500927","885009.328065","885775.549532","886542.788489","887309.358394","876592.763245","877359.39684","878125.966128","878892.337544","879659.414185","880425.903706","881192.669009","881959.688762","887319.294912","Mapping"
"Blocked","Male","ball","5","M_ball.wav","None","720.020479581","121","890426.072823","882709.164172","883475.877534","884242.500927","885009.328065","885775.549532","886542.788489","887309.358394","891175.60945","877359.39684","878125.966128","878892.337544","879659.414185","880425.903706","881192.669009","881959.688762","890436.167019","Mapping"
"Blocked","Male","ball","5","M_depth.wav","space","308.96419863","121","890426.072823","882709.164172","883475.877534","884242.500927","885009.328065","885775.549532","886542.788489","887309.358394","891175.60945","891942.11783","878125.966128","878892.337544","879659.414185","880425.903706","881192.669009","881959.688762","891185.245451","Mapping"
"Blocked","Male","ball","5","M_lash.wav","None","733.215991815","121","890426.072823","882709.164172","883475.877534","884242.500927","885009.328065","885775.549532","886542.788489","887309.358394","891175.60945","891942.11783","892709.186432","878892.337544","879659.414185","880425.903706","881192.669009","881959.688762","891951.602027","Mapping"
"Blocked","Male","ball","5","M_gnash.wav","None","730.206190667","121","890426.072823","882709.164172","883475.877534","884242.500927","885009.328065","885775.549532","886542.788489","887309.358394","891175.60945","891942.11783","892709.186432","893475.425832","879659.414185","880425.903706","881192.669009","881959.688762","892719.237653","Mapping"
"Blocked","Male","ball","5","M_ball.wav","None","729.578569124","121","890426.072823","882709.164172","883475.877534","884242.500927","885009.328065","885775.549532","886542.788489","887309.358394","891175.60945","891942.11783","892709.186432","893475.425832","894242.116934","880425.903706","881192.669009","881959.688762","893484.54335","Mapping"
"Blocked","Male","ball","5","M_done.wav","space","520.882330835","121","890426.072823","882709.164172","883475.877534","884242.500927","885009.328065","885775.549532","886542.788489","887309.358394","891175.60945","891942.11783","892709.186432","893475.425832","894242.116934","895009.463173","881192.669009","881959.688762","894253.270048","Mapping"
"Blocked","Male","ball","5","M_ball.wav","None","722.71275986","121","890426.072823","882709.164172","883475.877534","884242.500927","885009.328065","885775.549532","886542.788489","887309.358394","891175.60945","891942.11783","892709.186432","893475.425832","894242.116934","895009.463173","895776.154893","881959.688762","895020.191483","Mapping"
"Blocked","Male","ball","5","M_jolt.wav","space","459.419935418","121","890426.072823","882709.164172","883475.877534","884242.500927","885009.328065","885775.549532","886542.788489","887309.358394","891175.60945","891942.11783","892709.186432","893475.425832","894242.116934","895009.463173","895776.154893","896542.669148","895786.755206","Mapping"
"Blocked","Male","ball","5","M_lash.wav","None","718.718242133","121","890426.072823","897292.040058","883475.877534","884242.500927","885009.328065","885775.549532","886542.788489","887309.358394","891175.60945","891942.11783","892709.186432","893475.425832","894242.116934","895009.463173","895776.154893","896542.669148","896552.856405","Mapping"
"Blocked","Male","ball","5","M_gnash.wav","None","734.898512368","121","890426.072823","897292.040058","898059.058883","884242.500927","885009.328065","885775.549532","886542.788489","887309.358394","891175.60945","891942.11783","892709.186432","893475.425832","894242.116934","895009.463173","895776.154893","896542.669148","897301.345243","Mapping"
"Blocked","Male","ball","5","M_bluff.wav","None","731.779263937","121","890426.072823","897292.040058","898059.058883","898825.622914","885009.328065","885775.549532","886542.788489","887309.358394","891175.60945","891942.11783","892709.186432","893475.425832","894242.116934","895009.463173","895776.154893","896542.669148","898069.175648","Mapping"
"Blocked","Male","ball","5","M_done.wav","None","729.553526093","121","890426.072823","897292.040058","898059.058883","898825.622914","899592.062658","885775.549532","886542.788489","887309.358394","891175.60945","891942.11783","892709.186432","893475.425832","894242.116934","895009.463173","895776.154893","896542.669148","898836.034013","Mapping"
"Blocked","Male","ball","5","M_ball.wav","None","728.636518354","121","890426.072823","897292.040058","898059.058883","898825.622914","899592.062658","900358.95565","886542.788489","887309.358394","891175.60945","891942.11783","892709.186432","893475.425832","894242.116934","895009.463173","895776.154893","896542.669148","899601.645172","Mapping"
"Blocked","Male","ball","5","M_romp.wav","space","389.442291751","121","890426.072823","897292.040058","898059.058883","898825.622914","899592.062658","900358.95565","901126.01374","887309.358394","891175.60945","891942.11783","892709.186432","893475.425832","894242.116934","895009.463173","895776.154893","896542.669148","900368.619786","Mapping"
"Blocked","Male","ball","5","M_lash.wav","None","721.887885768","121","890426.072823","897292.040058","898059.058883","898825.622914","899592.062658","900358.95565","901126.01374","901892.636824","891175.60945","891942.11783","892709.186432","893475.425832","894242.116934","895009.463173","895776.154893","896542.669148","901137.02247","Mapping"
"Blocked","Male","done","23","M_lash.wav","None","720.496915514","121","905009.336103","897292.040058","898059.058883","898825.622914","899592.062658","900358.95565","901126.01374","901892.636824","891175.60945","891942.11783","892709.186432","893475.425832","894242.116934","895009.463173","895776.154893","896542.669148","901903.07853","Mapping"
"Blocked","Male","done","23","M_done.wav","None","720.568025368","121","905009.336103","897292.040058","898059.058883","898825.622914","899592.062658","900358.95565","901126.01374","901892.636824","905775.982684","891942.11783","892709.186432","893475.425832","894242.116934","895009.463173","895776.154893","896542.669148","905019.547785","Mapping"
"Blocked","Male","done","23","M_tile.wav","space","419.663353649","121","905009.336103","897292.040058","898059.058883","898825.622914","899592.062658","900358.95565","901126.01374","901892.636824","905775.982684","906525.49334","892709.186432","893475.425832","894242.116934","895009.463173","895776.154893","896542.669148","905786.309378","Mapping"
"Blocked","Male","done","23","M_done.wav","None","733.786107216","121","905009.336103","897292.040058","898059.058883","898825.622914","899592.062658","900358.95565","901126.01374","901892.636824","905775.982684","906525.49334","907292.053352","893475.425832","894242.116934","895009.463173","895776.154893","896542.669148","906534.910446","Mapping"
"Blocked","Male","done","23","M_cave.wav","space","456.40395087","121","905009.336103","897292.040058","898059.058883","898825.622914","899592.062658","900358.95565","901126.01374","901892.636824","905775.982684","906525.49334","907292.053352","908058.886673","894242.116934","895009.463173","895776.154893","896542.669148","907301.523327","Mapping"
"Blocked","Male","done","23","M_knife.wav","None","729.206015414","121","905009.336103","897292.040058","898059.058883","898825.622914","899592.062658","900358.95565","901126.01374","901892.636824","905775.982684","906525.49334","907292.053352","908058.886673","908825.453488","895009.463173","895776.154893","896542.669148","908068.311509","Mapping"
"Blocked","Male","done","23","M_lash.wav","None","727.303054358","121","905009.336103","897292.040058","898059.058883","898825.622914","899592.062658","900358.95565","901126.01374","901892.636824","905775.982684","906525.49334","907292.053352","908058.886673","908825.453488","909591.803262","895776.154893","896542.669148","908834.933047","Mapping"
"Blocked","Male","done","23","M_cave.wav","None","725.898480508","121","905009.336103","897292.040058","898059.058883","898825.622914","899592.062658","900358.95565","901126.01374","901892.636824","905775.982684","906525.49334","907292.053352","908058.886673","908825.453488","909591.803262","910359.155067","896542.669148","909600.956644","Mapping"
"Blocked","Male","done","23","M_lash.wav","None","720.577609725","121","905009.336103","897292.040058","898059.058883","898825.622914","899592.062658","900358.95565","901126.01374","901892.636824","905775.982684","906525.49334","907292.053352","908058.886673","908825.453488","909591.803262","910359.155067","911125.718171","910370.984343","Mapping"
"Blocked","Male","done","23","M_done.wav","None","720.353149984","121","905009.336103","911892.643316","898059.058883","898825.622914","899592.062658","900358.95565","901126.01374","901892.636824","905775.982684","906525.49334","907292.053352","908058.886673","908825.453488","909591.803262","910359.155067","911125.718171","911135.880075","Mapping"
"Blocked","Male","done","23","M_cad.wav","space","367.247984395","121","905009.336103","911892.643316","912642.034013","898825.622914","899592.062658","900358.95565","901126.01374","901892.636824","905775.982684","906525.49334","907292.053352","908058.886673","908825.453488","909591.803262","910359.155067","911125.718171","911902.601167","Mapping"
"Blocked","Male","done","23","M_priest.wav","None","733.491774299","121","905009.336103","911892.643316","912642.034013","913408.781694","899592.062658","900358.95565","901126.01374","901892.636824","905775.982684","906525.49334","907292.053352","908058.886673","908825.453488","909591.803262","910359.155067","911125.718171","912651.576026","Mapping"
"Blocked","Male","done","23","M_tile.wav","None","731.279021711","121","905009.336103","911892.643316","912642.034013","913408.781694","914175.35129","900358.95565","901126.01374","901892.636824","905775.982684","906525.49334","907292.053352","908058.886673","908825.453488","909591.803262","910359.155067","911125.718171","913418.723467","Mapping"
"Blocked","Male","done","23","M_ball.wav","None","730.084067327","121","905009.336103","911892.643316","912642.034013","913408.781694","914175.35129","914941.929544","901126.01374","901892.636824","905775.982684","906525.49334","907292.053352","908058.886673","908825.453488","909591.803262","910359.155067","911125.718171","914184.697287","Mapping"
"Blocked","Male","done","23","M_done.wav","None","727.92727506","121","905009.336103","911892.643316","912642.034013","913408.781694","914175.35129","914941.929544","915708.727619","901892.636824","905775.982684","906525.49334","907292.053352","908058.886673","908825.453488","909591.803262","910359.155067","911125.718171","914951.547613","Mapping"
"Blocked","Male","done","23","M_dime.wav","space","470.96168017","121","905009.336103","911892.643316","912642.034013","913408.781694","914175.35129","914941.929544","915708.727619","916475.618447","905775.982684","906525.49334","907292.053352","908058.886673","908825.453488","909591.803262","910359.155067","911125.718171","915718.821197","Mapping"
"Blocked","Male","ball","3","M_cling.wav","None","722.675349913","121","919608.983398","911892.643316","912642.034013","913408.781694","914175.35129","914941.929544","915708.727619","916475.618447","905775.982684","906525.49334","907292.053352","908058.886673","908825.453488","909591.803262","910359.155067","911125.718171","916485.639678","Mapping"
"Blocked","Male","ball","3","M_romp.wav","None","721.08310787","121","919608.983398","911892.643316","912642.034013","913408.781694","914175.35129","914941.929544","915708.727619","916475.618447","920375.55856","906525.49334","907292.053352","908058.886673","908825.453488","909591.803262","910359.155067","911125.718171","919618.745233","Mapping"
"Blocked","Male","ball","3","M_priest.wav","None","718.914876285","121","919608.983398","911892.643316","912642.034013","913408.781694","914175.35129","914941.929544","915708.727619","916475.618447","920375.55856","921125.11652","907292.053352","908058.886673","908825.453488","909591.803262","910359.155067","911125.718171","920385.616892","Mapping"
"Blocked","Male","ball","3","M_tile.wav","None","734.643444419","121","919608.983398","911892.643316","912642.034013","913408.781694","914175.35129","914941.929544","915708.727619","916475.618447","920375.55856","921125.11652","921891.656126","908058.886673","908825.453488","909591.803262","910359.155067","911125.718171","921134.666261","Mapping"
"Blocked","Male","ball","3","M_knife.wav","None","732.669373567","121","919608.983398","911892.643316","912642.034013","913408.781694","914175.35129","914941.929544","915708.727619","916475.618447","920375.55856","921125.11652","921891.656126","922658.631358","908825.453488","909591.803262","910359.155067","911125.718171","921901.348088","Mapping"
"Blocked","Male","ball","3","M_ball.wav","None","730.894101085","121","919608.983398","911892.643316","912642.034013","913408.781694","914175.35129","914941.929544","915708.727619","916475.618447","920375.55856","921125.11652","921891.656126","922658.631358","923425.134483","909591.803262","910359.155067","911125.718171","922667.993432","Mapping"
"Blocked","Male","ball","3","M_bluff.wav","space","450.73000429","121","919608.983398","911892.643316","912642.034013","913408.781694","914175.35129","914941.929544","915708.727619","916475.618447","920375.55856","921125.11652","921891.656126","922658.631358","923425.134483","924191.683055","910359.155067","911125.718171","923434.883641","Mapping"
"Blocked","Male","ball","3","M_ball.wav","None","726.433968521","121","919608.983398","911892.643316","912642.034013","913408.781694","914175.35129","914941.929544","915708.727619","916475.618447","920375.55856","921125.11652","921891.656126","922658.631358","923425.134483","924191.683055","924958.58625","911125.718171","924201.688828","Mapping"
"Blocked","Male","ball","3","M_depth.wav","space","445.220228692","121","919608.983398","911892.643316","912642.034013","913408.781694","914175.35129","914941.929544","915708.727619","916475.618447","920375.55856","921125.11652","921891.656126","922658.631358","923425.134483","924191.683055","924958.58625","925725.551897","924968.398171","Mapping"
"Blocked","Male","ball","3","M_ball.wav","None","721.747830277","121","919608.983398","926492.318437","912642.034013","913408.781694","914175.35129","914941.929544","915708.727619","916475.618447","920375.55856","921125.11652","921891.656126","922658.631358","923425.134483","924191.683055","924958.58625","925725.551897","925735.615176","Mapping"
"Blocked","Male","ball","3","M_jaw.wav","None","719.995745807","121","919608.983398","926492.318437","927241.7518","913408.781694","914175.35129","914941.929544","915708.727619","916475.618447","920375.55856","921125.11652","921891.656126","922658.631358","923425.134483","924191.683055","924958.58625","925725.551897","926502.270104","Mapping"
"Blocked","Male","ball","3","M_park.wav","space","10.1520111784","121","919608.983398","926492.318437","927241.7518","928008.542455","914175.35129","914941.929544","915708.727619","916475.618447","920375.55856","921125.11652","921891.656126","922658.631358","923425.134483","924191.683055","924958.58625","925725.551897","927251.424284","Mapping"
"Blocked","Male","ball","3","M_lash.wav","None","731.718975178","121","919608.983398","926492.318437","927241.7518","928008.542455","928775.414114","914941.929544","915708.727619","916475.618447","920375.55856","921125.11652","921891.656126","922658.631358","923425.134483","924191.683055","924958.58625","925725.551897","928019.297664","Mapping"
"Blocked","Male","ball","3","M_ball.wav","None","730.82577379","121","919608.983398","926492.318437","927241.7518","928008.542455","928775.414114","929541.681649","915708.727619","916475.618447","920375.55856","921125.11652","921891.656126","922658.631358","923425.134483","924191.683055","924958.58625","925725.551897","928784.949016","Mapping"
"Blocked","Male","ball","3","M_done.wav","space","438.247445563","121","919608.983398","926492.318437","927241.7518","928008.542455","928775.414114","929541.681649","930308.169624","916475.618447","920375.55856","921125.11652","921891.656126","922658.631358","923425.134483","924191.683055","924958.58625","925725.551897","929551.280549","Mapping"
"Blocked","Male","ball","3","M_cling.wav","None","726.951215242","121","919608.983398","926492.318437","927241.7518","928008.542455","928775.414114","929541.681649","930308.169624","931075.038809","920375.55856","921125.11652","921891.656126","922658.631358","923425.134483","924191.683055","924958.58625","925725.551897","930317.866223","Mapping"
"Blocked","Male","done","19","M_park.wav","None","724.913454673","121","934191.910607","926492.318437","927241.7518","928008.542455","928775.414114","929541.681649","930308.169624","931075.038809","920375.55856","921125.11652","921891.656126","922658.631358","923425.134483","924191.683055","924958.58625","925725.551897","931084.675428","Mapping"
"Blocked","Male","done","19","M_done.wav","None","720.897604013","121","934191.910607","926492.318437","927241.7518","928008.542455","928775.414114","929541.681649","930308.169624","931075.038809","934958.662616","921125.11652","921891.656126","922658.631358","923425.134483","924191.683055","924958.58625","925725.551897","934201.675533","Mapping"
"Blocked","Male","done","19","M_cave.wav","space","475.999966613","121","934191.910607","926492.318437","927241.7518","928008.542455","928775.414114","929541.681649","930308.169624","931075.038809","934958.662616","935708.393094","921891.656126","922658.631358","923425.134483","924191.683055","924958.58625","925725.551897","934969.439775","Mapping"
"Blocked","Male","done","19","M_dime.wav","None","733.26020356","121","934191.910607","926492.318437","927241.7518","928008.542455","928775.414114","929541.681649","930308.169624","931075.038809","934958.662616","935708.393094","936474.943213","922658.631358","923425.134483","924191.683055","924958.58625","925725.551897","935718.130813","Mapping"
"Blocked","Male","done","19","M_done.wav","space","361.201175023","121","934191.910607","926492.318437","927241.7518","928008.542455","928775.414114","929541.681649","930308.169624","931075.038809","934958.662616","935708.393094","936474.943213","937241.518993","923425.134483","924191.683055","924958.58625","925725.551897","936484.255509","Mapping"
"Blocked","Male","done","19","M_knife.wav","space","666.310602159","121","934191.910607","926492.318437","927241.7518","928008.542455","928775.414114","929541.681649","930308.169624","931075.038809","934958.662616","935708.393094","936474.943213","937241.518993","938008.330981","924191.683055","924958.58625","925725.551897","937251.084193","Mapping"
"Blocked","Male","done","19","M_greet.wav","None","726.165296976","121","934191.910607","926492.318437","927241.7518","928008.542455","928775.414114","929541.681649","930308.169624","931075.038809","934958.662616","935708.393094","936474.943213","937241.518993","938008.330981","938774.895012","924958.58625","925725.551897","938018.129916","Mapping"
"Blocked","Male","done","19","M_cad.wav","None","724.702598585","121","934191.910607","926492.318437","927241.7518","928008.542455","928775.414114","929541.681649","930308.169624","931075.038809","934958.662616","935708.393094","936474.943213","937241.518993","938008.330981","938774.895012","939541.850457","925725.551897","938784.394359","Mapping"
"Blocked","Male","done","19","M_cad.wav","None","722.011245904","121","934191.910607","926492.318437","927241.7518","928008.542455","928775.414114","929541.681649","930308.169624","931075.038809","934958.662616","935708.393094","936474.943213","937241.518993","938008.330981","938774.895012","939541.850457","940308.672339","939552.095839","Mapping"
"Blocked","Male","done","19","M_done.wav","None","719.99172651","121","934191.910607","941075.197106","927241.7518","928008.542455","928775.414114","929541.681649","930308.169624","931075.038809","934958.662616","935708.393094","936474.943213","937241.518993","938008.330981","938774.895012","939541.850457","940308.672339","940318.962551","Mapping"
"Blocked","Male","done","19","M_dime.wav","space","544.047132833","121","934191.910607","941075.197106","941824.807006","928008.542455","928775.414114","929541.681649","930308.169624","931075.038809","934958.662616","935708.393094","936474.943213","937241.518993","938008.330981","938774.895012","939541.850457","940308.672339","941085.286973","Mapping"
"Blocked","Male","done","19","M_gnash.wav","None","733.513416431","121","934191.910607","941075.197106","941824.807006","942591.427616","928775.414114","929541.681649","930308.169624","931075.038809","934958.662616","935708.393094","936474.943213","937241.518993","938008.330981","938774.895012","939541.850457","940308.672339","941834.348091","Mapping"
"Blocked","Male","done","19","M_cad.wav","None","731.80183355","121","934191.910607","941075.197106","941824.807006","942591.427616","943358.169732","929541.681649","930308.169624","931075.038809","934958.662616","935708.393094","936474.943213","937241.518993","938008.330981","938774.895012","939541.850457","940308.672339","942600.958808","Mapping"
"Blocked","Male","done","19","M_ball.wav","None","729.73470157","121","934191.910607","941075.197106","941824.807006","942591.427616","943358.169732","944124.811366","930308.169624","931075.038809","934958.662616","935708.393094","936474.943213","937241.518993","938008.330981","938774.895012","939541.850457","940308.672339","943367.924146","Mapping"
"Blocked","Male","done","19","M_done.wav","None","728.623842238","121","934191.910607","941075.197106","941824.807006","942591.427616","943358.169732","944124.811366","944891.42301","931075.038809","934958.662616","935708.393094","936474.943213","937241.518993","938008.330981","938774.895012","939541.850457","940308.672339","944133.991336","Mapping"
"Blocked","Male","done","19","M_ball.wav","space","560.144544637","121","934191.910607","941075.197106","941824.807006","942591.427616","943358.169732","944124.811366","944891.42301","945658.512945","934958.662616","935708.393094","936474.943213","937241.518993","938008.330981","938774.895012","939541.850457","940308.672339","944901.110334","Mapping"
"Blocked","Male","cave","12","M_jolt.wav","None","721.128247213","121","948774.370655","941075.197106","941824.807006","942591.427616","943358.169732","944124.811366","944891.42301","945658.512945","934958.662616","935708.393094","936474.943213","937241.518993","938008.330981","938774.895012","939541.850457","940308.672339","945670.513503","Mapping"
"Blocked","Male","cave","12","M_cave.wav","None","723.445500305","121","948774.370655","941075.197106","941824.807006","942591.427616","943358.169732","944124.811366","944891.42301","945658.512945","949541.763889","935708.393094","936474.943213","937241.518993","938008.330981","938774.895012","939541.850457","940308.672339","948783.447362","Mapping"
"Blocked","Male","cave","12","M_park.wav","space","341.255484382","121","948774.370655","941075.197106","941824.807006","942591.427616","943358.169732","944124.811366","944891.42301","945658.512945","949541.763889","950308.570312","936474.943213","937241.518993","938008.330981","938774.895012","939541.850457","940308.672339","949551.909407","Mapping"
"Blocked","Male","cave","12","M_cave.wav","None","724.183496786","121","948774.370655","941075.197106","941824.807006","942591.427616","943358.169732","944124.811366","944891.42301","945658.512945","949541.763889","950308.570312","951057.814461","937241.518993","938008.330981","938774.895012","939541.850457","940308.672339","950313.15164","Mapping"
"Blocked","Male","cave","12","M_depth.wav","space","369.427346333","121","948774.370655","941075.197106","941824.807006","942591.427616","943358.169732","944124.811366","944891.42301","945658.512945","949541.763889","950308.570312","951057.814461","951824.341082","938008.330981","938774.895012","939541.850457","940308.672339","951067.708312","Mapping"
"Blocked","Male","cave","12","M_cave.wav","None","732.657006651","121","948774.370655","941075.197106","941824.807006","942591.427616","943358.169732","944124.811366","944891.42301","945658.512945","949541.763889","950308.570312","951057.814461","951824.341082","952591.312295","938774.895012","939541.850457","940308.672339","951833.805492","Mapping"
"Blocked","Male","cave","12","M_depth.wav","space","364.235709945","121","948774.370655","941075.197106","941824.807006","942591.427616","943358.169732","944124.811366","944891.42301","945658.512945","949541.763889","950308.570312","951057.814461","951824.341082","952591.312295","953357.718648","939541.850457","940308.672339","952600.87935","Mapping"
"Blocked","Male","cave","12","M_bluff.wav","None","728.174304415","121","948774.370655","941075.197106","941824.807006","942591.427616","943358.169732","944124.811366","944891.42301","945658.512945","949541.763889","950308.570312","951057.814461","951824.341082","952591.312295","953357.718648","954124.585051","940308.672339","953367.224487","Mapping"
"Blocked","Male","cave","12","M_done.wav","None","726.167770335","121","948774.370655","941075.197106","941824.807006","942591.427616","943358.169732","944124.811366","944891.42301","945658.512945","949541.763889","950308.570312","951057.814461","951824.341082","952591.312295","953357.718648","954124.585051","954891.286355","954134.137884","Mapping"
"Blocked","Male","cave","12","M_greet.wav","None","724.255224981","121","948774.370655","955658.347537","941824.807006","942591.427616","943358.169732","944124.811366","944891.42301","945658.512945","949541.763889","950308.570312","951057.814461","951824.341082","952591.312295","953357.718648","954124.585051","954891.286355","954900.991302","Mapping"
"Blocked","Male","cave","12","M_depth.wav","None","721.537901671","121","948774.370655","955658.347537","956424.933211","942591.427616","943358.169732","944124.811366","944891.42301","945658.512945","949541.763889","950308.570312","951057.814461","951824.341082","952591.312295","953357.718648","954124.585051","954891.286355","955668.698038","Mapping"
"Blocked","Male","cave","12","M_greet.wav","None","720.22051469","121","948774.370655","955658.347537","956424.933211","957191.44592","943358.169732","944124.811366","944891.42301","945658.512945","949541.763889","950308.570312","951057.814461","951824.341082","952591.312295","953357.718648","954124.585051","954891.286355","956435.147366","Mapping"
"Blocked","Male","cave","12","M_gnash.wav","None","718.608485651","121","948774.370655","955658.347537","956424.933211","957191.44592","957940.889794","944124.811366","944891.42301","945658.512945","949541.763889","950308.570312","951057.814461","951824.341082","952591.312295","953357.718648","954124.585051","954891.286355","957201.806313","Mapping"
"Blocked","Male","cave","12","M_jolt.wav","None","733.365322463","121","948774.370655","955658.347537","956424.933211","957191.44592","957940.889794","958707.936754","944891.42301","945658.512945","949541.763889","950308.570312","951057.814461","951824.341082","952591.312295","953357.718648","954124.585051","954891.286355","957952.099487","Mapping"
"Blocked","Male","cave","12","M_cave.wav","None","732.809428999","121","948774.370655","955658.347537","956424.933211","957191.44592","957940.889794","958707.936754","959474.259012","945658.512945","949541.763889","950308.570312","951057.814461","951824.341082","952591.312295","953357.718648","954124.585051","954891.286355","958717.792887","Mapping"
"Blocked","Male","cave","12","M_priest.wav","space","489.047693962","121","948774.370655","955658.347537","956424.933211","957191.44592","957940.889794","958707.936754","959474.259012","960241.152932","949541.763889","950308.570312","951057.814461","951824.341082","952591.312295","953357.718648","954124.585051","954891.286355","959483.913873","Mapping"
"Blocked","Male","tile","18","M_cave.wav","None","728.739782237","121","963374.771714","955658.347537","956424.933211","957191.44592","957940.889794","958707.936754","959474.259012","960241.152932","949541.763889","950308.570312","951057.814461","951824.341082","952591.312295","953357.718648","954124.585051","954891.286355","960250.694017","Mapping"
"Blocked","Male","tile","18","M_cave.wav","None","720.311102457","121","963374.771714","955658.347537","956424.933211","957191.44592","957940.889794","958707.936754","959474.259012","960241.152932","964124.735","950308.570312","951057.814461","951824.341082","952591.312295","953357.718648","954124.585051","954891.286355","963384.482535","Mapping"
"Blocked","Male","tile","18","M_gnash.wav","None","735.314350284","121","963374.771714","955658.347537","956424.933211","957191.44592","957940.889794","958707.936754","959474.259012","960241.152932","964124.735","964907.780127","951057.814461","951824.341082","952591.312295","953357.718648","954124.585051","954891.286355","964134.612156","Mapping"
"Blocked","Male","tile","18","M_tile.wav","None","718.391136848","121","963374.771714","955658.347537","956424.933211","957191.44592","957940.889794","958707.936754","959474.259012","960241.152932","964124.735","964907.780127","965657.56131","951824.341082","952591.312295","953357.718648","954124.585051","954891.286355","964918.344575","Mapping"
"Blocked","Male","tile","18","M_cave.wav","space","449.113955954","121","963374.771714","955658.347537","956424.933211","957191.44592","957940.889794","958707.936754","959474.259012","960241.152932","964124.735","964907.780127","965657.56131","966424.423693","952591.312295","953357.718648","954124.585051","954891.286355","965667.80731","Mapping"
"Blocked","Male","tile","18","M_romp.wav","None","732.008979656","121","963374.771714","955658.347537","956424.933211","957191.44592","957940.889794","958707.936754","959474.259012","960241.152932","964124.735","964907.780127","965657.56131","966424.423693","967190.625683","953357.718648","954124.585051","954891.286355","966433.940044","Mapping"
"Blocked","Male","tile","18","M_tile.wav","None","730.844942562","121","963374.771714","955658.347537","956424.933211","957191.44592","957940.889794","958707.936754","959474.259012","960241.152932","964124.735","964907.780127","965657.56131","966424.423693","967190.625683","967957.805278","954124.585051","954891.286355","967200.22582","Mapping"
"Blocked","Male","tile","18","M_dime.wav","space","468.997502816","121","963374.771714","955658.347537","956424.933211","957191.44592","957940.889794","958707.936754","959474.259012","960241.152932","964124.735","964907.780127","965657.56131","966424.423693","967190.625683","967957.805278","968724.356015","954891.286355","967967.828983","Mapping"
"Blocked","Male","tile","18","M_tile.wav","None","726.480653626","121","963374.771714","955658.347537","956424.933211","957191.44592","957940.889794","958707.936754","959474.259012","960241.152932","964124.735","964907.780127","965657.56131","966424.423693","967190.625683","967957.805278","968724.356015","969490.677037","968733.717471","Mapping"
"Blocked","Male","tile","18","M_jaw.wav","space","496.342017257","121","963374.771714","970258.090985","956424.933211","957191.44592","957940.889794","958707.936754","959474.259012","960241.152932","964124.735","964907.780127","965657.56131","966424.423693","967190.625683","967957.805278","968724.356015","969490.677037","969500.478755","Mapping"
"Blocked","Male","tile","18","M_romp.wav","None","721.654150868","121","963374.771714","970258.090985","971024.640177","957191.44592","957940.889794","958707.936754","959474.259012","960241.152932","964124.735","964907.780127","965657.56131","966424.423693","967190.625683","967957.805278","968724.356015","969490.677037","970268.107579","Mapping"
"Blocked","Male","tile","18","M_priest.wav","None","719.954625703","121","963374.771714","970258.090985","971024.640177","971791.448146","957940.889794","958707.936754","959474.259012","960241.152932","964124.735","964907.780127","965657.56131","966424.423693","967190.625683","967957.805278","968724.356015","969490.677037","971034.943064","Mapping"
"Blocked","Male","tile","18","M_greet.wav","None","719.429958845","121","963374.771714","970258.090985","971024.640177","971791.448146","972540.545746","958707.936754","959474.259012","960241.152932","964124.735","964907.780127","965657.56131","966424.423693","967190.625683","967957.805278","968724.356015","969490.677037","971801.303041","Mapping"
"Blocked","Male","tile","18","M_tile.wav","None","735.606828122","121","963374.771714","970258.090985","971024.640177","971791.448146","972540.545746","973307.617749","959474.259012","960241.152932","964124.735","964907.780127","965657.56131","966424.423693","967190.625683","967957.805278","968724.356015","969490.677037","972550.179583","Mapping"
"Blocked","Male","tile","18","M_cling.wav","space","431.362158386","121","963374.771714","970258.090985","971024.640177","971791.448146","972540.545746","973307.617749","974074.321218","960241.152932","964124.735","964907.780127","965657.56131","966424.423693","967190.625683","967957.805278","968724.356015","969490.677037","973317.427815","Mapping"
"Blocked","Male","tile","18","M_greet.wav","None","731.942816579","121","963374.771714","970258.090985","971024.640177","971791.448146","972540.545746","973307.617749","974074.321218","974840.811975","964124.735","964907.780127","965657.56131","966424.423693","967190.625683","967957.805278","968724.356015","969490.677037","974083.717919","Mapping"
"Blocked","Male","ball","2","M_jaw.wav","None","736.084191536","121","977974.489501","970258.090985","971024.640177","971791.448146","972540.545746","973307.617749","974074.321218","974840.811975","964124.735","964907.780127","965657.56131","966424.423693","967190.625683","967957.805278","968724.356015","969490.677037","974845.089077","Mapping"
"Blocked","Male","ball","2","M_ball.wav","None","720.50619073","121","977974.489501","970258.090985","971024.640177","971791.448146","972540.545746","973307.617749","974074.321218","974840.811975","978741.436289","964907.780127","965657.56131","966424.423693","967190.625683","967957.805278","968724.356015","969490.677037","977984.421072","Mapping"
"Blocked","Male","ball","2","M_priest.wav","space","517.073007824","121","977974.489501","970258.090985","971024.640177","971791.448146","972540.545746","973307.617749","974074.321218","974840.811975","978741.436289","979490.793286","965657.56131","966424.423693","967190.625683","967957.805278","968724.356015","969490.677037","978751.530175","Mapping"
"Blocked","Male","ball","2","M_done.wav","None","733.887206821","121","977974.489501","970258.090985","971024.640177","971791.448146","972540.545746","973307.617749","974074.321218","974840.811975","978741.436289","979490.793286","980257.592598","966424.423693","967190.625683","967957.805278","968724.356015","969490.677037","979500.671679","Mapping"
"Blocked","Male","ball","2","M_gnash.wav","None","732.638765418","121","977974.489501","970258.090985","971024.640177","971791.448146","972540.545746","973307.617749","974074.321218","974840.811975","978741.436289","979490.793286","980257.592598","981023.819012","967190.625683","967957.805278","968724.356015","969490.677037","980267.125026","Mapping"
"Blocked","Male","ball","2","M_ball.wav","None","731.850992132","121","977974.489501","970258.090985","971024.640177","971791.448146","972540.545746","973307.617749","974074.321218","974840.811975","978741.436289","979490.793286","980257.592598","981023.819012","981790.676449","967957.805278","968724.356015","969490.677037","981032.94395","Mapping"
"Blocked","Male","ball","2","M_done.wav","space","380.64415002","121","977974.489501","970258.090985","971024.640177","971791.448146","972540.545746","973307.617749","974074.321218","974840.811975","978741.436289","979490.793286","980257.592598","981023.819012","981790.676449","982557.527394","968724.356015","969490.677037","981799.966486","Mapping"
"Blocked","Male","ball","2","M_ball.wav","None","726.712224365","121","977974.489501","970258.090985","971024.640177","971791.448146","972540.545746","973307.617749","974074.321218","974840.811975","978741.436289","979490.793286","980257.592598","981023.819012","981790.676449","982557.527394","983324.03701","969490.677037","982567.406405","Mapping"
"Blocked","Male","ball","2","M_cave.wav","space","383.187408734","121","977974.489501","970258.090985","971024.640177","971791.448146","972540.545746","973307.617749","974074.321218","974840.811975","978741.436289","979490.793286","980257.592598","981023.819012","981790.676449","982557.527394","983324.03701","984090.822719","983333.395992","Mapping"
"Blocked","Male","ball","2","M_greet.wav","None","722.747696447","121","977974.489501","984857.812791","971024.640177","971791.448146","972540.545746","973307.617749","974074.321218","974840.811975","978741.436289","979490.793286","980257.592598","981023.819012","981790.676449","982557.527394","983324.03701","984090.822719","984101.146012","Mapping"
"Blocked","Male","ball","2","M_priest.wav","None","720.99221102","121","977974.489501","984857.812791","985624.53852","971791.448146","972540.545746","973307.617749","974074.321218","974840.811975","978741.436289","979490.793286","980257.592598","981023.819012","981790.676449","982557.527394","983324.03701","984090.822719","984868.140104","Mapping"
"Blocked","Male","ball","2","M_cave.wav","None","718.360219558","121","977974.489501","984857.812791","985624.53852","986390.614367","972540.545746","973307.617749","974074.321218","974840.811975","978741.436289","979490.793286","980257.592598","981023.819012","981790.676449","982557.527394","983324.03701","984090.822719","985636.176109","Mapping"
"Blocked","Male","ball","2","M_knife.wav","None","719.249401649","121","977974.489501","984857.812791","985624.53852","986390.614367","987140.295996","973307.617749","974074.321218","974840.811975","978741.436289","979490.793286","980257.592598","981023.819012","981790.676449","982557.527394","983324.03701","984090.822719","986400.544701","Mapping"
"Blocked","Male","ball","2","M_ball.wav","None","734.862957441","121","977974.489501","984857.812791","985624.53852","986390.614367","987140.295996","987907.263499","974074.321218","974840.811975","978741.436289","979490.793286","980257.592598","981023.819012","981790.676449","982557.527394","983324.03701","984090.822719","987150.227876","Mapping"
"Blocked","Male","ball","2","M_romp.wav","space","303.371255519","121","977974.489501","984857.812791","985624.53852","986390.614367","987140.295996","987907.263499","988674.019527","974840.811975","978741.436289","979490.793286","980257.592598","981023.819012","981790.676449","982557.527394","983324.03701","984090.822719","987917.111283","Mapping"
"Blocked","Male","ball","2","M_tile.wav","None","730.983142916","121","977974.489501","984857.812791","985624.53852","986390.614367","987140.295996","987907.263499","988674.019527","989440.627461","978741.436289","979490.793286","980257.592598","981023.819012","981790.676449","982557.527394","983324.03701","984090.822719","988683.345427","Mapping"
"Blocked","Male","ball","4","M_park.wav","None","728.898697242","121","992574.260775","984857.812791","985624.53852","986390.614367","987140.295996","987907.263499","988674.019527","989440.627461","978741.436289","979490.793286","980257.592598","981023.819012","981790.676449","982557.527394","983324.03701","984090.822719","989450.679918","Mapping"
"Blocked","Male","ball","4","M_reek.wav","None","719.84239592","121","992574.260775","984857.812791","985624.53852","986390.614367","987140.295996","987907.263499","988674.019527","989440.627461","993324.266726","979490.793286","980257.592598","981023.819012","981790.676449","982557.527394","983324.03701","984090.822719","992584.639719","Mapping"
"Blocked","Male","ball","4","M_ball.wav","None","735.608064802","121","992574.260775","984857.812791","985624.53852","986390.614367","987140.295996","987907.263499","988674.019527","989440.627461","993324.266726","994090.201899","980257.592598","981023.819012","981790.676449","982557.527394","983324.03701","984090.822719","993333.956523","Mapping"
"Blocked","Male","ball","4","M_cad.wav","space","376.987558615","121","992574.260775","984857.812791","985624.53852","986390.614367","987140.295996","987907.263499","988674.019527","989440.627461","993324.266726","994090.201899","994857.286579","981023.819012","981790.676449","982557.527394","983324.03701","984090.822719","994099.405058","Mapping"
"Blocked","Male","ball","4","M_cling.wav","None","731.606436137","121","992574.260775","984857.812791","985624.53852","986390.614367","987140.295996","987907.263499","988674.019527","989440.627461","993324.266726","994090.201899","994857.286579","995623.839789","981790.676449","982557.527394","983324.03701","984090.822719","994867.284003","Mapping"
"Blocked","Male","ball","4","M_dime.wav","None","730.717253988","121","992574.260775","984857.812791","985624.53852","986390.614367","987140.295996","987907.263499","988674.019527","989440.627461","993324.266726","994090.201899","994857.286579","995623.839789","996390.413096","982557.527394","983324.03701","984090.822719","995633.507017","Mapping"
"Blocked","Male","ball","4","M_park.wav","None","729.992861219","121","992574.260775","984857.812791","985624.53852","986390.614367","987140.295996","987907.263499","988674.019527","989440.627461","993324.266726","994090.201899","994857.286579","995623.839789","996390.413096","997157.230958","983324.03701","984090.822719","996400.001175","Mapping"
"Blocked","Male","ball","4","M_ball.wav","None","728.307867248","121","992574.260775","984857.812791","985624.53852","986390.614367","987140.295996","987907.263499","988674.019527","989440.627461","993324.266726","994090.201899","994857.286579","995623.839789","996390.413096","997157.230958","997924.176819","984090.822719","997167.071632","Mapping"
"Blocked","Male","ball","4","M_knife.wav","space","366.075908823","121","992574.260775","984857.812791","985624.53852","986390.614367","987140.295996","987907.263499","988674.019527","989440.627461","993324.266726","994090.201899","994857.286579","995623.839789","996390.413096","997157.230958","997924.176819","998690.357475","997934.218455","Mapping"
"Blocked","Male","ball","4","M_romp.wav","None","724.794422975","121","992574.260775","999457.610963","985624.53852","986390.614367","987140.295996","987907.263499","988674.019527","989440.627461","993324.266726","994090.201899","994857.286579","995623.839789","996390.413096","997157.230958","997924.176819","998690.357475","998699.930096","Mapping"
"Blocked","Male","ball","4","M_cave.wav","None","722.8286998","121","992574.260775","999457.610963","1000224.09801","986390.614367","987140.295996","987907.263499","988674.019527","989440.627461","993324.266726","994090.201899","994857.286579","995623.839789","996390.413096","997157.230958","997924.176819","998690.357475","999467.319929","Mapping"
"Blocked","Male","ball","4","M_ball.wav","None","721.268611844","121","992574.260775","999457.610963","1000224.09801","1000990.73501","987140.295996","987907.263499","988674.019527","989440.627461","993324.266726","994090.201899","994857.286579","995623.839789","996390.413096","997157.230958","997924.176819","998690.357475","1000234.23209","Mapping"
"Blocked","Male","ball","4","M_cave.wav","space","434.975465585","121","992574.260775","999457.610963","1000224.09801","1000990.73501","1001740.20887","987907.263499","988674.019527","989440.627461","993324.266726","994090.201899","994857.286579","995623.839789","996390.413096","997157.230958","997924.176819","998690.357475","1001001.26359","Mapping"
"Blocked","Male","ball","4","M_jolt.wav","None","735.062992491","121","992574.260775","999457.610963","1000224.09801","1000990.73501","1001740.20887","1002506.99643","988674.019527","989440.627461","993324.266726","994090.201899","994857.286579","995623.839789","996390.413096","997157.230958","997924.176819","998690.357475","1001749.82107","Mapping"
"Blocked","Male","ball","4","M_ball.wav","None","734.051068604","121","992574.260775","999457.610963","1000224.09801","1000990.73501","1001740.20887","1002506.99643","1003273.41732","989440.627461","993324.266726","994090.201899","994857.286579","995623.839789","996390.413096","997157.230958","997924.176819","998690.357475","1002516.76043","Mapping"
"Blocked","Male","ball","4","M_dime.wav","space","457.234390022","121","992574.260775","999457.610963","1000224.09801","1000990.73501","1001740.20887","1002506.99643","1003273.41732","1004040.30258","993324.266726","994090.201899","994857.286579","995623.839789","996390.413096","997157.230958","997924.176819","998690.357475","1003282.97077","Mapping"
"Blocked","Male","cave","8","M_greet.wav","None","729.888669797","121","1007174.00299","999457.610963","1000224.09801","1000990.73501","1001740.20887","1002506.99643","1003273.41732","1004040.30258","993324.266726","994090.201899","994857.286579","995623.839789","996390.413096","997157.230958","997924.176819","998690.357475","1004050.27898","Mapping"
"Blocked","Male","cave","8","M_jolt.wav","None","720.367371978","121","1007174.00299","999457.610963","1000224.09801","1000990.73501","1001740.20887","1002506.99643","1003273.41732","1004040.30258","1007940.66997","994090.201899","994857.286579","995623.839789","996390.413096","997157.230958","997924.176819","998690.357475","1007183.76637","Mapping"
"Blocked","Male","cave","8","M_depth.wav","None","718.610959011","121","1007174.00299","999457.610963","1000224.09801","1000990.73501","1001740.20887","1002506.99643","1003273.41732","1004040.30258","1007940.66997","1008690.21649","994857.286579","995623.839789","996390.413096","997157.230958","997924.176819","998690.357475","1007950.79694","Mapping"
"Blocked","Male","cave","8","M_greet.wav","None","734.627058264","121","1007174.00299","999457.610963","1000224.09801","1000990.73501","1001740.20887","1002506.99643","1003273.41732","1004040.30258","1007940.66997","1008690.21649","1009456.87018","995623.839789","996390.413096","997157.230958","997924.176819","998690.357475","1008700.02996","Mapping"
"Blocked","Male","cave","8","M_cave.wav","None","732.921658899","121","1007174.00299","999457.610963","1000224.09801","1000990.73501","1001740.20887","1002506.99643","1003273.41732","1004040.30258","1007940.66997","1008690.21649","1009456.87018","1010223.59499","996390.413096","997157.230958","997924.176819","998690.357475","1009466.982","Mapping"
"Blocked","Male","cave","8","M_done.wav","space","410.831202869","121","1007174.00299","999457.610963","1000224.09801","1000990.73501","1001740.20887","1002506.99643","1003273.41732","1004040.30258","1007940.66997","1008690.21649","1009456.87018","1010223.59499","1010990.22982","997157.230958","997924.176819","998690.357475","1010233.25387","Mapping"
"Blocked","Male","cave","8","M_cave.wav","None","729.803028808","121","1007174.00299","999457.610963","1000224.09801","1000990.73501","1001740.20887","1002506.99643","1003273.41732","1004040.30258","1007940.66997","1008690.21649","1009456.87018","1010223.59499","1010990.22982","1011757.02078","997924.176819","998690.357475","1010999.82408","Mapping"
"Blocked","Male","cave","8","M_greet.wav","space","469.218561659","121","1007174.00299","999457.610963","1000224.09801","1000990.73501","1001740.20887","1002506.99643","1003273.41732","1004040.30258","1007940.66997","1008690.21649","1009456.87018","1010223.59499","1010990.22982","1011757.02078","1012523.53256","998690.357475","1011766.7922","Mapping"
"Blocked","Male","cave","8","M_cling.wav","None","726.675123558","121","1007174.00299","999457.610963","1000224.09801","1000990.73501","1001740.20887","1002506.99643","1003273.41732","1004040.30258","1007940.66997","1008690.21649","1009456.87018","1010223.59499","1010990.22982","1011757.02078","1012523.53256","1013289.98467","1012532.8158","Mapping"
"Blocked","Male","cave","8","M_gnash.wav","None","725.767391094","121","1007174.00299","1014057.42181","1000224.09801","1000990.73501","1001740.20887","1002506.99643","1003273.41732","1004040.30258","1007940.66997","1008690.21649","1009456.87018","1010223.59499","1010990.22982","1011757.02078","1012523.53256","1013289.98467","1013299.25894","Mapping"
"Blocked","Male","cave","8","M_jaw.wav","None","723.226296541","121","1007174.00299","1014057.42181","1014823.85908","1000990.73501","1001740.20887","1002506.99643","1003273.41732","1004040.30258","1007940.66997","1008690.21649","1009456.87018","1010223.59499","1010990.22982","1011757.02078","1012523.53256","1013289.98467","1014067.07296","Mapping"
"Blocked","Male","cave","8","M_ball.wav","None","721.551196126","121","1007174.00299","1014057.42181","1014823.85908","1015590.79845","1001740.20887","1002506.99643","1003273.41732","1004040.30258","1007940.66997","1008690.21649","1009456.87018","1010223.59499","1010990.22982","1011757.02078","1012523.53256","1013289.98467","1014834.1057","Mapping"
"Blocked","Male","cave","8","M_cave.wav","None","719.1578864","121","1007174.00299","1014057.42181","1014823.85908","1015590.79845","1016357.326","1002506.99643","1003273.41732","1004040.30258","1007940.66997","1008690.21649","1009456.87018","1010223.59499","1010990.22982","1011757.02078","1012523.53256","1013289.98467","1015602.04648","Mapping"
"Blocked","Male","cave","8","M_depth.wav","space","291.388629819","121","1007174.00299","1014057.42181","1014823.85908","1015590.79845","1016357.326","1017106.34476","1003273.41732","1004040.30258","1007940.66997","1008690.21649","1009456.87018","1010223.59499","1010990.22982","1011757.02078","1012523.53256","1013289.98467","1016368.58361","Mapping"
"Blocked","Male","cave","8","M_cave.wav","None","734.741761524","121","1007174.00299","1014057.42181","1014823.85908","1015590.79845","1016357.326","1017106.34476","1017873.44459","1004040.30258","1007940.66997","1008690.21649","1009456.87018","1010223.59499","1010990.22982","1011757.02078","1012523.53256","1013289.98467","1017115.87533","Mapping"
"Blocked","Male","cave","8","M_gnash.wav","space","481.028668699","121","1007174.00299","1014057.42181","1014823.85908","1015590.79845","1016357.326","1017106.34476","1017873.44459","1018640.12209","1007940.66997","1008690.21649","1009456.87018","1010223.59499","1010990.22982","1011757.02078","1012523.53256","1013289.98467","1017882.88921","Mapping"
"Blocked","Male","cave","9","M_jolt.wav","None","730.026251869","121","1021773.91586","1014057.42181","1014823.85908","1015590.79845","1016357.326","1017106.34476","1017873.44459","1018640.12209","1007940.66997","1008690.21649","1009456.87018","1010223.59499","1010990.22982","1011757.02078","1012523.53256","1013289.98467","1018649.94359","Mapping"
"Blocked","Male","cave","9","M_cave.wav","None","720.371391217","121","1021773.91586","1014057.42181","1014823.85908","1015590.79845","1016357.326","1017106.34476","1017873.44459","1018640.12209","1022540.4734","1008690.21649","1009456.87018","1010223.59499","1010990.22982","1011757.02078","1012523.53256","1013289.98467","1021783.84094","Mapping"
"Blocked","Male","cave","9","M_jaw.wav","space","325.346358994","121","1021773.91586","1014057.42181","1014823.85908","1015590.79845","1016357.326","1017106.34476","1017873.44459","1018640.12209","1022540.4734","1023289.93119","1009456.87018","1010223.59499","1010990.22982","1011757.02078","1012523.53256","1013289.98467","1022550.51009","Mapping"
"Blocked","Male","cave","9","M_cad.wav","None","737.648917129","121","1021773.91586","1014057.42181","1014823.85908","1015590.79845","1016357.326","1017106.34476","1017873.44459","1018640.12209","1022540.4734","1023289.93119","1024056.39659","1010223.59499","1010990.22982","1011757.02078","1012523.53256","1013289.98467","1023295.90565","Mapping"
"Blocked","Male","cave","9","M_jaw.wav","space","305.81125035","121","1021773.91586","1014057.42181","1014823.85908","1015590.79845","1016357.326","1017106.34476","1017873.44459","1018640.12209","1022540.4734","1023289.93119","1024056.39659","1024823.34462","1010990.22982","1011757.02078","1012523.53256","1013289.98467","1024066.02332","Mapping"
"Blocked","Male","cave","9","M_park.wav","None","730.411790835","121","1021773.91586","1014057.42181","1014823.85908","1015590.79845","1016357.326","1017106.34476","1017873.44459","1018640.12209","1022540.4734","1023289.93119","1024056.39659","1024823.34462","1025590.04128","1011757.02078","1012523.53256","1013289.98467","1024832.58735","Mapping"
"Blocked","Male","cave","9","M_greet.wav","None","728.856031317","121","1021773.91586","1014057.42181","1014823.85908","1015590.79845","1016357.326","1017106.34476","1017873.44459","1018640.12209","1022540.4734","1023289.93119","1024056.39659","1024823.34462","1025590.04128","1026356.36323","1012523.53256","1013289.98467","1025599.50909","Mapping"
"Blocked","Male","cave","9","M_tile.wav","None","728.063311253","121","1021773.91586","1014057.42181","1014823.85908","1015590.79845","1016357.326","1017106.34476","1017873.44459","1018640.12209","1022540.4734","1023289.93119","1024056.39659","1024823.34462","1025590.04128","1026356.36323","1027123.3162","1013289.98467","1026365.8533","Mapping"
"Blocked","Male","cave","9","M_lash.wav","None","726.760764548","121","1021773.91586","1014057.42181","1014823.85908","1015590.79845","1016357.326","1017106.34476","1017873.44459","1018640.12209","1022540.4734","1023289.93119","1024056.39659","1024823.34462","1025590.04128","1026356.36323","1027123.3162","1027889.6026","1027132.80411","Mapping"
"Blocked","Male","cave","9","M_cave.wav","None","726.611743041","121","1021773.91586","1028656.73674","1014823.85908","1015590.79845","1016357.326","1017106.34476","1017873.44459","1018640.12209","1022540.4734","1023289.93119","1024056.39659","1024823.34462","1025590.04128","1026356.36323","1027123.3162","1027889.6026","1027898.84502","Mapping"
"Blocked","Male","cave","9","M_park.wav","space","11.2968795584","121","1021773.91586","1028656.73674","1029423.23369","1015590.79845","1016357.326","1017106.34476","1017873.44459","1018640.12209","1022540.4734","1023289.93119","1024056.39659","1024823.34462","1025590.04128","1026356.36323","1027123.3162","1027889.6026","1029080.51581","Mapping"
"Blocked","Male","cave","9","M_cave.wav","None","722.133060102","121","1021773.91586","1028656.73674","1029423.23369","1030190.08401","1016357.326","1017106.34476","1017873.44459","1018640.12209","1022540.4734","1023289.93119","1024056.39659","1024823.34462","1025590.04128","1026356.36323","1027123.3162","1027889.6026","1029432.88762","Mapping"
"Blocked","Male","cave","9","M_romp.wav","space","635.00094146","121","1021773.91586","1028656.73674","1029423.23369","1030190.08401","1030939.62249","1017106.34476","1017873.44459","1018640.12209","1022540.4734","1023289.93119","1024056.39659","1024823.34462","1025590.04128","1026356.36323","1027123.3162","1027889.6026","1030200.73163","Mapping"
"Blocked","Male","cave","9","M_cave.wav","None","735.156053677","121","1021773.91586","1028656.73674","1029423.23369","1030190.08401","1030939.62249","1031706.46602","1017873.44459","1018640.12209","1022540.4734","1023289.93119","1024056.39659","1024823.34462","1025590.04128","1026356.36323","1027123.3162","1027889.6026","1030949.34166","Mapping"
"Blocked","Male","cave","9","M_lash.wav","space","551.621567109","121","1021773.91586","1028656.73674","1029423.23369","1030190.08401","1030939.62249","1031706.46602","1032473.20566","1018640.12209","1022540.4734","1023289.93119","1024056.39659","1024823.34462","1025590.04128","1026356.36323","1027123.3162","1027889.6026","1031716.06399","Mapping"
"Blocked","Male","cave","9","M_romp.wav","None","731.808326207","121","1021773.91586","1028656.73674","1029423.23369","1030190.08401","1030939.62249","1031706.46602","1032473.20566","1033239.5947","1022540.4734","1023289.93119","1024056.39659","1024823.34462","1025590.04128","1026356.36323","1027123.3162","1027889.6026","1032482.22548","Mapping"
"Blocked","Male","done","21","M_lash.wav","None","730.375308427","121","1036373.4973","1028656.73674","1029423.23369","1030190.08401","1030939.62249","1031706.46602","1032473.20566","1033239.5947","1022540.4734","1023289.93119","1024056.39659","1024823.34462","1025590.04128","1026356.36323","1027123.3162","1027889.6026","1033249.01706","Mapping"
"Blocked","Male","done","21","M_ball.wav","None","719.926490972","121","1036373.4973","1028656.73674","1029423.23369","1030190.08401","1030939.62249","1031706.46602","1032473.20566","1033239.5947","1037140.08792","1023289.93119","1024056.39659","1024823.34462","1025590.04128","1026356.36323","1027123.3162","1027889.6026","1036383.55502","Mapping"
"Blocked","Male","done","21","M_park.wav","None","718.426073436","121","1036373.4973","1028656.73674","1029423.23369","1030190.08401","1030939.62249","1031706.46602","1032473.20566","1033239.5947","1037140.08792","1037889.33454","1024056.39659","1024823.34462","1025590.04128","1026356.36323","1027123.3162","1027889.6026","1037150.49315","Mapping"
"Blocked","Male","done","21","M_reek.wav","None","735.290234792","121","1036373.4973","1028656.73674","1029423.23369","1030190.08401","1030939.62249","1031706.46602","1032473.20566","1033239.5947","1037140.08792","1037889.33454","1038656.3172","1024823.34462","1025590.04128","1026356.36323","1027123.3162","1027889.6026","1037899.08556","Mapping"
"Blocked","Male","done","21","M_done.wav","None","733.917505771","121","1036373.4973","1028656.73674","1029423.23369","1030190.08401","1030939.62249","1031706.46602","1032473.20566","1033239.5947","1037140.08792","1037889.33454","1038656.3172","1039423.0655","1025590.04128","1026356.36323","1027123.3162","1027889.6026","1038666.13716","Mapping"
"Blocked","Male","done","21","M_jaw.wav","space","523.10466778","121","1036373.4973","1028656.73674","1029423.23369","1030190.08401","1030939.62249","1031706.46602","1032473.20566","1033239.5947","1037140.08792","1037889.33454","1038656.3172","1039423.0655","1040189.70497","1026356.36323","1027123.3162","1027889.6026","1039432.46189","Mapping"
"Blocked","Male","done","21","M_gnash.wav","None","730.205263186","121","1036373.4973","1028656.73674","1029423.23369","1030190.08401","1030939.62249","1031706.46602","1032473.20566","1033239.5947","1037140.08792","1037889.33454","1038656.3172","1039423.0655","1040189.70497","1040956.42513","1027123.3162","1027889.6026","1040199.52709","Mapping"
"Blocked","Male","done","21","M_done.wav","None","729.135523899","121","1036373.4973","1028656.73674","1029423.23369","1030190.08401","1030939.62249","1031706.46602","1032473.20566","1033239.5947","1037140.08792","1037889.33454","1038656.3172","1039423.0655","1040189.70497","1040956.42513","1041723.004","1027889.6026","1040966.13966","Mapping"
"Blocked","Male","done","21","M_tile.wav","space","542.957606493","121","1036373.4973","1028656.73674","1029423.23369","1030190.08401","1030939.62249","1031706.46602","1032473.20566","1033239.5947","1037140.08792","1037889.33454","1038656.3172","1039423.0655","1040189.70497","1040956.42513","1041723.004","1042489.59246","1041732.5522","Mapping"
"Blocked","Male","done","21","M_done.wav","None","725.202840811","121","1036373.4973","1043256.88026","1029423.23369","1030190.08401","1030939.62249","1031706.46602","1032473.20566","1033239.5947","1037140.08792","1037889.33454","1038656.3172","1039423.0655","1040189.70497","1040956.42513","1041723.004","1042489.59246","1042499.62173","Mapping"
"Blocked","Male","done","21","M_jaw.wav","None","723.855464021","121","1036373.4973","1043256.88026","1044023.37102","1030190.08401","1030939.62249","1031706.46602","1032473.20566","1033239.5947","1037140.08792","1037889.33454","1038656.3172","1039423.0655","1040189.70497","1040956.42513","1041723.004","1042489.59246","1043266.55398","Mapping"
"Blocked","Male","done","21","M_tile.wav","space","33.9629851514","121","1036373.4973","1043256.88026","1044023.37102","1044789.99627","1030939.62249","1031706.46602","1032473.20566","1033239.5947","1037140.08792","1037889.33454","1038656.3172","1039423.0655","1040189.70497","1040956.42513","1041723.004","1042489.59246","1044033.5218","Mapping"
"Blocked","Male","done","21","M_done.wav","None","719.487155904","121","1036373.4973","1043256.88026","1044023.37102","1044789.99627","1045556.76497","1031706.46602","1032473.20566","1033239.5947","1037140.08792","1037889.33454","1038656.3172","1039423.0655","1040189.70497","1040956.42513","1041723.004","1042489.59246","1044800.49115","Mapping"
"Blocked","Male","done","21","M_cling.wav","space","556.324709731","121","1036373.4973","1043256.88026","1044023.37102","1044789.99627","1045556.76497","1046306.40919","1032473.20566","1033239.5947","1037140.08792","1037889.33454","1038656.3172","1039423.0655","1040189.70497","1040956.42513","1041723.004","1042489.59246","1045567.11516","Mapping"
"Blocked","Male","done","21","M_greet.wav","None","733.933891926","121","1036373.4973","1043256.88026","1044023.37102","1044789.99627","1045556.76497","1046306.40919","1047072.92499","1033239.5947","1037140.08792","1037889.33454","1038656.3172","1039423.0655","1040189.70497","1040956.42513","1041723.004","1042489.59246","1046315.5836","Mapping"
"Blocked","Male","done","21","M_depth.wav","None","733.286174072","121","1036373.4973","1043256.88026","1044023.37102","1044789.99627","1045556.76497","1046306.40919","1047072.92499","1047839.48933","1037140.08792","1037889.33454","1038656.3172","1039423.0655","1040189.70497","1040956.42513","1041723.004","1042489.59246","1047082.18844","Mapping"
"Blocked","Male","done","24","M_cave.wav","None","731.220897113","121","1050973.2423","1043256.88026","1044023.37102","1044789.99627","1045556.76497","1046306.40919","1047072.92499","1047839.48933","1037140.08792","1037889.33454","1038656.3172","1039423.0655","1040189.70497","1040956.42513","1041723.004","1042489.59246","1047849.78202","Mapping"
"Blocked","Male","done","24","M_done.wav","None","719.746861374","121","1050973.2423","1043256.88026","1044023.37102","1044789.99627","1045556.76497","1046306.40919","1047072.92499","1047839.48933","1051739.8255","1037889.33454","1038656.3172","1039423.0655","1040189.70497","1040956.42513","1041723.004","1042489.59246","1050983.5155","Mapping"
"Blocked","Male","done","24","M_bluff.wav","space","510.019221285","121","1050973.2423","1043256.88026","1044023.37102","1044789.99627","1045556.76497","1046306.40919","1047072.92499","1047839.48933","1051739.8255","1052489.17507","1038656.3172","1039423.0655","1040189.70497","1040956.42513","1041723.004","1042489.59246","1051749.34278","Mapping"
"Blocked","Male","done","24","M_done.wav","None","734.639425238","121","1050973.2423","1043256.88026","1044023.37102","1044789.99627","1045556.76497","1046306.40919","1047072.92499","1047839.48933","1051739.8255","1052489.17507","1053256.22636","1039423.0655","1040189.70497","1040956.42513","1041723.004","1042489.59246","1052498.5826","Mapping"
"Blocked","Male","done","24","M_greet.wav","space","489.083867287","121","1050973.2423","1043256.88026","1044023.37102","1044789.99627","1045556.76497","1046306.40919","1047072.92499","1047839.48933","1051739.8255","1052489.17507","1053256.22636","1054022.95456","1040189.70497","1040956.42513","1041723.004","1042489.59246","1053266.21791","Mapping"
"Blocked","Male","done","24","M_done.wav","None","735.607755661","121","1050973.2423","1043256.88026","1044023.37102","1044789.99627","1045556.76497","1046306.40919","1047072.92499","1047839.48933","1051739.8255","1052489.17507","1053256.22636","1054022.95456","1054789.40142","1040956.42513","1041723.004","1042489.59246","1054027.24867","Mapping"
"Blocked","Male","done","24","M_bluff.wav","space","371.7631498","121","1050973.2423","1043256.88026","1044023.37102","1044789.99627","1045556.76497","1046306.40919","1047072.92499","1047839.48933","1051739.8255","1052489.17507","1053256.22636","1054022.95456","1054789.40142","1055556.25978","1041723.004","1042489.59246","1054799.57291","Mapping"
"Blocked","Male","done","24","M_romp.wav","None","726.780860801","121","1050973.2423","1043256.88026","1044023.37102","1044789.99627","1045556.76497","1046306.40919","1047072.92499","1047839.48933","1051739.8255","1052489.17507","1053256.22636","1054022.95456","1054789.40142","1055556.25978","1056322.79599","1042489.59246","1055565.8559","Mapping"
"Blocked","Male","done","24","M_done.wav","None","726.072235848","121","1050973.2423","1043256.88026","1044023.37102","1044789.99627","1045556.76497","1046306.40919","1047072.92499","1047839.48933","1051739.8255","1052489.17507","1053256.22636","1054022.95456","1054789.40142","1055556.25978","1056322.79599","1057089.34796","1056332.28544","Mapping"
"Blocked","Male","done","24","M_romp.wav","space","496.246173629","121","1050973.2423","1057856.41904","1044023.37102","1044789.99627","1045556.76497","1046306.40919","1047072.92499","1047839.48933","1051739.8255","1052489.17507","1053256.22636","1054022.95456","1054789.40142","1055556.25978","1056322.79599","1057089.34796","1057099.00777","Mapping"
"Blocked","Male","done","24","M_greet.wav","None","721.868407854","121","1050973.2423","1057856.41904","1058623.46012","1044789.99627","1045556.76497","1046306.40919","1047072.92499","1047839.48933","1051739.8255","1052489.17507","1053256.22636","1054022.95456","1054789.40142","1055556.25978","1056322.79599","1057089.34796","1057866.73553","Mapping"
"Blocked","Male","done","24","M_cad.wav","None","719.293304253","121","1050973.2423","1057856.41904","1058623.46012","1059389.55483","1045556.76497","1046306.40919","1047072.92499","1047839.48933","1051739.8255","1052489.17507","1053256.22636","1054022.95456","1054789.40142","1055556.25978","1056322.79599","1057089.34796","1058635.20963","Mapping"
"Blocked","Male","done","24","M_park.wav","None","719.892172783","121","1050973.2423","1057856.41904","1058623.46012","1059389.55483","1060156.74494","1046306.40919","1047072.92499","1047839.48933","1051739.8255","1052489.17507","1053256.22636","1054022.95456","1054789.40142","1055556.25978","1056322.79599","1057089.34796","1059400.2479","Mapping"
"Blocked","Male","done","24","M_greet.wav","None","718.451425666","121","1050973.2423","1057856.41904","1058623.46012","1059389.55483","1060156.74494","1060906.31279","1047072.92499","1047839.48933","1051739.8255","1052489.17507","1053256.22636","1054022.95456","1054789.40142","1055556.25978","1056322.79599","1057089.34796","1060167.34185","Mapping"
"Blocked","Male","done","24","M_jaw.wav","None","734.95045345","121","1050973.2423","1057856.41904","1058623.46012","1059389.55483","1060156.74494","1060906.31279","1061672.51107","1047839.48933","1051739.8255","1052489.17507","1053256.22636","1054022.95456","1054789.40142","1055556.25978","1056322.79599","1057089.34796","1060916.50345","Mapping"
"Blocked","Male","done","24","M_gnash.wav","None","735.278486216","121","1050973.2423","1057856.41904","1058623.46012","1059389.55483","1060156.74494","1060906.31279","1061672.51107","1062439.08036","1051739.8255","1052489.17507","1053256.22636","1054022.95456","1054789.40142","1055556.25978","1056322.79599","1057089.34796","1061681.81038","Mapping"
"Blocked","Male","done","20","M_lash.wav","None","734.122178459","121","1065572.8729","1057856.41904","1058623.46012","1059389.55483","1060156.74494","1060906.31279","1061672.51107","1062439.08036","1051739.8255","1052489.17507","1053256.22636","1054022.95456","1054789.40142","1055556.25978","1056322.79599","1057089.34796","1062448.6066","Mapping"
"Blocked","Male","done","20","M_knife.wav","None","719.967611018","121","1065572.8729","1057856.41904","1058623.46012","1059389.55483","1060156.74494","1060906.31279","1061672.51107","1062439.08036","1066339.57513","1052489.17507","1053256.22636","1054022.95456","1054789.40142","1055556.25978","1056322.79599","1057089.34796","1065583.03016","Mapping"
"Blocked","Male","done","20","M_priest.wav","None","718.372895673","121","1065572.8729","1057856.41904","1058623.46012","1059389.55483","1060156.74494","1060906.31279","1061672.51107","1062439.08036","1066339.57513","1067089.17946","1053256.22636","1054022.95456","1054789.40142","1055556.25978","1056322.79599","1057089.34796","1066350.23511","Mapping"
"Blocked","Male","done","20","M_cave.wav","None","735.677628778","121","1065572.8729","1057856.41904","1058623.46012","1059389.55483","1060156.74494","1060906.31279","1061672.51107","1062439.08036","1066339.57513","1067089.17946","1067855.78863","1054022.95456","1054789.40142","1055556.25978","1056322.79599","1057089.34796","1067098.68499","Mapping"
"Blocked","Male","done","20","M_done.wav","None","733.970374451","121","1065572.8729","1057856.41904","1058623.46012","1059389.55483","1060156.74494","1060906.31279","1061672.51107","1062439.08036","1066339.57513","1067089.17946","1067855.78863","1068622.53199","1054789.40142","1055556.25978","1056322.79599","1057089.34796","1067865.96136","Mapping"
"Blocked","Male","done","20","M_ball.wav","space","427.034042776","121","1065572.8729","1057856.41904","1058623.46012","1059389.55483","1060156.74494","1060906.31279","1061672.51107","1062439.08036","1066339.57513","1067089.17946","1067855.78863","1068622.53199","1069389.06417","1055556.25978","1056322.79599","1057089.34796","1068632.01742","Mapping"
"Blocked","Male","done","20","M_done.wav","None","736.534966098","121","1065572.8729","1057856.41904","1058623.46012","1059389.55483","1060156.74494","1060906.31279","1061672.51107","1062439.08036","1066339.57513","1067089.17946","1067855.78863","1068622.53199","1069389.06417","1070155.90244","1056322.79599","1057089.34796","1069393.03488","Mapping"
"Blocked","Male","done","20","M_dime.wav","space","429.448994575","121","1065572.8729","1057856.41904","1058623.46012","1059389.55483","1060156.74494","1060906.31279","1061672.51107","1062439.08036","1066339.57513","1067089.17946","1067855.78863","1068622.53199","1069389.06417","1070155.90244","1070922.52398","1057089.34796","1070165.59997","Mapping"
"Blocked","Male","done","20","M_romp.wav","None","726.683471235","121","1065572.8729","1057856.41904","1058623.46012","1059389.55483","1060156.74494","1060906.31279","1061672.51107","1062439.08036","1066339.57513","1067089.17946","1067855.78863","1068622.53199","1069389.06417","1070155.90244","1070922.52398","1071689.03298","1070932.60952","Mapping"
"Blocked","Male","done","20","M_done.wav","None","726.431495103","121","1065572.8729","1072455.93741","1058623.46012","1059389.55483","1060156.74494","1060906.31279","1061672.51107","1062439.08036","1066339.57513","1067089.17946","1067855.78863","1068622.53199","1069389.06417","1070155.90244","1070922.52398","1071689.03298","1071698.57221","Mapping"
"Blocked","Male","done","20","M_lash.wav","space","545.103577664","121","1065572.8729","1072455.93741","1073222.91388","1059389.55483","1060156.74494","1060906.31279","1061672.51107","1062439.08036","1066339.57513","1067089.17946","1067855.78863","1068622.53199","1069389.06417","1070155.90244","1070922.52398","1071689.03298","1072465.90577","Mapping"
"Blocked","Male","done","20","M_cling.wav","None","721.608084044","121","1065572.8729","1072455.93741","1073222.91388","1073989.60652","1060156.74494","1060906.31279","1061672.51107","1062439.08036","1066339.57513","1067089.17946","1067855.78863","1068622.53199","1069389.06417","1070155.90244","1070922.52398","1071689.03298","1073233.36393","Mapping"
"Blocked","Male","done","20","M_jolt.wav","None","720.743326587","121","1065572.8729","1072455.93741","1073222.91388","1073989.60652","1074756.09172","1060906.31279","1061672.51107","1062439.08036","1066339.57513","1067089.17946","1067855.78863","1068622.53199","1069389.06417","1070155.90244","1070922.52398","1071689.03298","1073999.86489","Mapping"
"Blocked","Male","done","20","M_ball.wav","None","719.837139943","121","1065572.8729","1072455.93741","1073222.91388","1073989.60652","1074756.09172","1075521.94681","1061672.51107","1062439.08036","1066339.57513","1067089.17946","1067855.78863","1068622.53199","1069389.06417","1070155.90244","1070922.52398","1071689.03298","1074766.51364","Mapping"
"Blocked","Male","done","20","M_done.wav","None","723.832585209","121","1065572.8729","1072455.93741","1073222.91388","1073989.60652","1074756.09172","1075521.94681","1076289.47361","1062439.08036","1066339.57513","1067089.17946","1067855.78863","1068622.53199","1069389.06417","1070155.90244","1070922.52398","1071689.03298","1075530.97869","Mapping"
