"Condition","Talker","Target","Trial","current_stimulus","response_response","response_time_response","subject_nr","time_Audio1","time_Audio10","time_Audio11","time_Audio12","time_Audio13","time_Audio14","time_Audio15","time_Audio16","time_Audio2","time_Audio3","time_Audio4","time_Audio5","time_Audio6","time_Audio7","time_Audio8","time_Audio9","time_response","title"
"Blocked","Female","done","19","F_reek.wav","NA","NA","230","79647.6182997","NA","NA","NA","NA","NA","NA","NA","NA","NA","NA","NA","NA","NA","NA","NA","NA","Mapping"
"Blocked","Female","done","19","F_done.wav","None","715.089476202","230","79647.6182997","NA","NA","NA","NA","NA","NA","NA","80397.4900702","NA","NA","NA","NA","NA","NA","NA","79662.6861648","Mapping"
"Blocked","Female","done","19","F_bluff.wav","space","633.979742415","230","79647.6182997","NA","NA","NA","NA","NA","NA","NA","80397.4900702","81163.7913045","NA","NA","NA","NA","NA","NA","80408.2199261","Mapping"
"Blocked","Female","done","19","F_done.wav","None","731.053943629","230","79647.6182997","NA","NA","NA","NA","NA","NA","NA","80397.4900702","81163.7913045","81930.5674287","NA","NA","NA","NA","NA","81173.6582579","Mapping"
"Blocked","Female","done","19","F_cad.wav","None","727.889555972","230","79647.6182997","NA","NA","NA","NA","NA","NA","NA","80397.4900702","81163.7913045","81930.5674287","82697.0996154","NA","NA","NA","NA","81940.3493595","Mapping"
"Blocked","Female","done","19","F_done.wav","None","725.159247406","230","79647.6182997","NA","NA","NA","NA","NA","NA","NA","80397.4900702","81163.7913045","81930.5674287","82697.0996154","83464.1524496","NA","NA","NA","82706.7702438","Mapping"
"Blocked","Female","done","19","F_reek.wav","space","407.345584244","230","79647.6182997","NA","NA","NA","NA","NA","NA","NA","80397.4900702","81163.7913045","81930.5674287","82697.0996154","83464.1524496","84213.651048","NA","NA","83474.790481","Mapping"
"Blocked","Female","done","19","F_done.wav","None","735.462753451","230","79647.6182997","NA","NA","NA","NA","NA","NA","NA","80397.4900702","81163.7913045","81930.5674287","82697.0996154","83464.1524496","84213.651048","84980.3458598","NA","84223.5257308","Mapping"
"Blocked","Female","done","19","F_reek.wav","space","324.244156596","230","79647.6182997","NA","NA","NA","NA","NA","NA","NA","80397.4900702","81163.7913045","81930.5674287","82697.0996154","83464.1524496","84213.651048","84980.3458598","85747.2159726","84989.8690126","Mapping"
"Blocked","Female","done","19","F_romp.wav","None","729.135833099","230","79647.6182997","86513.8566791","NA","NA","NA","NA","NA","NA","80397.4900702","81163.7913045","81930.5674287","82697.0996154","83464.1524496","84213.651048","84980.3458598","85747.2159726","85757.0028503","Mapping"
"Blocked","Female","done","19","F_depth.wav","None","725.725034368","230","79647.6182997","86513.8566791","87280.9812416","NA","NA","NA","NA","NA","80397.4900702","81163.7913045","81930.5674287","82697.0996154","83464.1524496","84213.651048","84980.3458598","85747.2159726","86523.9916857","Mapping"
"Blocked","Female","done","19","F_cling.wav","None","722.301868722","230","79647.6182997","86513.8566791","87280.9812416","88047.7941575","NA","NA","NA","NA","80397.4900702","81163.7913045","81930.5674287","82697.0996154","83464.1524496","84213.651048","84980.3458598","85747.2159726","87291.0327715","Mapping"
"Blocked","Female","done","19","F_greet.wav","None","719.134389306","230","79647.6182997","86513.8566791","87280.9812416","88047.7941575","88797.4832065","NA","NA","NA","80397.4900702","81163.7913045","81930.5674287","82697.0996154","83464.1524496","84213.651048","84980.3458598","85747.2159726","88057.8565084","Mapping"
"Blocked","Female","done","19","F_priest.wav","None","733.65656368","230","79647.6182997","86513.8566791","87280.9812416","88047.7941575","88797.4832065","89564.3514644","NA","NA","80397.4900702","81163.7913045","81930.5674287","82697.0996154","83464.1524496","84213.651048","84980.3458598","85747.2159726","88806.9831714","Mapping"
"Blocked","Female","done","19","F_cling.wav","None","730.258750147","230","79647.6182997","86513.8566791","87280.9812416","88047.7941575","88797.4832065","89564.3514644","90330.9148776","NA","80397.4900702","81163.7913045","81930.5674287","82697.0996154","83464.1524496","84213.651048","84980.3458598","85747.2159726","89574.0891835","Mapping"
"Blocked","Female","done","19","F_lash.wav","None","727.052314905","230","79647.6182997","86513.8566791","87280.9812416","88047.7941575","88797.4832065","89564.3514644","90330.9148776","91097.5422895","80397.4900702","81163.7913045","81930.5674287","82697.0996154","83464.1524496","84213.651048","84980.3458598","85747.2159726","90340.7756475","Mapping"
"Blocked","Female","ball","5","F_done.wav","None","724.368691444","230","94231.1282998","86513.8566791","87280.9812416","88047.7941575","88797.4832065","89564.3514644","90330.9148776","91097.5422895","80397.4900702","81163.7913045","81930.5674287","82697.0996154","83464.1524496","84213.651048","84980.3458598","85747.2159726","91107.2014787","Mapping"
"Blocked","Female","ball","5","F_ball.wav","None","719.122640556","230","94231.1282998","86513.8566791","87280.9812416","88047.7941575","88797.4832065","89564.3514644","90330.9148776","91097.5422895","94980.7715912","81163.7913045","81930.5674287","82697.0996154","83464.1524496","84213.651048","84980.3458598","85747.2159726","94241.2416644","Mapping"
"Blocked","Female","ball","5","F_bluff.wav","space","427.069288562","230","94231.1282998","86513.8566791","87280.9812416","88047.7941575","88797.4832065","89564.3514644","90330.9148776","91097.5422895","94980.7715912","95747.5990383","81930.5674287","82697.0996154","83464.1524496","84213.651048","84980.3458598","85747.2159726","94990.8670237","Mapping"
"Blocked","Female","ball","5","F_cave.wav","None","695.527469623","230","94231.1282998","86513.8566791","87280.9812416","88047.7941575","88797.4832065","89564.3514644","90330.9148776","91097.5422895","94980.7715912","95747.5990383","96514.1541037","82697.0996154","83464.1524496","84213.651048","84980.3458598","85747.2159726","95791.9347843","Mapping"
"Blocked","Female","ball","5","F_jolt.wav","None","727.899140329","230","94231.1282998","86513.8566791","87280.9812416","88047.7941575","88797.4832065","89564.3514644","90330.9148776","91097.5422895","94980.7715912","95747.5990383","96514.1541037","97280.8702484","83464.1524496","84213.651048","84980.3458598","85747.2159726","96523.2873892","Mapping"
"Blocked","Female","ball","5","F_ball.wav","None","724.874808104","230","94231.1282998","86513.8566791","87280.9812416","88047.7941575","88797.4832065","89564.3514644","90330.9148776","91097.5422895","94980.7715912","95747.5990383","96514.1541037","97280.8702484","98047.7539649","84213.651048","84980.3458598","85747.2159726","97290.0403255","Mapping"
"Blocked","Female","ball","5","F_lash.wav","space","432.419839897","230","94231.1282998","86513.8566791","87280.9812416","88047.7941575","88797.4832065","89564.3514644","90330.9148776","91097.5422895","94980.7715912","95747.5990383","96514.1541037","97280.8702484","98047.7539649","98797.5493696","84980.3458598","85747.2159726","98057.461076","Mapping"
"Blocked","Female","ball","5","F_priest.wav","None","735.58704101","230","94231.1282998","86513.8566791","87280.9812416","88047.7941575","88797.4832065","89564.3514644","90330.9148776","91097.5422895","94980.7715912","95747.5990383","96514.1541037","97280.8702484","98047.7539649","98797.5493696","99563.952631","85747.2159726","98806.9204093","Mapping"
"Blocked","Female","ball","5","F_ball.wav","None","732.907746104","230","94231.1282998","86513.8566791","87280.9812416","88047.7941575","88797.4832065","89564.3514644","90330.9148776","91097.5422895","94980.7715912","95747.5990383","96514.1541037","97280.8702484","98047.7539649","98797.5493696","99563.952631","100330.708041","99573.3270716","Mapping"
"Blocked","Female","ball","5","F_depth.wav","space","525.940095191","230","94231.1282998","101097.418929","87280.9812416","88047.7941575","88797.4832065","89564.3514644","90330.9148776","91097.5422895","94980.7715912","95747.5990383","96514.1541037","97280.8702484","98047.7539649","98797.5493696","99563.952631","100330.708041","100339.915528","Mapping"
"Blocked","Female","ball","5","F_greet.wav","None","726.714697783","230","94231.1282998","101097.418929","101864.72745","88047.7941575","88797.4832065","89564.3514644","90330.9148776","91097.5422895","94980.7715912","95747.5990383","96514.1541037","97280.8702484","98047.7539649","98797.5493696","99563.952631","100330.708041","101106.975782","Mapping"
"Blocked","Female","ball","5","F_knife.wav","None","723.068927415","230","94231.1282998","101097.418929","101864.72745","102631.132566","88797.4832065","89564.3514644","90330.9148776","91097.5422895","94980.7715912","95747.5990383","96514.1541037","97280.8702484","98047.7539649","98797.5493696","99563.952631","100330.708041","101874.331606","Mapping"
"Blocked","Female","ball","5","F_reek.wav","None","720.401999424","230","94231.1282998","101097.418929","101864.72745","102631.132566","103380.498839","89564.3514644","90330.9148776","91097.5422895","94980.7715912","95747.5990383","96514.1541037","97280.8702484","98047.7539649","98797.5493696","99563.952631","100330.708041","102640.813398","Mapping"
"Blocked","Female","ball","5","F_ball.wav","None","734.886145452","230","94231.1282998","101097.418929","101864.72745","102631.132566","103380.498839","104146.970736","90330.9148776","91097.5422895","94980.7715912","95747.5990383","96514.1541037","97280.8702484","98047.7539649","98797.5493696","99563.952631","100330.708041","103390.150608","Mapping"
"Blocked","Female","ball","5","F_tile.wav","space","453.997655888","230","94231.1282998","101097.418929","101864.72745","102631.132566","103380.498839","104146.970736","104913.799111","91097.5422895","94980.7715912","95747.5990383","96514.1541037","97280.8702484","98047.7539649","98797.5493696","99563.952631","100330.708041","104155.793921","Mapping"
"Blocked","Female","ball","5","F_dime.wav","None","729.313916876","230","94231.1282998","101097.418929","101864.72745","102631.132566","103380.498839","104146.970736","104913.799111","105680.616665","94980.7715912","95747.5990383","96514.1541037","97280.8702484","98047.7539649","98797.5493696","99563.952631","100330.708041","104923.093167","Mapping"
"Blocked","Female","ball","3","F_greet.wav","None","726.782715879","230","108797.630064","101097.418929","101864.72745","102631.132566","103380.498839","104146.970736","104913.799111","105680.616665","94980.7715912","95747.5990383","96514.1541037","97280.8702484","98047.7539649","98797.5493696","99563.952631","100330.708041","105689.6977","Mapping"
"Blocked","Female","ball","3","F_priest.wav","None","719.95957254","230","108797.630064","101097.418929","101864.72745","102631.132566","103380.498839","104146.970736","104913.799111","105680.616665","109547.122788","95747.5990383","96514.1541037","97280.8702484","98047.7539649","98797.5493696","99563.952631","100330.708041","108807.395299","Mapping"
"Blocked","Female","ball","3","F_park.wav","None","734.424240654","230","108797.630064","101097.418929","101864.72745","102631.132566","103380.498839","104146.970736","104913.799111","105680.616665","109547.122788","110313.707843","96514.1541037","97280.8702484","98047.7539649","98797.5493696","99563.952631","100330.708041","109556.668201","Mapping"
"Blocked","Female","ball","3","F_greet.wav","None","732.277651085","230","108797.630064","101097.418929","101864.72745","102631.132566","103380.498839","104146.970736","104913.799111","105680.616665","109547.122788","110313.707843","111080.54271","97280.8702484","98047.7539649","98797.5493696","99563.952631","100330.708041","110322.659644","Mapping"
"Blocked","Female","ball","3","F_depth.wav","None","728.530162713","230","108797.630064","101097.418929","101864.72745","102631.132566","103380.498839","104146.970736","104913.799111","105680.616665","109547.122788","110313.707843","111080.54271","111847.192383","98047.7539649","98797.5493696","99563.952631","100330.708041","111090.167581","Mapping"
"Blocked","Female","ball","3","F_depth.wav","None","725.885804393","230","108797.630064","101097.418929","101864.72745","102631.132566","103380.498839","104146.970736","104913.799111","105680.616665","109547.122788","110313.707843","111080.54271","111847.192383","112614.050438","98797.5493696","99563.952631","100330.708041","111856.664831","Mapping"
"Blocked","Female","ball","3","F_ball.wav","None","722.778922878","230","108797.630064","101097.418929","101864.72745","102631.132566","103380.498839","104146.970736","104913.799111","105680.616665","109547.122788","110313.707843","111080.54271","111847.192383","112614.050438","113380.85748","99563.952631","100330.708041","112623.573282","Mapping"
"Blocked","Female","ball","3","F_dime.wav","space","379.052835517","230","108797.630064","101097.418929","101864.72745","102631.132566","103380.498839","104146.970736","104913.799111","105680.616665","109547.122788","110313.707843","111080.54271","111847.192383","112614.050438","113380.85748","114130.559205","100330.708041","113390.55717","Mapping"
"Blocked","Female","ball","3","F_ball.wav","None","733.795691514","230","108797.630064","101097.418929","101864.72745","102631.132566","103380.498839","104146.970736","104913.799111","105680.616665","109547.122788","110313.707843","111080.54271","111847.192383","112614.050438","113380.85748","114130.559205","114897.134985","114139.925607","Mapping"
"Blocked","Female","ball","3","F_cave.wav","space","623.006258043","230","108797.630064","115663.643056","101864.72745","102631.132566","103380.498839","104146.970736","104913.799111","105680.616665","109547.122788","110313.707843","111080.54271","111847.192383","112614.050438","113380.85748","114130.559205","114897.134985","114906.622583","Mapping"
"Blocked","Female","ball","3","F_ball.wav","None","728.061765432","230","108797.630064","115663.643056","116430.386717","102631.132566","103380.498839","104146.970736","104913.799111","105680.616665","109547.122788","110313.707843","111080.54271","111847.192383","112614.050438","113380.85748","114130.559205","114897.134985","115673.039448","Mapping"
"Blocked","Female","ball","3","F_reek.wav","space","673.994792975","230","108797.630064","115663.643056","116430.386717","117197.422547","103380.498839","104146.970736","104913.799111","105680.616665","109547.122788","110313.707843","111080.54271","111847.192383","112614.050438","113380.85748","114130.559205","114897.134985","116439.58091","Mapping"
"Blocked","Female","ball","3","F_ball.wav","None","721.05033556","230","108797.630064","115663.643056","116430.386717","117197.422547","117947.196928","104146.970736","104913.799111","105680.616665","109547.122788","110313.707843","111080.54271","111847.192383","112614.050438","113380.85748","114130.559205","114897.134985","117207.541786","Mapping"
"Blocked","Female","ball","3","F_knife.wav","space","564.884788124","230","108797.630064","115663.643056","116430.386717","117197.422547","117947.196928","118713.588131","104913.799111","105680.616665","109547.122788","110313.707843","111080.54271","111847.192383","112614.050438","113380.85748","114130.559205","114897.134985","117956.622073","Mapping"
"Blocked","Female","ball","3","F_greet.wav","None","733.093559276","230","108797.630064","115663.643056","116430.386717","117197.422547","117947.196928","118713.588131","119480.443713","105680.616665","109547.122788","110313.707843","111080.54271","111847.192383","112614.050438","113380.85748","114130.559205","114897.134985","118722.921452","Mapping"
"Blocked","Female","ball","3","F_park.wav","None","729.772111517","230","108797.630064","115663.643056","116430.386717","117197.422547","117947.196928","118713.588131","119480.443713","120247.085965","109547.122788","110313.707843","111080.54271","111847.192383","112614.050438","113380.85748","114130.559205","114897.134985","119490.065492","Mapping"
"Blocked","Female","done","24","F_lash.wav","None","727.052623988","230","123380.735975","115663.643056","116430.386717","117197.422547","117947.196928","118713.588131","119480.443713","120247.085965","109547.122788","110313.707843","111080.54271","111847.192383","112614.050438","113380.85748","114130.559205","114897.134985","120256.693213","Mapping"
"Blocked","Female","done","24","F_done.wav","None","720.263489755","230","123380.735975","115663.643056","116430.386717","117197.422547","117947.196928","118713.588131","119480.443713","120247.085965","124130.00022","110313.707843","111080.54271","111847.192383","112614.050438","113380.85748","114130.559205","114897.134985","123390.488225","Mapping"
"Blocked","Female","done","24","F_cling.wav","space","581.96722588","230","123380.735975","115663.643056","116430.386717","117197.422547","117947.196928","118713.588131","119480.443713","120247.085965","124130.00022","124896.941751","111080.54271","111847.192383","112614.050438","113380.85748","114130.559205","114897.134985","124139.428765","Mapping"
"Blocked","Female","done","24","F_done.wav","None","731.223370531","230","123380.735975","115663.643056","116430.386717","117197.422547","117947.196928","118713.588131","119480.443713","120247.085965","124130.00022","124896.941751","125663.489397","111847.192383","112614.050438","113380.85748","114130.559205","114897.134985","124906.819835","Mapping"
"Blocked","Female","done","24","F_ball.wav","space","312.333877315","230","123380.735975","115663.643056","116430.386717","117197.422547","117947.196928","118713.588131","119480.443713","120247.085965","124130.00022","124896.941751","125663.489397","126429.987574","112614.050438","113380.85748","114130.559205","114897.134985","125673.046559","Mapping"
"Blocked","Female","done","24","F_knife.wav","None","726.061414694","230","123380.735975","115663.643056","116430.386717","117197.422547","117947.196928","118713.588131","119480.443713","120247.085965","124130.00022","124896.941751","125663.489397","126429.987574","127197.16315","113380.85748","114130.559205","114897.134985","126439.335735","Mapping"
"Blocked","Female","done","24","F_done.wav","None","721.953430446","230","123380.735975","115663.643056","116430.386717","117197.422547","117947.196928","118713.588131","119480.443713","120247.085965","124130.00022","124896.941751","125663.489397","126429.987574","127197.16315","127964.138073","114130.559205","114897.134985","127207.350098","Mapping"
"Blocked","Female","done","24","F_dime.wav","space","419.330992503","230","123380.735975","115663.643056","116430.386717","117197.422547","117947.196928","118713.588131","119480.443713","120247.085965","124130.00022","124896.941751","125663.489397","126429.987574","127197.16315","127964.138073","128713.271229","114897.134985","127974.014302","Mapping"
"Blocked","Female","done","24","F_cad.wav","None","734.791847528","230","123380.735975","115663.643056","116430.386717","117197.422547","117947.196928","118713.588131","119480.443713","120247.085965","124130.00022","124896.941751","125663.489397","126429.987574","127197.16315","127964.138073","128713.271229","129480.23533","128722.221484","Mapping"
"Blocked","Female","done","24","F_tile.wav","None","731.10588477","230","123380.735975","130246.559443","116430.386717","117197.422547","117947.196928","118713.588131","119480.443713","120247.085965","124130.00022","124896.941751","125663.489397","126429.987574","127197.16315","127964.138073","128713.271229","129480.23533","129489.74488","Mapping"
"Blocked","Female","done","24","F_cling.wav","None","729.102751589","230","123380.735975","130246.559443","131013.387818","117197.422547","117947.196928","118713.588131","119480.443713","120247.085965","124130.00022","124896.941751","125663.489397","126429.987574","127197.16315","127964.138073","128713.271229","129480.23533","130255.792283","Mapping"
"Blocked","Female","done","24","F_done.wav","None","725.969590363","230","123380.735975","130246.559443","131013.387818","131780.328422","117947.196928","118713.588131","119480.443713","120247.085965","124130.00022","124896.941751","125663.489397","126429.987574","127197.16315","127964.138073","128713.271229","129480.23533","131022.739689","Mapping"
"Blocked","Female","done","24","F_jaw.wav","space","427.171624848","230","123380.735975","130246.559443","131013.387818","131780.328422","132547.154942","118713.588131","119480.443713","120247.085965","124130.00022","124896.941751","125663.489397","126429.987574","127197.16315","127964.138073","128713.271229","129480.23533","131790.13787","Mapping"
"Blocked","Female","done","24","F_priest.wav","None","718.703092658","230","123380.735975","130246.559443","131013.387818","131780.328422","132547.154942","133296.72836","119480.443713","120247.085965","124130.00022","124896.941751","125663.489397","126429.987574","127197.16315","127964.138073","128713.271229","129480.23533","132557.28191","Mapping"
"Blocked","Female","done","24","F_greet.wav","None","733.723035897","230","123380.735975","130246.559443","131013.387818","131780.328422","132547.154942","133296.72836","134063.335985","120247.085965","124130.00022","124896.941751","125663.489397","126429.987574","127197.16315","127964.138073","128713.271229","129480.23533","133306.217504","Mapping"
"Blocked","Female","done","24","F_lash.wav","None","731.342093088","230","123380.735975","130246.559443","131013.387818","131780.328422","132547.154942","133296.72836","134063.335985","134830.101288","124130.00022","124896.941751","125663.489397","126429.987574","127197.16315","127964.138073","128713.271229","129480.23533","134072.521521","Mapping"
"Blocked","Female","ball","1","F_cad.wav","None","728.269529762","230","137963.554354","130246.559443","131013.387818","131780.328422","132547.154942","133296.72836","134063.335985","134830.101288","124130.00022","124896.941751","125663.489397","126429.987574","127197.16315","127964.138073","128713.271229","129480.23533","134839.459961","Mapping"
"Blocked","Female","ball","1","F_knife.wav","None","720.559059409","230","137963.554354","130246.559443","131013.387818","131780.328422","132547.154942","133296.72836","134063.335985","134830.101288","138713.166419","124896.941751","125663.489397","126429.987574","127197.16315","127964.138073","128713.271229","129480.23533","137973.136868","Mapping"
"Blocked","Female","ball","1","F_done.wav","None","735.104421619","230","137963.554354","130246.559443","131013.387818","131780.328422","132547.154942","133296.72836","134063.335985","134830.101288","138713.166419","139480.105168","125663.489397","126429.987574","127197.16315","127964.138073","128713.271229","129480.23533","138722.485827","Mapping"
"Blocked","Female","ball","1","F_ball.wav","None","731.59747012","230","137963.554354","130246.559443","131013.387818","131780.328422","132547.154942","133296.72836","134063.335985","134830.101288","138713.166419","139480.105168","140246.402074","126429.987574","127197.16315","127964.138073","128713.271229","129480.23533","139489.945224","Mapping"
"Blocked","Female","ball","1","F_dime.wav","space","369.853387005","230","137963.554354","130246.559443","131013.387818","131780.328422","132547.154942","133296.72836","134063.335985","134830.101288","138713.166419","139480.105168","140246.402074","141013.171706","127197.16315","127964.138073","128713.271229","129480.23533","140255.285239","Mapping"
"Blocked","Female","ball","1","F_ball.wav","None","726.534140646","230","137963.554354","130246.559443","131013.387818","131780.328422","132547.154942","133296.72836","134063.335985","134830.101288","138713.166419","139480.105168","140246.402074","141013.171706","141780.431686","127964.138073","128713.271229","129480.23533","141022.590667","Mapping"
"Blocked","Female","ball","1","F_cling.wav","space","456.428993843","230","137963.554354","130246.559443","131013.387818","131780.328422","132547.154942","133296.72836","134063.335985","134830.101288","138713.166419","139480.105168","140246.402074","141013.171706","141780.431686","142546.940376","128713.271229","129480.23533","141784.679417","Mapping"
"Blocked","Female","ball","1","F_dime.wav","None","720.228243968","230","137963.554354","130246.559443","131013.387818","131780.328422","132547.154942","133296.72836","134063.335985","134830.101288","138713.166419","139480.105168","140246.402074","141013.171706","141780.431686","142546.940376","143296.458143","129480.23533","142556.72849","Mapping"
"Blocked","Female","ball","1","F_ball.wav","None","734.848735388","230","137963.554354","130246.559443","131013.387818","131780.328422","132547.154942","133296.72836","134063.335985","134830.101288","138713.166419","139480.105168","140246.402074","141013.171706","141780.431686","142546.940376","143296.458143","144063.161302","143306.115477","Mapping"
"Blocked","Female","ball","1","F_dime.wav","space","416.450425866","230","137963.554354","144830.009155","131013.387818","131780.328422","132547.154942","133296.72836","134063.335985","134830.101288","138713.166419","139480.105168","140246.402074","141013.171706","141780.431686","142546.940376","143296.458143","144063.161302","144072.603452","Mapping"
"Blocked","Female","ball","1","F_ball.wav","None","729.351945221","230","137963.554354","144830.009155","145596.594828","131780.328422","132547.154942","133296.72836","134063.335985","134830.101288","138713.166419","139480.105168","140246.402074","141013.171706","141780.431686","142546.940376","143296.458143","144063.161302","144839.032684","Mapping"
"Blocked","Female","ball","1","F_tile.wav","space","490.812763805","230","137963.554354","144830.009155","145596.594828","146363.248211","132547.154942","133296.72836","134063.335985","134830.101288","138713.166419","139480.105168","140246.402074","141013.171706","141780.431686","142546.940376","143296.458143","144063.161302","145606.248761","Mapping"
"Blocked","Female","ball","1","F_cling.wav","None","722.905374714","230","137963.554354","144830.009155","145596.594828","146363.248211","147130.312175","133296.72836","134063.335985","134830.101288","138713.166419","139480.105168","140246.402074","141013.171706","141780.431686","142546.940376","143296.458143","144063.161302","146372.992423","Mapping"
"Blocked","Female","ball","1","F_cad.wav","None","719.868675573","230","137963.554354","144830.009155","145596.594828","146363.248211","147130.312175","147879.705655","134063.335985","134830.101288","138713.166419","139480.105168","140246.402074","141013.171706","141780.431686","142546.940376","143296.458143","144063.161302","147140.015885","Mapping"
"Blocked","Female","ball","1","F_bluff.wav","None","734.872850939","230","137963.554354","144830.009155","145596.594828","146363.248211","147130.312175","147879.705655","148646.50404","134830.101288","138713.166419","139480.105168","140246.402074","141013.171706","141780.431686","142546.940376","143296.458143","144063.161302","147889.054743","Mapping"
"Blocked","Female","ball","1","F_gnash.wav","None","731.995066744","230","137963.554354","144830.009155","145596.594828","146363.248211","147130.312175","147879.705655","148646.50404","149412.947803","138713.166419","139480.105168","140246.402074","141013.171706","141780.431686","142546.940376","143296.458143","144063.161302","148655.993802","Mapping"
"Blocked","Female","cave","10","F_greet.wav","None","729.708421859","230","152546.80774","144830.009155","145596.594828","146363.248211","147130.312175","147879.705655","148646.50404","149412.947803","138713.166419","139480.105168","140246.402074","141013.171706","141780.431686","142546.940376","143296.458143","144063.161302","149422.305857","Mapping"
"Blocked","Female","cave","10","F_bluff.wav","None","719.749334734","230","152546.80774","144830.009155","145596.594828","146363.248211","147130.312175","147879.705655","148646.50404","149412.947803","153296.346222","139480.105168","140246.402074","141013.171706","141780.431686","142546.940376","143296.458143","144063.161302","152556.664182","Mapping"
"Blocked","Female","cave","10","F_jolt.wav","None","734.511118382","230","152546.80774","144830.009155","145596.594828","146363.248211","147130.312175","147879.705655","148646.50404","149412.947803","153296.346222","154063.071333","140246.402074","141013.171706","141780.431686","142546.940376","143296.458143","144063.161302","153305.832893","Mapping"
"Blocked","Female","cave","10","F_cave.wav","None","731.724540354","230","152546.80774","144830.009155","145596.594828","146363.248211","147130.312175","147879.705655","148646.50404","149412.947803","153296.346222","154063.071333","154829.793352","141013.171706","141780.431686","142546.940376","143296.458143","144063.161302","154072.494932","Mapping"
"Blocked","Female","cave","10","F_gnash.wav","space","537.355388165","230","152546.80774","144830.009155","145596.594828","146363.248211","147130.312175","147879.705655","148646.50404","149412.947803","153296.346222","154063.071333","154829.793352","155596.379335","141780.431686","142546.940376","143296.458143","144063.161302","154839.560751","Mapping"
"Blocked","Female","cave","10","F_cave.wav","None","725.948566571","230","152546.80774","144830.009155","145596.594828","146363.248211","147130.312175","147879.705655","148646.50404","149412.947803","153296.346222","154063.071333","154829.793352","155596.379335","156363.357967","142546.940376","143296.458143","144063.161302","155605.885483","Mapping"
"Blocked","Female","cave","10","F_bluff.wav","None","723.336980445","230","152546.80774","144830.009155","145596.594828","146363.248211","147130.312175","147879.705655","148646.50404","149412.947803","153296.346222","154063.071333","154829.793352","155596.379335","156363.357967","157130.210457","143296.458143","144063.161302","156372.932752","Mapping"
"Blocked","Female","cave","10","F_romp.wav","space","100.554873236","230","152546.80774","144830.009155","145596.594828","146363.248211","147130.312175","147879.705655","148646.50404","149412.947803","153296.346222","154063.071333","154829.793352","155596.379335","156363.357967","157130.210457","157879.487069","144063.161302","157140.276828","Mapping"
"Blocked","Female","cave","10","F_knife.wav","None","735.164401354","230","152546.80774","144830.009155","145596.594828","146363.248211","147130.312175","147879.705655","148646.50404","149412.947803","153296.346222","154063.071333","154829.793352","155596.379335","156363.357967","157130.210457","157879.487069","158646.330284","157888.955189","Mapping"
"Blocked","Female","cave","10","F_priest.wav","None","732.339176582","230","152546.80774","159412.857215","145596.594828","146363.248211","147130.312175","147879.705655","148646.50404","149412.947803","153296.346222","154063.071333","154829.793352","155596.379335","156363.357967","157130.210457","157879.487069","158646.330284","158655.71029","Mapping"
"Blocked","Female","cave","10","F_park.wav","None","729.831472854","230","152546.80774","159412.857215","160179.696411","146363.248211","147130.312175","147879.705655","148646.50404","149412.947803","153296.346222","154063.071333","154829.793352","155596.379335","156363.357967","157130.210457","157879.487069","158646.330284","159422.304929","Mapping"
"Blocked","Female","cave","10","F_knife.wav","None","727.141356678","230","152546.80774","159412.857215","160179.696411","160946.31362","147130.312175","147879.705655","148646.50404","149412.947803","153296.346222","154063.071333","154829.793352","155596.379335","156363.357967","157130.210457","157879.487069","158646.330284","160189.103624","Mapping"
"Blocked","Female","cave","10","F_cave.wav","None","724.202356418","230","152546.80774","159412.857215","160179.696411","160946.31362","161712.935776","147879.705655","148646.50404","149412.947803","153296.346222","154063.071333","154829.793352","155596.379335","156363.357967","157130.210457","157879.487069","158646.330284","160956.132033","Mapping"
"Blocked","Female","cave","10","F_cling.wav","space","598.10823109","230","152546.80774","159412.857215","160179.696411","160946.31362","161712.935776","162462.64523","148646.50404","149412.947803","153296.346222","154063.071333","154829.793352","155596.379335","156363.357967","157130.210457","157879.487069","158646.330284","161722.62681","Mapping"
"Blocked","Female","cave","10","F_cave.wav","None","735.747811152","230","152546.80774","159412.857215","160179.696411","160946.31362","161712.935776","162462.64523","163229.683533","149412.947803","153296.346222","154063.071333","154829.793352","155596.379335","156363.357967","157130.210457","157879.487069","158646.330284","162472.062955","Mapping"
"Blocked","Female","cave","10","F_jolt.wav","space","625.952678616","230","152546.80774","159412.857215","160179.696411","160946.31362","161712.935776","162462.64523","163229.683533","163996.213247","153296.346222","154063.071333","154829.793352","155596.379335","156363.357967","157130.210457","157879.487069","158646.330284","163238.71912","Mapping"
"Blocked","Female","done","21","F_jaw.wav","None","729.243425303","230","167129.99651","159412.857215","160179.696411","160946.31362","161712.935776","162462.64523","163229.683533","163996.213247","153296.346222","154063.071333","154829.793352","155596.379335","156363.357967","157130.210457","157879.487069","158646.330284","164006.062577","Mapping"
"Blocked","Female","done","21","F_tile.wav","None","720.543600619","230","167129.99651","159412.857215","160179.696411","160946.31362","161712.935776","162462.64523","163229.683533","163996.213247","167879.74863","154063.071333","154829.793352","155596.379335","156363.357967","157130.210457","157879.487069","158646.330284","167139.668993","Mapping"
"Blocked","Female","done","21","F_reek.wav","None","735.688140616","230","167129.99651","159412.857215","160179.696411","160946.31362","161712.935776","162462.64523","163229.683533","163996.213247","167879.74863","168646.217745","154829.793352","155596.379335","156363.357967","157130.210457","157879.487069","158646.330284","167889.168519","Mapping"
"Blocked","Female","done","21","F_done.wav","None","732.915475499","230","167129.99651","159412.857215","160179.696411","160946.31362","161712.935776","162462.64523","163229.683533","163996.213247","167879.74863","168646.217745","169412.630591","155596.379335","156363.357967","157130.210457","157879.487069","158646.330284","168656.014207","Mapping"
"Blocked","Female","done","21","F_lash.wav","space","426.613567164","230","167129.99651","159412.857215","160179.696411","160946.31362","161712.935776","162462.64523","163229.683533","163996.213247","167879.74863","168646.217745","169412.630591","170179.555118","156363.357967","157130.210457","157879.487069","158646.330284","169421.986481","Mapping"
"Blocked","Female","done","21","F_cling.wav","None","727.777016815","230","167129.99651","159412.857215","160179.696411","160946.31362","161712.935776","162462.64523","163229.683533","163996.213247","167879.74863","168646.217745","169412.630591","170179.555118","170945.823271","157130.210457","157879.487069","158646.330284","170188.920902","Mapping"
"Blocked","Female","done","21","F_lash.wav","None","726.214455441","230","167129.99651","159412.857215","160179.696411","160946.31362","161712.935776","162462.64523","163229.683533","163996.213247","167879.74863","168646.217745","169412.630591","170179.555118","170945.823271","171713.102111","157879.487069","158646.330284","170954.667789","Mapping"
"Blocked","Female","done","21","F_done.wav","None","722.39121981","230","167129.99651","159412.857215","160179.696411","160946.31362","161712.935776","162462.64523","163229.683533","163996.213247","167879.74863","168646.217745","169412.630591","170179.555118","170945.823271","171713.102111","172479.703243","158646.330284","171722.651544","Mapping"
"Blocked","Female","done","21","F_reek.wav","space","374.895692687","230","167129.99651","159412.857215","160179.696411","160946.31362","161712.935776","162462.64523","163229.683533","163996.213247","167879.74863","168646.217745","169412.630591","170179.555118","170945.823271","171713.102111","172479.703243","173229.383635","172489.642234","Mapping"
"Blocked","Female","done","21","F_done.wav","None","734.307991457","230","167129.99651","173996.056496","160179.696411","160946.31362","161712.935776","162462.64523","163229.683533","163996.213247","167879.74863","168646.217745","169412.630591","170179.555118","170945.823271","171713.102111","172479.703243","173229.383635","173238.450449","Mapping"
"Blocked","Female","done","21","F_tile.wav","space","434.943311499","230","167129.99651","173996.056496","174762.651754","160946.31362","161712.935776","162462.64523","163229.683533","163996.213247","167879.74863","168646.217745","169412.630591","170179.555118","170945.823271","171713.102111","172479.703243","173229.383635","174005.570374","Mapping"
"Blocked","Female","done","21","F_done.wav","None","728.306321427","230","167129.99651","173996.056496","174762.651754","175529.487858","161712.935776","162462.64523","163229.683533","163996.213247","167879.74863","168646.217745","169412.630591","170179.555118","170945.823271","171713.102111","172479.703243","173229.383635","174771.947355","Mapping"
"Blocked","Female","done","21","F_park.wav","space","570.929433452","230","167129.99651","173996.056496","174762.651754","175529.487858","176296.363227","162462.64523","163229.683533","163996.213247","167879.74863","168646.217745","169412.630591","170179.555118","170945.823271","171713.102111","172479.703243","173229.383635","175533.573891","Mapping"
"Blocked","Female","done","21","F_reek.wav","None","721.363837249","230","167129.99651","173996.056496","174762.651754","175529.487858","176296.363227","177062.960958","163229.683533","163996.213247","167879.74863","168646.217745","169412.630591","170179.555118","170945.823271","171713.102111","172479.703243","173229.383635","176306.470408","Mapping"
"Blocked","Female","done","21","F_romp.wav","None","719.291758374","230","167129.99651","173996.056496","174762.651754","175529.487858","176296.363227","177062.960958","177812.417509","163996.213247","167879.74863","168646.217745","169412.630591","170179.555118","170945.823271","171713.102111","172479.703243","173229.383635","177072.691566","Mapping"
"Blocked","Female","done","21","F_priest.wav","None","734.067145619","230","167129.99651","173996.056496","174762.651754","175529.487858","176296.363227","177062.960958","177812.417509","178579.306172","167879.74863","168646.217745","169412.630591","170179.555118","170945.823271","171713.102111","172479.703243","173229.383635","177822.089992","Mapping"
"Blocked","Female","cave","9","F_greet.wav","None","732.607538928","230","181712.80345","173996.056496","174762.651754","175529.487858","176296.363227","177062.960958","177812.417509","178579.306172","167879.74863","168646.217745","169412.630591","170179.555118","170945.823271","171713.102111","172479.703243","173229.383635","178588.36742","Mapping"
"Blocked","Female","cave","9","F_cave.wav","None","720.468780841","230","181712.80345","173996.056496","174762.651754","175529.487858","176296.363227","177062.960958","177812.417509","178579.306172","182462.306995","168646.217745","169412.630591","170179.555118","170945.823271","171713.102111","172479.703243","173229.383635","181722.313926","Mapping"
"Blocked","Female","cave","9","F_jolt.wav","space","608.473571716","230","181712.80345","173996.056496","174762.651754","175529.487858","176296.363227","177062.960958","177812.417509","178579.306172","182462.306995","183229.359829","169412.630591","170179.555118","170945.823271","171713.102111","172479.703243","173229.383635","182471.913624","Mapping"
"Blocked","Female","cave","9","F_reek.wav","None","731.56686197","230","181712.80345","173996.056496","174762.651754","175529.487858","176296.363227","177062.960958","177812.417509","178579.306172","182462.306995","183229.359829","183995.847495","170179.555118","170945.823271","171713.102111","172479.703243","173229.383635","183238.793631","Mapping"
"Blocked","Female","cave","9","F_priest.wav","None","729.037206853","230","181712.80345","173996.056496","174762.651754","175529.487858","176296.363227","177062.960958","177812.417509","178579.306172","182462.306995","183229.359829","183995.847495","184762.481399","170945.823271","171713.102111","172479.703243","173229.383635","184005.506993","Mapping"
"Blocked","Female","cave","9","F_cave.wav","None","726.800647913","230","181712.80345","173996.056496","174762.651754","175529.487858","176296.363227","177062.960958","177812.417509","178579.306172","182462.306995","183229.359829","183995.847495","184762.481399","185528.894554","171713.102111","172479.703243","173229.383635","184771.877791","Mapping"
"Blocked","Female","cave","9","F_dime.wav","space","539.499813458","230","181712.80345","173996.056496","174762.651754","175529.487858","176296.363227","177062.960958","177812.417509","178579.306172","182462.306995","183229.359829","183995.847495","184762.481399","185528.894554","186295.64038","172479.703243","173229.383635","185540.811635","Mapping"
"Blocked","Female","cave","9","F_priest.wav","None","721.489361487","230","181712.80345","173996.056496","174762.651754","175529.487858","176296.363227","177062.960958","177812.417509","178579.306172","182462.306995","183229.359829","183995.847495","184762.481399","185528.894554","186295.64038","187045.790406","173229.383635","186305.101698","Mapping"
"Blocked","Female","cave","9","F_gnash.wav","None","735.510056955","230","181712.80345","173996.056496","174762.651754","175529.487858","176296.363227","177062.960958","177812.417509","178579.306172","182462.306995","183229.359829","183995.847495","184762.481399","185528.894554","186295.64038","187045.790406","187811.821732","187055.331182","Mapping"
"Blocked","Female","cave","9","F_dime.wav","None","736.131804297","230","181712.80345","188579.140764","174762.651754","175529.487858","176296.363227","177062.960958","177812.417509","178579.306172","182462.306995","183229.359829","183995.847495","184762.481399","185528.894554","186295.64038","187045.790406","187811.821732","187820.629767","Mapping"
"Blocked","Female","cave","9","F_jolt.wav","None","733.168997453","230","181712.80345","188579.140764","189345.732312","175529.487858","176296.363227","177062.960958","177812.417509","178579.306172","182462.306995","183229.359829","183995.847495","184762.481399","185528.894554","186295.64038","187045.790406","187811.821732","188588.346087","Mapping"
"Blocked","Female","cave","9","F_ball.wav","None","730.367579148","230","181712.80345","188579.140764","189345.732312","190112.304691","176296.363227","177062.960958","177812.417509","178579.306172","182462.306995","183229.359829","183995.847495","184762.481399","185528.894554","186295.64038","187045.790406","187811.821732","189355.625855","Mapping"
"Blocked","Female","cave","9","F_cave.wav","None","728.517486597","230","181712.80345","188579.140764","189345.732312","190112.304691","190879.602082","177062.960958","177812.417509","178579.306172","182462.306995","183229.359829","183995.847495","184762.481399","185528.894554","186295.64038","187045.790406","187811.821732","190121.63863","Mapping"
"Blocked","Female","cave","9","F_dime.wav","space","612.725630752","230","181712.80345","188579.140764","189345.732312","190112.304691","190879.602082","191645.754604","177812.417509","178579.306172","182462.306995","183229.359829","183995.847495","184762.481399","185528.894554","186295.64038","187045.790406","187811.821732","190883.50663","Mapping"
"Blocked","Female","cave","9","F_cave.wav","None","728.549331543","230","181712.80345","188579.140764","189345.732312","190112.304691","190879.602082","191645.754604","192412.252163","178579.306172","182462.306995","183229.359829","183995.847495","184762.481399","185528.894554","186295.64038","187045.790406","187811.821732","191655.214685","Mapping"
"Blocked","Female","cave","9","F_cling.wav","space","578.323310474","230","181712.80345","188579.140764","189345.732312","190112.304691","190879.602082","191645.754604","192412.252163","193179.509051","182462.306995","183229.359829","183995.847495","184762.481399","185528.894554","186295.64038","187045.790406","187811.821732","192421.880126","Mapping"
"Blocked","Female","cave","12","F_park.wav","None","722.415953525","230","196296.290571","188579.140764","189345.732312","190112.304691","190879.602082","191645.754604","192412.252163","193179.509051","182462.306995","183229.359829","183995.847495","184762.481399","185528.894554","186295.64038","187045.790406","187811.821732","193189.025712","Mapping"
"Blocked","Female","cave","12","F_cave.wav","None","719.092960004","230","196296.290571","188579.140764","189345.732312","190112.304691","190879.602082","191645.754604","192412.252163","193179.509051","197045.556362","183229.359829","183995.847495","184762.481399","185528.894554","186295.64038","187045.790406","187811.821732","196306.550484","Mapping"
"Blocked","Female","cave","12","F_cad.wav","space","649.04729824","230","196296.290571","188579.140764","189345.732312","190112.304691","190879.602082","191645.754604","192412.252163","193179.509051","197045.556362","197812.128432","183995.847495","184762.481399","185528.894554","186295.64038","187045.790406","187811.821732","197055.030975","Mapping"
"Blocked","Female","cave","12","F_reek.wav","None","731.676000054","230","196296.290571","188579.140764","189345.732312","190112.304691","190879.602082","191645.754604","192412.252163","193179.509051","197045.556362","197812.128432","198578.915996","184762.481399","185528.894554","186295.64038","187045.790406","187811.821732","197821.664261","Mapping"
"Blocked","Female","cave","12","F_greet.wav","None","729.656789917","230","196296.290571","188579.140764","189345.732312","190112.304691","190879.602082","191645.754604","192412.252163","193179.509051","197045.556362","197812.128432","198578.915996","199345.562267","185528.894554","186295.64038","187045.790406","187811.821732","198588.473776","Mapping"
"Blocked","Female","cave","12","F_cave.wav","None","726.81517899","230","196296.290571","188579.140764","189345.732312","190112.304691","190879.602082","191645.754604","192412.252163","193179.509051","197045.556362","197812.128432","198578.915996","199345.562267","200112.4061","186295.64038","187045.790406","187811.821732","199355.562783","Mapping"
"Blocked","Female","cave","12","F_depth.wav","space","534.210478305","230","196296.290571","188579.140764","189345.732312","190112.304691","190879.602082","191645.754604","192412.252163","193179.509051","197045.556362","197812.128432","198578.915996","199345.562267","200112.4061","200879.115134","187045.790406","187811.821732","200121.822898","Mapping"
"Blocked","Female","cave","12","F_priest.wav","None","721.500491723","230","196296.290571","188579.140764","189345.732312","190112.304691","190879.602082","191645.754604","192412.252163","193179.509051","197045.556362","197812.128432","198578.915996","199345.562267","200112.4061","200879.115134","201629.08213","187811.821732","200888.534714","Mapping"
"Blocked","Female","cave","12","F_romp.wav","None","735.799752176","230","196296.290571","188579.140764","189345.732312","190112.304691","190879.602082","191645.754604","192412.252163","193179.509051","197045.556362","197812.128432","198578.915996","199345.562267","200112.4061","200879.115134","201629.08213","202395.175909","201638.590442","Mapping"
"Blocked","Female","cave","12","F_cave.wav","None","734.294387861","230","196296.290571","203161.913696","189345.732312","190112.304691","190879.602082","191645.754604","192412.252163","193179.509051","197045.556362","197812.128432","198578.915996","199345.562267","200112.4061","200879.115134","201629.08213","202395.175909","202404.431627","Mapping"
"Blocked","Female","cave","12","F_priest.wav","space","580.772271263","230","196296.290571","203161.913696","203928.31572","190112.304691","190879.602082","191645.754604","192412.252163","193179.509051","197045.556362","197812.128432","198578.915996","199345.562267","200112.4061","200879.115134","201629.08213","202395.175909","203171.231867","Mapping"
"Blocked","Female","cave","12","F_dime.wav","None","730.397568899","230","196296.290571","203161.913696","203928.31572","204695.143786","190879.602082","191645.754604","192412.252163","193179.509051","197045.556362","197812.128432","198578.915996","199345.562267","200112.4061","200879.115134","201629.08213","202395.175909","203937.101186","Mapping"
"Blocked","Female","cave","12","F_cling.wav","None","727.775780251","230","196296.290571","203161.913696","203928.31572","204695.143786","205461.950827","191645.754604","192412.252163","193179.509051","197045.556362","197812.128432","198578.915996","199345.562267","200112.4061","200879.115134","201629.08213","202395.175909","204704.13918","Mapping"
"Blocked","Female","cave","12","F_cave.wav","None","725.429773913","230","196296.290571","203161.913696","203928.31572","204695.143786","205461.950827","206229.233686","192412.252163","193179.509051","197045.556362","197812.128432","198578.915996","199345.562267","200112.4061","200879.115134","201629.08213","202395.175909","205470.803384","Mapping"
"Blocked","Female","cave","12","F_done.wav","space","512.673164019","230","196296.290571","203161.913696","203928.31572","204695.143786","205461.950827","206229.233686","206978.642625","193179.509051","197045.556362","197812.128432","198578.915996","199345.562267","200112.4061","200879.115134","201629.08213","202395.175909","206239.281197","Mapping"
"Blocked","Female","cave","12","F_ball.wav","None","735.925276531","230","196296.290571","203161.913696","203928.31572","204695.143786","205461.950827","206229.233686","206978.642625","207745.446265","197045.556362","197812.128432","198578.915996","199345.562267","200112.4061","200879.115134","201629.08213","202395.175909","206988.002225","Mapping"
"Blocked","Female","done","23","F_dime.wav","None","733.102216036","230","210879.16893","203161.913696","203928.31572","204695.143786","205461.950827","206229.233686","206978.642625","207745.446265","197045.556362","197812.128432","198578.915996","199345.562267","200112.4061","200879.115134","201629.08213","202395.175909","207755.085358","Mapping"
"Blocked","Female","done","23","F_cave.wav","None","719.754899852","230","210879.16893","203161.913696","203928.31572","204695.143786","205461.950827","206229.233686","206978.642625","207745.446265","211628.538912","197812.128432","198578.915996","199345.562267","200112.4061","200879.115134","201629.08213","202395.175909","210888.832448","Mapping"
"Blocked","Female","done","23","F_jolt.wav","None","734.734341386","230","210879.16893","203161.913696","203928.31572","204695.143786","205461.950827","206229.233686","206978.642625","207745.446265","211628.538912","212395.447363","198578.915996","199345.562267","200112.4061","200879.115134","201629.08213","202395.175909","211638.310331","Mapping"
"Blocked","Female","done","23","F_done.wav","None","732.391426922","230","210879.16893","203161.913696","203928.31572","204695.143786","205461.950827","206229.233686","206978.642625","207745.446265","211628.538912","212395.447363","213161.932246","199345.562267","200112.4061","200879.115134","201629.08213","202395.175909","212404.977008","Mapping"
"Blocked","Female","done","23","F_lash.wav","space","532.382955542","230","210879.16893","203161.913696","203928.31572","204695.143786","205461.950827","206229.233686","206978.642625","207745.446265","211628.538912","212395.447363","213161.932246","213928.413728","200112.4061","200879.115134","201629.08213","202395.175909","213171.424482","Mapping"
"Blocked","Female","done","23","F_done.wav","None","727.710853796","230","210879.16893","203161.913696","203928.31572","204695.143786","205461.950827","206229.233686","206978.642625","207745.446265","211628.538912","212395.447363","213161.932246","213928.413728","214695.310121","200879.115134","201629.08213","202395.175909","213937.566801","Mapping"
"Blocked","Female","done","23","F_dime.wav","space","398.787979153","230","210879.16893","203161.913696","203928.31572","204695.143786","205461.950827","206229.233686","206978.642625","207745.446265","211628.538912","212395.447363","213161.932246","213928.413728","214695.310121","215462.675529","201629.08213","202395.175909","214704.98786","Mapping"
"Blocked","Female","done","23","F_priest.wav","None","720.943361637","230","210879.16893","203161.913696","203928.31572","204695.143786","205461.950827","206229.233686","206978.642625","207745.446265","211628.538912","212395.447363","213161.932246","213928.413728","214695.310121","215462.675529","216228.563399","202395.175909","215472.345849","Mapping"
"Blocked","Female","done","23","F_tile.wav","None","719.423775328","230","210879.16893","203161.913696","203928.31572","204695.143786","205461.950827","206229.233686","206978.642625","207745.446265","211628.538912","212395.447363","213161.932246","213928.413728","214695.310121","215462.675529","216228.563399","216978.637987","216238.272365","Mapping"
"Blocked","Female","done","23","F_done.wav","None","733.772503561","230","210879.16893","217745.292297","203928.31572","204695.143786","205461.950827","206229.233686","206978.642625","207745.446265","211628.538912","212395.447363","213161.932246","213928.413728","214695.310121","215462.675529","216228.563399","216978.637987","216988.307688","Mapping"
"Blocked","Female","done","23","F_cave.wav","space","476.98035487","230","210879.16893","217745.292297","218511.839324","204695.143786","205461.950827","206229.233686","206978.642625","207745.446265","211628.538912","212395.447363","213161.932246","213928.413728","214695.310121","215462.675529","216228.563399","216978.637987","217754.766291","Mapping"
"Blocked","Female","done","23","F_park.wav","None","728.566026897","230","210879.16893","217745.292297","218511.839324","219278.607101","205461.950827","206229.233686","206978.642625","207745.446265","211628.538912","212395.447363","213161.932246","213928.413728","214695.310121","215462.675529","216228.563399","216978.637987","218521.3127","Mapping"
"Blocked","Female","done","23","F_done.wav","None","727.139501832","230","210879.16893","217745.292297","218511.839324","219278.607101","220045.435784","206229.233686","206978.642625","207745.446265","211628.538912","212395.447363","213161.932246","213928.413728","214695.310121","215462.675529","216228.563399","216978.637987","219287.640832","Mapping"
"Blocked","Female","done","23","F_bluff.wav","space","511.943824473","230","210879.16893","217745.292297","218511.839324","219278.607101","220045.435784","220812.17388","206978.642625","207745.446265","211628.538912","212395.447363","213161.932246","213928.413728","214695.310121","215462.675529","216228.563399","216978.637987","220055.717648","Mapping"
"Blocked","Female","done","23","F_lash.wav","None","720.739307231","230","210879.16893","217745.292297","218511.839324","219278.607101","220045.435784","220812.17388","221561.409681","207745.446265","211628.538912","212395.447363","213161.932246","213928.413728","214695.310121","215462.675529","216228.563399","216978.637987","220821.965086","Mapping"
"Blocked","Female","done","23","F_greet.wav","None","736.633283086","230","210879.16893","217745.292297","218511.839324","219278.607101","220045.435784","220812.17388","221561.409681","222328.285978","211628.538912","212395.447363","213161.932246","213928.413728","214695.310121","215462.675529","216228.563399","216978.637987","221570.405694","Mapping"
"Blocked","Female","ball","6","F_depth.wav","None","733.812077786","230","225462.038323","217745.292297","218511.839324","219278.607101","220045.435784","220812.17388","221561.409681","222328.285978","211628.538912","212395.447363","213161.932246","213928.413728","214695.310121","215462.675529","216228.563399","216978.637987","222337.58869","Mapping"
"Blocked","Female","ball","6","F_ball.wav","None","720.106120571","230","225462.038323","217745.292297","218511.839324","219278.607101","220045.435784","220812.17388","221561.409681","222328.285978","226211.160658","212395.447363","213161.932246","213928.413728","214695.310121","215462.675529","216228.563399","216978.637987","225472.010396","Mapping"
"Blocked","Female","ball","6","F_cave.wav","None","736.095940112","230","225462.038323","217745.292297","218511.839324","219278.607101","220045.435784","220812.17388","221561.409681","222328.285978","226211.160658","226978.548636","213161.932246","213928.413728","214695.310121","215462.675529","216228.563399","216978.637987","226220.541282","Mapping"
"Blocked","Female","ball","6","F_park.wav","space","467.566958396","230","225462.038323","217745.292297","218511.839324","219278.607101","220045.435784","220812.17388","221561.409681","222328.285978","226211.160658","226978.548636","227745.099991","213928.413728","214695.310121","215462.675529","216228.563399","216978.637987","226987.977491","Mapping"
"Blocked","Female","ball","6","F_cave.wav","None","729.898254154","230","225462.038323","217745.292297","218511.839324","219278.607101","220045.435784","220812.17388","221561.409681","222328.285978","226211.160658","226978.548636","227745.099991","228511.624139","214695.310121","215462.675529","216228.563399","216978.637987","227754.616961","Mapping"
"Blocked","Female","ball","6","F_done.wav","None","728.048470919","230","225462.038323","217745.292297","218511.839324","219278.607101","220045.435784","220812.17388","221561.409681","222328.285978","226211.160658","226978.548636","227745.099991","228511.624139","229278.4689","215462.675529","216228.563399","216978.637987","228521.018058","Mapping"
"Blocked","Female","ball","6","F_bluff.wav","space","621.174406726","230","225462.038323","217745.292297","218511.839324","219278.607101","220045.435784","220812.17388","221561.409681","222328.285978","226211.160658","226978.548636","227745.099991","228511.624139","229278.4689","230045.367766","216228.563399","216978.637987","229290.337132","Mapping"
"Blocked","Female","ball","6","F_ball.wav","None","722.014646744","230","225462.038323","217745.292297","218511.839324","219278.607101","220045.435784","220812.17388","221561.409681","222328.285978","226211.160658","226978.548636","227745.099991","228511.624139","229278.4689","230045.367766","230811.932107","216978.637987","230055.173194","Mapping"
"Blocked","Female","ball","6","F_gnash.wav","None","720.256378758","230","225462.038323","217745.292297","218511.839324","219278.607101","220045.435784","220812.17388","221561.409681","222328.285978","226211.160658","226978.548636","227745.099991","228511.624139","229278.4689","230045.367766","230811.932107","231561.394841","230821.561925","Mapping"
"Blocked","Female","ball","6","F_done.wav","space","0.0386466272175","230","225462.038323","232328.381512","218511.839324","219278.607101","220045.435784","220812.17388","221561.409681","222328.285978","226211.160658","226978.548636","227745.099991","228511.624139","229278.4689","230045.367766","230811.932107","231561.394841","231570.430119","Mapping"
"Blocked","Female","ball","6","F_cad.wav","None","731.987646664","230","225462.038323","232328.381512","233095.04046","219278.607101","220045.435784","220812.17388","221561.409681","222328.285978","226211.160658","226978.548636","227745.099991","228511.624139","229278.4689","230045.367766","230811.932107","231561.394841","232337.932491","Mapping"
"Blocked","Female","ball","6","F_ball.wav","None","729.913403629","230","225462.038323","232328.381512","233095.04046","233861.583468","220045.435784","220812.17388","221561.409681","222328.285978","226211.160658","226978.548636","227745.099991","228511.624139","229278.4689","230045.367766","230811.932107","231561.394841","233104.43376","Mapping"
"Blocked","Female","ball","6","F_romp.wav","space","448.472421616","230","225462.038323","232328.381512","233095.04046","233861.583468","234628.354336","220812.17388","221561.409681","222328.285978","226211.160658","226978.548636","227745.099991","228511.624139","229278.4689","230045.367766","230811.932107","231561.394841","233871.00583","Mapping"
"Blocked","Female","ball","6","F_priest.wav","None","724.487414118","230","225462.038323","232328.381512","233095.04046","233861.583468","234628.354336","235395.431286","221561.409681","222328.285978","226211.160658","226978.548636","227745.099991","228511.624139","229278.4689","230045.367766","230811.932107","231561.394841","234637.958183","Mapping"
"Blocked","Female","ball","6","F_ball.wav","None","721.893141628","230","225462.038323","232328.381512","233095.04046","233861.583468","234628.354336","235395.431286","236161.958835","222328.285978","226211.160658","226978.548636","227745.099991","228511.624139","229278.4689","230045.367766","230811.932107","231561.394841","235405.284636","Mapping"
"Blocked","Female","ball","6","F_dime.wav","space","419.880083995","230","225462.038323","232328.381512","233095.04046","233861.583468","234628.354336","235395.431286","236161.958835","236911.105594","226211.160658","226978.548636","227745.099991","228511.624139","229278.4689","230045.367766","230811.932107","231561.394841","236171.562682","Mapping"
"Blocked","Female","cave","11","F_gnash.wav","None","735.290853074","230","240045.211634","232328.381512","233095.04046","233861.583468","234628.354336","235395.431286","236161.958835","236911.105594","226211.160658","226978.548636","227745.099991","228511.624139","229278.4689","230045.367766","230811.932107","231561.394841","236920.279691","Mapping"
"Blocked","Female","cave","11","F_dime.wav","None","719.915360678","230","240045.211634","232328.381512","233095.04046","233861.583468","234628.354336","235395.431286","236161.958835","236911.105594","240794.757536","226978.548636","227745.099991","228511.624139","229278.4689","230045.367766","230811.932107","231561.394841","240055.038086","Mapping"
"Blocked","Female","cave","11","F_cave.wav","None","735.116479453","230","240045.211634","232328.381512","233095.04046","233861.583468","234628.354336","235395.431286","236161.958835","236911.105594","240794.757536","241561.454821","227745.099991","228511.624139","229278.4689","230045.367766","230811.932107","231561.394841","240804.353653","Mapping"
"Blocked","Female","cave","11","F_done.wav","space","540.41651194","230","240045.211634","232328.381512","233095.04046","233861.583468","234628.354336","235395.431286","236161.958835","236911.105594","240794.757536","241561.454821","242328.222906","228511.624139","229278.4689","230045.367766","230811.932107","231561.394841","241570.887077","Mapping"
"Blocked","Female","cave","11","F_park.wav","None","730.165070621","230","240045.211634","232328.381512","233095.04046","233861.583468","234628.354336","235395.431286","236161.958835","236911.105594","240794.757536","241561.454821","242328.222906","243094.800542","229278.4689","230045.367766","230811.932107","231561.394841","242337.28199","Mapping"
"Blocked","Female","cave","11","F_cave.wav","None","727.535861777","230","240045.211634","232328.381512","233095.04046","233861.583468","234628.354336","235395.431286","236161.958835","236911.105594","240794.757536","241561.454821","242328.222906","243094.800542","243861.331182","230045.367766","230811.932107","231561.394841","243104.47859","Mapping"
"Blocked","Female","cave","11","F_reek.wav","space","656.579066534","230","240045.211634","232328.381512","233095.04046","233861.583468","234628.354336","235395.431286","236161.958835","236911.105594","240794.757536","241561.454821","242328.222906","243094.800542","243861.331182","244628.110398","230811.932107","231561.394841","243870.681817","Mapping"
"Blocked","Female","cave","11","F_jaw.wav","None","722.565284348","230","240045.211634","232328.381512","233095.04046","233861.583468","234628.354336","235395.431286","236161.958835","236911.105594","240794.757536","241561.454821","242328.222906","243094.800542","243861.331182","244628.110398","245394.527573","231561.394841","244637.61902","Mapping"
"Blocked","Female","cave","11","F_ball.wav","None","720.754147624","230","240045.211634","232328.381512","233095.04046","233861.583468","234628.354336","235395.431286","236161.958835","236911.105594","240794.757536","241561.454821","242328.222906","243094.800542","243861.331182","244628.110398","245394.527573","246144.559185","245403.985799","Mapping"
"Blocked","Female","cave","11","F_tile.wav","None","735.382368322","230","240045.211634","246911.336237","233095.04046","233861.583468","234628.354336","235395.431286","236161.958835","236911.105594","240794.757536","241561.454821","242328.222906","243094.800542","243861.331182","244628.110398","245394.527573","246144.559185","246153.924351","Mapping"
"Blocked","Female","cave","11","F_cave.wav","None","732.903726865","230","240045.211634","246911.336237","247678.178834","233861.583468","234628.354336","235395.431286","236161.958835","236911.105594","240794.757536","241561.454821","242328.222906","243094.800542","243861.331182","244628.110398","245394.527573","246144.559185","246921.009648","Mapping"
"Blocked","Female","cave","11","F_done.wav","space","671.980220242","230","240045.211634","246911.336237","247678.178834","248444.719368","234628.354336","235395.431286","236161.958835","236911.105594","240794.757536","241561.454821","242328.222906","243094.800542","243861.331182","244628.110398","245394.527573","246144.559185","247687.224314","Mapping"
"Blocked","Female","cave","11","F_dime.wav","None","727.772070095","230","240045.211634","246911.336237","247678.178834","248444.719368","249211.295767","235395.431286","236161.958835","236911.105594","240794.757536","241561.454821","242328.222906","243094.800542","243861.331182","244628.110398","245394.527573","246144.559185","248454.195218","Mapping"
"Blocked","Female","cave","11","F_cave.wav","None","725.730599486","230","240045.211634","246911.336237","247678.178834","248444.719368","249211.295767","249978.374881","236161.958835","236911.105594","240794.757536","241561.454821","242328.222906","243094.800542","243861.331182","244628.110398","245394.527573","246144.559185","249220.766051","Mapping"
"Blocked","Female","cave","11","F_tile.wav","None","723.120250157","230","240045.211634","246911.336237","247678.178834","248444.719368","249211.295767","249978.374881","250745.004148","236911.105594","240794.757536","241561.454821","242328.222906","243094.800542","243861.331182","244628.110398","245394.527573","246144.559185","249988.173198","Mapping"
"Blocked","Female","cave","11","F_park.wav","None","721.207704744","230","240045.211634","246911.336237","247678.178834","248444.719368","249211.295767","249978.374881","250745.004148","251511.446365","240794.757536","241561.454821","242328.222906","243094.800542","243861.331182","244628.110398","245394.527573","246144.559185","250754.625927","Mapping"
"Blocked","Female","ball","4","F_greet.wav","space","141.899368493","230","254628.361756","246911.336237","247678.178834","248444.719368","249211.295767","249978.374881","250745.004148","251511.446365","240794.757536","241561.454821","242328.222906","243094.800542","243861.331182","244628.110398","245394.527573","246144.559185","251521.2453","Mapping"
"Blocked","Female","ball","4","F_ball.wav","None","719.471388031","230","254628.361756","246911.336237","247678.178834","248444.719368","249211.295767","249978.374881","250745.004148","251511.446365","255377.820471","241561.454821","242328.222906","243094.800542","243861.331182","244628.110398","245394.527573","246144.559185","254638.268593","Mapping"
"Blocked","Female","ball","4","F_jolt.wav","space","587.552130455","230","254628.361756","246911.336237","247678.178834","248444.719368","249211.295767","249978.374881","250745.004148","251511.446365","255377.820471","256144.68471","242328.222906","243094.800542","243861.331182","244628.110398","245394.527573","246144.559185","255387.502848","Mapping"
"Blocked","Female","ball","4","F_ball.wav","None","731.727941195","230","254628.361756","246911.336237","247678.178834","248444.719368","249211.295767","249978.374881","250745.004148","251511.446365","255377.820471","256144.68471","256911.107758","243094.800542","243861.331182","244628.110398","245394.527573","246144.559185","256154.068426","Mapping"
"Blocked","Female","ball","4","F_dime.wav","space","462.439630064","230","254628.361756","246911.336237","247678.178834","248444.719368","249211.295767","249978.374881","250745.004148","251511.446365","255377.820471","256144.68471","256911.107758","257677.944171","243861.331182","244628.110398","245394.527573","246144.559185","256920.602158","Mapping"
"Blocked","Female","ball","4","F_depth.wav","None","725.815622136","230","254628.361756","246911.336237","247678.178834","248444.719368","249211.295767","249978.374881","250745.004148","251511.446365","255377.820471","256144.68471","256911.107758","257677.944171","258444.889723","244628.110398","245394.527573","246144.559185","257687.940668","Mapping"
"Blocked","Female","ball","4","F_jolt.wav","None","723.517846782","230","254628.361756","246911.336237","247678.178834","248444.719368","249211.295767","249978.374881","250745.004148","251511.446365","255377.820471","256144.68471","256911.107758","257677.944171","258444.889723","259211.388828","245394.527573","246144.559185","258454.968151","Mapping"
"Blocked","Female","ball","4","F_ball.wav","None","722.032578778","230","254628.361756","246911.336237","247678.178834","248444.719368","249211.295767","249978.374881","250745.004148","251511.446365","255377.820471","256144.68471","256911.107758","257677.944171","258444.889723","259211.388828","259978.141455","246144.559185","259221.030394","Mapping"
"Blocked","Female","ball","4","F_park.wav","space","498.986993916","230","254628.361756","246911.336237","247678.178834","248444.719368","249211.295767","249978.374881","250745.004148","251511.446365","255377.820471","256144.68471","256911.107758","257677.944171","258444.889723","259211.388828","259978.141455","260727.747027","259987.998824","Mapping"
"Blocked","Female","ball","4","F_lash.wav","None","733.91966999","230","254628.361756","261494.457297","247678.178834","248444.719368","249211.295767","249978.374881","250745.004148","251511.446365","255377.820471","256144.68471","256911.107758","257677.944171","258444.889723","259211.388828","259978.141455","260727.747027","260737.37097","Mapping"
"Blocked","Female","ball","4","F_knife.wav","None","731.60087096","230","254628.361756","261494.457297","262261.003706","248444.719368","249211.295767","249978.374881","250745.004148","251511.446365","255377.820471","256144.68471","256911.107758","257677.944171","258444.889723","259211.388828","259978.141455","260727.747027","261504.463997","Mapping"
"Blocked","Female","ball","4","F_bluff.wav","None","730.45909428","230","254628.361756","261494.457297","262261.003706","263027.921432","249211.295767","249978.374881","250745.004148","251511.446365","255377.820471","256144.68471","256911.107758","257677.944171","258444.889723","259211.388828","259978.141455","260727.747027","262270.242729","Mapping"
"Blocked","Female","ball","4","F_lash.wav","None","728.118653293","230","254628.361756","261494.457297","262261.003706","263027.921432","263794.439706","249978.374881","250745.004148","251511.446365","255377.820471","256144.68471","256911.107758","257677.944171","258444.889723","259211.388828","259978.141455","260727.747027","263037.298037","Mapping"
"Blocked","Female","ball","4","F_ball.wav","None","726.117993472","230","254628.361756","261494.457297","262261.003706","263027.921432","263794.439706","264560.92768","250745.004148","251511.446365","255377.820471","256144.68471","256911.107758","257677.944171","258444.889723","259211.388828","259978.141455","260727.747027","263804.043862","Mapping"
"Blocked","Female","ball","4","F_romp.wav","space","444.664644427","230","254628.361756","261494.457297","262261.003706","263027.921432","263794.439706","264560.92768","265328.125208","251511.446365","255377.820471","256144.68471","256911.107758","257677.944171","258444.889723","259211.388828","259978.141455","260727.747027","264570.23163","Mapping"
"Blocked","Female","ball","4","F_cad.wav","None","720.786301652","230","254628.361756","261494.457297","262261.003706","263027.921432","263794.439706","264560.92768","265328.125208","266094.803324","255377.820471","256144.68471","256911.107758","257677.944171","258444.889723","259211.388828","259978.141455","260727.747027","265338.161279","Mapping"
"Blocked","Female","tile","15","F_cave.wav","None","718.954141368","230","269211.270723","261494.457297","262261.003706","263027.921432","263794.439706","264560.92768","265328.125208","266094.803324","255377.820471","256144.68471","256911.107758","257677.944171","258444.889723","259211.388828","259978.141455","260727.747027","266104.791473","Mapping"
"Blocked","Female","tile","15","F_tile.wav","None","720.635425183","230","269211.270723","261494.457297","262261.003706","263027.921432","263794.439706","264560.92768","265328.125208","266094.803324","269978.073128","256144.68471","256911.107758","257677.944171","258444.889723","259211.388828","259978.141455","260727.747027","269220.972888","Mapping"
"Blocked","Female","tile","15","F_knife.wav","space","419.07839803","230","269211.270723","261494.457297","262261.003706","263027.921432","263794.439706","264560.92768","265328.125208","266094.803324","269978.073128","270727.734351","256911.107758","257677.944171","258444.889723","259211.388828","259978.141455","260727.747027","269987.724278","Mapping"
"Blocked","Female","tile","15","F_jolt.wav","None","732.895379188","230","269211.270723","261494.457297","262261.003706","263027.921432","263794.439706","264560.92768","265328.125208","266094.803324","269978.073128","270727.734351","271494.307967","257677.944171","258444.889723","259211.388828","259978.141455","260727.747027","270736.942456","Mapping"
"Blocked","Female","tile","15","F_tile.wav","None","731.010350166","230","269211.270723","261494.457297","262261.003706","263027.921432","263794.439706","264560.92768","265328.125208","266094.803324","269978.073128","270727.734351","271494.307967","272260.709682","258444.889723","259211.388828","259978.141455","260727.747027","271503.858636","Mapping"
"Blocked","Female","tile","15","F_dime.wav","space","489.024196868","230","269211.270723","261494.457297","262261.003706","263027.921432","263794.439706","264560.92768","265328.125208","266094.803324","269978.073128","270727.734351","271494.307967","272260.709682","273027.716759","259211.388828","259978.141455","260727.747027","272269.738467","Mapping"
"Blocked","Female","tile","15","F_park.wav","None","726.337506552","230","269211.270723","261494.457297","262261.003706","263027.921432","263794.439706","264560.92768","265328.125208","266094.803324","269978.073128","270727.734351","271494.307967","272260.709682","273027.716759","273794.566776","259978.141455","260727.747027","273036.755437","Mapping"
"Blocked","Female","tile","15","F_ball.wav","None","729.226730065","230","269211.270723","261494.457297","262261.003706","263027.921432","263794.439706","264560.92768","265328.125208","266094.803324","269978.073128","270727.734351","271494.307967","272260.709682","273027.716759","273794.566776","274561.137918","260727.747027","273798.802449","Mapping"
"Blocked","Female","tile","15","F_romp.wav","None","721.825432731","230","269211.270723","261494.457297","262261.003706","263027.921432","263794.439706","264560.92768","265328.125208","266094.803324","269978.073128","270727.734351","271494.307967","272260.709682","273027.716759","273794.566776","274561.137918","275328.017615","274571.064542","Mapping"
"Blocked","Female","tile","15","F_cling.wav","None","719.90237548","230","269211.270723","276077.414187","262261.003706","263027.921432","263794.439706","264560.92768","265328.125208","266094.803324","269978.073128","270727.734351","271494.307967","272260.709682","273027.716759","273794.566776","274561.137918","275328.017615","275337.883951","Mapping"
"Blocked","Female","tile","15","F_tile.wav","None","735.834070481","230","269211.270723","276077.414187","276844.148882","263027.921432","263794.439706","264560.92768","265328.125208","266094.803324","269978.073128","270727.734351","271494.307967","272260.709682","273027.716759","273794.566776","274561.137918","275328.017615","276086.82109","Mapping"
"Blocked","Female","tile","15","F_jaw.wav","space","529.081604211","230","269211.270723","276077.414187","276844.148882","277610.711986","263794.439706","264560.92768","265328.125208","266094.803324","269978.073128","270727.734351","271494.307967","272260.709682","273027.716759","273794.566776","274561.137918","275328.017615","276853.614219","Mapping"
"Blocked","Female","tile","15","F_tile.wav","None","731.036629877","230","269211.270723","276077.414187","276844.148882","277610.711986","278377.608688","264560.92768","265328.125208","266094.803324","269978.073128","270727.734351","271494.307967","272260.709682","273027.716759","273794.566776","274561.137918","275328.017615","277620.041287","Mapping"
"Blocked","Female","tile","15","F_knife.wav","space","611.171107972","230","269211.270723","276077.414187","276844.148882","277610.711986","278377.608688","279144.058325","265328.125208","266094.803324","269978.073128","270727.734351","271494.307967","272260.709682","273027.716759","273794.566776","274561.137918","275328.017615","278387.516452","Mapping"
"Blocked","Female","tile","15","F_cad.wav","None","726.352655911","230","269211.270723","276077.414187","276844.148882","277610.711986","278377.608688","279144.058325","279910.67708","266094.803324","269978.073128","270727.734351","271494.307967","272260.709682","273027.716759","273794.566776","274561.137918","275328.017615","279153.348052","Mapping"
"Blocked","Female","tile","15","F_cad.wav","None","724.433617899","230","269211.270723","276077.414187","276844.148882","277610.711986","278377.608688","279144.058325","279910.67708","280677.891303","269978.073128","270727.734351","271494.307967","272260.709682","273027.716759","273794.566776","274561.137918","275328.017615","279920.199615","Mapping"
"Blocked","Female","ball","2","F_cave.wav","None","722.05885849","230","283794.405387","276077.414187","276844.148882","277610.711986","278377.608688","279144.058325","279910.67708","280677.891303","269978.073128","270727.734351","271494.307967","272260.709682","273027.716759","273794.566776","274561.137918","275328.017615","280687.641389","Mapping"
"Blocked","Female","ball","2","F_depth.wav","None","719.991726568","230","283794.405387","276077.414187","276844.148882","277610.711986","278377.608688","279144.058325","279910.67708","280677.891303","284543.662212","270727.734351","271494.307967","272260.709682","273027.716759","273794.566776","274561.137918","275328.017615","283804.226892","Mapping"
"Blocked","Female","ball","2","F_ball.wav","None","736.354718101","230","283794.405387","276077.414187","276844.148882","277610.711986","278377.608688","279144.058325","279910.67708","280677.891303","284543.662212","285310.643318","271494.307967","272260.709682","273027.716759","273794.566776","274561.137918","275328.017615","284552.781585","Mapping"
"Blocked","Female","ball","2","F_romp.wav","space","479.030791437","230","283794.405387","276077.414187","276844.148882","277610.711986","278377.608688","279144.058325","279910.67708","280677.891303","284543.662212","285310.643318","286077.147061","272260.709682","273027.716759","273794.566776","274561.137918","275328.017615","285319.46403","Mapping"
"Blocked","Female","ball","2","F_lash.wav","None","731.246867683","230","283794.405387","276077.414187","276844.148882","277610.711986","278377.608688","279144.058325","279910.67708","280677.891303","284543.662212","285310.643318","286077.147061","286844.040053","273027.716759","273794.566776","274561.137918","275328.017615","286086.374954","Mapping"
"Blocked","Female","ball","2","F_lash.wav","None","729.13181386","230","283794.405387","276077.414187","276844.148882","277610.711986","278377.608688","279144.058325","279910.67708","280677.891303","284543.662212","285310.643318","286077.147061","286844.040053","287610.551525","273794.566776","274561.137918","275328.017615","286853.506009","Mapping"
"Blocked","Female","ball","2","F_done.wav","None","727.675298927","230","283794.405387","276077.414187","276844.148882","277610.711986","278377.608688","279144.058325","279910.67708","280677.891303","284543.662212","285310.643318","286077.147061","286844.040053","287610.551525","288377.355475","274561.137918","275328.017615","287619.828576","Mapping"
"Blocked","Female","ball","2","F_depth.wav","None","725.243342458","230","283794.405387","276077.414187","276844.148882","277610.711986","278377.608688","279144.058325","279910.67708","280677.891303","284543.662212","285310.643318","286077.147061","286844.040053","287610.551525","288377.355475","289144.320195","275328.017615","288387.004152","Mapping"
"Blocked","Female","ball","2","F_ball.wav","None","722.803038429","230","283794.405387","276077.414187","276844.148882","277610.711986","278377.608688","279144.058325","279910.67708","280677.891303","284543.662212","285310.643318","286077.147061","286844.040053","287610.551525","288377.355475","289144.320195","289910.976051","289154.240326","Mapping"
"Blocked","Female","ball","2","F_romp.wav","space","541.987730074","230","283794.405387","290660.069014","276844.148882","277610.711986","278377.608688","279144.058325","279910.67708","280677.891303","284543.662212","285310.643318","286077.147061","286844.040053","287610.551525","288377.355475","289144.320195","289910.976051","289920.467049","Mapping"
"Blocked","Female","ball","2","F_ball.wav","None","736.534966039","230","283794.405387","290660.069014","291427.342907","277610.711986","278377.608688","279144.058325","279910.67708","280677.891303","284543.662212","285310.643318","286077.147061","286844.040053","287610.551525","288377.355475","289144.320195","289910.976051","290669.039365","Mapping"
"Blocked","Female","ball","2","F_cave.wav","None","733.430248802","230","283794.405387","290660.069014","291427.342907","292193.875093","278377.608688","279144.058325","279910.67708","280677.891303","284543.662212","285310.643318","286077.147061","286844.040053","287610.551525","288377.355475","289144.320195","289910.976051","291436.976125","Mapping"
"Blocked","Female","ball","2","F_depth.wav","None","732.032476808","230","283794.405387","290660.069014","291427.342907","292193.875093","292960.482409","279144.058325","279910.67708","280677.891303","284543.662212","285310.643318","286077.147061","286844.040053","287610.551525","288377.355475","289144.320195","289910.976051","292203.330847","Mapping"
"Blocked","Female","ball","2","F_ball.wav","None","730.33913516","230","283794.405387","290660.069014","291427.342907","292193.875093","292960.482409","293727.297489","279910.67708","280677.891303","284543.662212","285310.643318","286077.147061","286844.040053","287610.551525","288377.355475","289144.320195","289910.976051","292969.960732","Mapping"
"Blocked","Female","ball","2","F_reek.wav","space","469.733334961","230","283794.405387","290660.069014","291427.342907","292193.875093","292960.482409","293727.297489","294493.908515","280677.891303","284543.662212","285310.643318","286077.147061","286844.040053","287610.551525","288377.355475","289144.320195","289910.976051","293736.622462","Mapping"
"Blocked","Female","ball","2","F_park.wav","None","725.864162319","230","283794.405387","290660.069014","291427.342907","292193.875093","292960.482409","293727.297489","294493.908515","295260.436682","284543.662212","285310.643318","286077.147061","286844.040053","287610.551525","288377.355475","289144.320195","289910.976051","294503.83112","Mapping"
"Blocked","Female","tile","16","F_reek.wav","None","724.718675599","230","298377.591683","290660.069014","291427.342907","292193.875093","292960.482409","293727.297489","294493.908515","295260.436682","284543.662212","285310.643318","286077.147061","286844.040053","287610.551525","288377.355475","289144.320195","289910.976051","295269.850079","Mapping"
"Blocked","Female","tile","16","F_cad.wav","None","719.472006313","230","298377.591683","290660.069014","291427.342907","292193.875093","292960.482409","293727.297489","294493.908515","295260.436682","299126.964448","285310.643318","286077.147061","286844.040053","287610.551525","288377.355475","289144.320195","289910.976051","298387.383507","Mapping"
"Blocked","Female","tile","16","F_lash.wav","None","735.625687754","230","298377.591683","290660.069014","291427.342907","292193.875093","292960.482409","293727.297489","294493.908515","295260.436682","299126.964448","299893.880937","286077.147061","286844.040053","287610.551525","288377.355475","289144.320195","289910.976051","299136.289112","Mapping"
"Blocked","Female","tile","16","F_dime.wav","None","733.039144659","230","298377.591683","290660.069014","291427.342907","292193.875093","292960.482409","293727.297489","294493.908515","295260.436682","299126.964448","299893.880937","300660.297184","286844.040053","287610.551525","288377.355475","289144.320195","289910.976051","299903.810034","Mapping"
"Blocked","Female","tile","16","F_greet.wav","None","732.228801702","230","298377.591683","290660.069014","291427.342907","292193.875093","292960.482409","293727.297489","294493.908515","295260.436682","299126.964448","299893.880937","300660.297184","301427.167606","287610.551525","288377.355475","289144.320195","289910.976051","300669.644108","Mapping"
"Blocked","Female","tile","16","F_tile.wav","None","730.206809007","230","298377.591683","290660.069014","291427.342907","292193.875093","292960.482409","293727.297489","294493.908515","295260.436682","299126.964448","299893.880937","300660.297184","301427.167606","302193.745241","288377.355475","289144.320195","289910.976051","301436.586258","Mapping"
"Blocked","Female","tile","16","F_priest.wav","space","579.065944417","230","298377.591683","290660.069014","291427.342907","292193.875093","292960.482409","293727.297489","294493.908515","295260.436682","299126.964448","299893.880937","300660.297184","301427.167606","302193.745241","302960.099344","289144.320195","289910.976051","302203.136067","Mapping"
"Blocked","Female","tile","16","F_tile.wav","None","726.363786147","230","298377.591683","290660.069014","291427.342907","292193.875093","292960.482409","293727.297489","294493.908515","295260.436682","299126.964448","299893.880937","300660.297184","301427.167606","302193.745241","302960.099344","303727.768978","289910.976051","302969.428027","Mapping"
"Blocked","Female","tile","16","F_priest.wav","space","581.102159107","230","298377.591683","290660.069014","291427.342907","292193.875093","292960.482409","293727.297489","294493.908515","295260.436682","299126.964448","299893.880937","300660.297184","301427.167606","302193.745241","302960.099344","303727.768978","304494.038368","303737.081584","Mapping"
"Blocked","Female","tile","16","F_jaw.wav","None","720.103338012","230","298377.591683","305260.26942","291427.342907","292193.875093","292960.482409","293727.297489","294493.908515","295260.436682","299126.964448","299893.880937","300660.297184","301427.167606","302193.745241","302960.099344","303727.768978","304494.038368","304504.10412","Mapping"
"Blocked","Female","tile","16","F_tile.wav","None","719.842086663","230","298377.591683","305260.26942","306010.42563","292193.875093","292960.482409","293727.297489","294493.908515","295260.436682","299126.964448","299893.880937","300660.297184","301427.167606","302193.745241","302960.099344","303727.768978","304494.038368","305269.552963","Mapping"
"Blocked","Female","tile","16","F_dime.wav","None","734.732486308","230","298377.591683","305260.26942","306010.42563","306777.082413","292960.482409","293727.297489","294493.908515","295260.436682","299126.964448","299893.880937","300660.297184","301427.167606","302193.745241","302960.099344","303727.768978","304494.038368","306019.707627","Mapping"
"Blocked","Female","tile","16","F_tile.wav","space","59.4261806691","230","298377.591683","305260.26942","306010.42563","306777.082413","307543.642425","293727.297489","294493.908515","295260.436682","299126.964448","299893.880937","300660.297184","301427.167606","302193.745241","302960.099344","303727.768978","304494.038368","306786.711921","Mapping"
"Blocked","Female","tile","16","F_cave.wav","None","729.84754981","230","298377.591683","305260.26942","306010.42563","306777.082413","307543.642425","308310.226244","294493.908515","295260.436682","299126.964448","299893.880937","300660.297184","301427.167606","302193.745241","302960.099344","303727.768978","304494.038368","307553.25833","Mapping"
"Blocked","Female","tile","16","F_jolt.wav","space","54.5168195385","230","298377.591683","305260.26942","306010.42563","306777.082413","307543.642425","308310.226244","309076.930331","295260.436682","299126.964448","299893.880937","300660.297184","301427.167606","302193.745241","302960.099344","303727.768978","304494.038368","308319.585844","Mapping"
"Blocked","Female","tile","16","F_jaw.wav","None","725.145952892","230","298377.591683","305260.26942","306010.42563","306777.082413","307543.642425","308310.226244","309076.930331","309844.194021","299126.964448","299893.880937","300660.297184","301427.167606","302193.745241","302960.099344","303727.768978","304494.038368","309086.638369","Mapping"
"Blocked","Female","done","22","F_greet.wav","None","722.820042982","230","312960.252694","305260.26942","306010.42563","306777.082413","307543.642425","308310.226244","309076.930331","309844.194021","299126.964448","299893.880937","300660.297184","301427.167606","302193.745241","302960.099344","303727.768978","304494.038368","309853.987701","Mapping"
"Blocked","Female","done","22","F_done.wav","None","720.505263191","230","312960.252694","305260.26942","306010.42563","306777.082413","307543.642425","308310.226244","309076.930331","309844.194021","313726.877632","299893.880937","300660.297184","301427.167606","302193.745241","302960.099344","303727.768978","304494.038368","312970.167878","Mapping"
"Blocked","Female","done","22","F_lash.wav","space","405.817959458","230","312960.252694","305260.26942","306010.42563","306777.082413","307543.642425","308310.226244","309076.930331","309844.194021","313726.877632","314476.915119","300660.297184","301427.167606","302193.745241","302960.099344","303727.768978","304494.038368","313736.188074","Mapping"
"Blocked","Female","done","22","F_jaw.wav","None","736.122219823","230","312960.252694","305260.26942","306010.42563","306777.082413","307543.642425","308310.226244","309076.930331","309844.194021","313726.877632","314476.915119","315243.120201","301427.167606","302193.745241","302960.099344","303727.768978","304494.038368","314485.801375","Mapping"
"Blocked","Female","done","22","F_jaw.wav","None","734.884908772","230","312960.252694","305260.26942","306010.42563","306777.082413","307543.642425","308310.226244","309076.930331","309844.194021","313726.877632","314476.915119","315243.120201","316010.043182","302193.745241","302960.099344","303727.768978","304494.038368","315252.02377","Mapping"
"Blocked","Female","done","22","F_cad.wav","None","730.56854168","230","312960.252694","305260.26942","306010.42563","306777.082413","307543.642425","308310.226244","309076.930331","309844.194021","313726.877632","314476.915119","315243.120201","316010.043182","316776.837548","302960.099344","303727.768978","304494.038368","316021.588019","Mapping"
"Blocked","Female","done","22","F_done.wav","None","731.645082706","230","312960.252694","305260.26942","306010.42563","306777.082413","307543.642425","308310.226244","309076.930331","309844.194021","313726.877632","314476.915119","315243.120201","316010.043182","316776.837548","317543.511027","303727.768978","304494.038368","316786.09172","Mapping"
"Blocked","Female","done","22","F_greet.wav","space","517.084138119","230","312960.252694","305260.26942","306010.42563","306777.082413","307543.642425","308310.226244","309076.930331","309844.194021","313726.877632","314476.915119","315243.120201","316010.043182","316776.837548","317543.511027","318309.86482","304494.038368","317552.860115","Mapping"
"Blocked","Female","done","22","F_priest.wav","None","727.49845183","230","312960.252694","305260.26942","306010.42563","306777.082413","307543.642425","308310.226244","309076.930331","309844.194021","313726.877632","314476.915119","315243.120201","316010.043182","316776.837548","317543.511027","318309.86482","319076.53428","318319.094568","Mapping"
"Blocked","Female","done","22","F_greet.wav","None","726.199615165","230","312960.252694","319843.178387","306010.42563","306777.082413","307543.642425","308310.226244","309076.930331","309844.194021","313726.877632","314476.915119","315243.120201","316010.043182","316776.837548","317543.511027","318309.86482","319076.53428","319085.915831","Mapping"
"Blocked","Female","done","22","F_ball.wav","None","724.932932528","230","312960.252694","319843.178387","320610.311297","306777.082413","307543.642425","308310.226244","309076.930331","309844.194021","313726.877632","314476.915119","315243.120201","316010.043182","316776.837548","317543.511027","318309.86482","319076.53428","319852.205935","Mapping"
"Blocked","Female","done","22","F_done.wav","None","722.111418028","230","312960.252694","319843.178387","320610.311297","321377.049393","307543.642425","308310.226244","309076.930331","309844.194021","313726.877632","314476.915119","315243.120201","316010.043182","316776.837548","317543.511027","318309.86482","319076.53428","320620.118889","Mapping"
"Blocked","Female","done","22","F_cling.wav","space","498.925468535","230","312960.252694","319843.178387","320610.311297","321377.049393","322126.526968","308310.226244","309076.930331","309844.194021","313726.877632","314476.915119","315243.120201","316010.043182","316776.837548","317543.511027","318309.86482","319076.53428","321386.927168","Mapping"
"Blocked","Female","done","22","F_romp.wav","None","734.83853275","230","312960.252694","319843.178387","320610.311297","321377.049393","322126.526968","322893.427689","309076.930331","309844.194021","313726.877632","314476.915119","315243.120201","316010.043182","316776.837548","317543.511027","318309.86482","319076.53428","322135.988595","Mapping"
"Blocked","Female","done","22","F_done.wav","None","732.836327166","230","312960.252694","319843.178387","320610.311297","321377.049393","322126.526968","322893.427689","323659.745928","309844.194021","313726.877632","314476.915119","315243.120201","316010.043182","316776.837548","317543.511027","318309.86482","319076.53428","322903.0337","Mapping"
"Blocked","Female","done","22","F_reek.wav","space","520.969517645","230","312960.252694","319843.178387","320610.311297","321377.049393","322126.526968","322893.427689","323659.745928","324426.72456","313726.877632","314476.915119","315243.120201","316010.043182","316776.837548","317543.511027","318309.86482","319076.53428","323668.872721","Mapping"
"Blocked","Female","tile","18","F_reek.wav","None","727.535861777","230","327560.157839","319843.178387","320610.311297","321377.049393","322126.526968","322893.427689","323659.745928","324426.72456","313726.877632","314476.915119","315243.120201","316010.043182","316776.837548","317543.511027","318309.86482","319076.53428","324436.83236","Mapping"
"Blocked","Female","tile","18","F_cad.wav","None","720.751055866","230","327560.157839","319843.178387","320610.311297","321377.049393","322126.526968","322893.427689","323659.745928","324426.72456","328327.149766","314476.915119","315243.120201","316010.043182","316776.837548","317543.511027","318309.86482","319076.53428","327569.661823","Mapping"
"Blocked","Female","tile","18","F_dime.wav","None","718.793062028","230","327560.157839","319843.178387","320610.311297","321377.049393","322126.526968","322893.427689","323659.745928","324426.72456","328327.149766","329076.417103","315243.120201","316010.043182","316776.837548","317543.511027","318309.86482","319076.53428","328336.890886","Mapping"
"Blocked","Female","tile","18","F_depth.wav","None","735.478521208","230","327560.157839","319843.178387","320610.311297","321377.049393","322126.526968","322893.427689","323659.745928","324426.72456","328327.149766","329076.417103","329843.126755","316010.043182","316776.837548","317543.511027","318309.86482","319076.53428","329085.83792","Mapping"
"Blocked","Female","tile","18","F_romp.wav","None","734.184013098","230","327560.157839","319843.178387","320610.311297","321377.049393","322126.526968","322893.427689","323659.745928","324426.72456","328327.149766","329076.417103","329843.126755","330609.784466","316776.837548","317543.511027","318309.86482","319076.53428","329852.378145","Mapping"
"Blocked","Female","tile","18","F_tile.wav","None","732.427600073","230","327560.157839","319843.178387","320610.311297","321377.049393","322126.526968","322893.427689","323659.745928","324426.72456","328327.149766","329076.417103","329843.126755","330609.784466","331376.631391","317543.511027","318309.86482","319076.53428","330619.319986","Mapping"
"Blocked","Female","tile","18","F_done.wav","space","355.549488799","230","327560.157839","319843.178387","320610.311297","321377.049393","322126.526968","322893.427689","323659.745928","324426.72456","328327.149766","329076.417103","329843.126755","330609.784466","331376.631391","332143.161723","318309.86482","319076.53428","331386.148361","Mapping"
"Blocked","Female","tile","18","F_tile.wav","None","727.746408666","230","327560.157839","319843.178387","320610.311297","321377.049393","322126.526968","322893.427689","323659.745928","324426.72456","328327.149766","329076.417103","329843.126755","330609.784466","331376.631391","332143.161723","332909.82469","319076.53428","332152.724141","Mapping"
"Blocked","Female","tile","18","F_bluff.wav","space","574.579532142","230","327560.157839","319843.178387","320610.311297","321377.049393","322126.526968","322893.427689","323659.745928","324426.72456","328327.149766","329076.417103","329843.126755","330609.784466","331376.631391","332143.161723","332909.82469","333676.887417","332919.106069","Mapping"
"Blocked","Female","tile","18","F_dime.wav","None","722.849414335","230","327560.157839","334443.905934","320610.311297","321377.049393","322126.526968","322893.427689","323659.745928","324426.72456","328327.149766","329076.417103","329843.126755","330609.784466","331376.631391","332143.161723","332909.82469","333676.887417","333686.685116","Mapping"
"Blocked","Female","tile","18","F_tile.wav","None","720.891420497","230","327560.157839","334443.905934","335210.132039","321377.049393","322126.526968","322893.427689","323659.745928","324426.72456","328327.149766","329076.417103","329843.126755","330609.784466","331376.631391","332143.161723","332909.82469","333676.887417","334453.835649","Mapping"
"Blocked","Female","tile","18","F_depth.wav","space","426.12723785","230","327560.157839","334443.905934","335210.132039","335959.537576","322126.526968","322893.427689","323659.745928","324426.72456","328327.149766","329076.417103","329843.126755","330609.784466","331376.631391","332143.161723","332909.82469","333676.887417","335219.550382","Mapping"
"Blocked","Female","tile","18","F_tile.wav","None","733.992325724","230","327560.157839","334443.905934","335210.132039","335959.537576","336726.473852","322893.427689","323659.745928","324426.72456","328327.149766","329076.417103","329843.126755","330609.784466","331376.631391","332143.161723","332909.82469","333676.887417","335969.433901","Mapping"
