"Condition","Talker","Target","Trial","current_stimulus","response_response","response_time_response","subject_nr","time_Audio1","time_Audio10","time_Audio11","time_Audio12","time_Audio13","time_Audio14","time_Audio15","time_Audio16","time_Audio2","time_Audio3","time_Audio4","time_Audio5","time_Audio6","time_Audio7","time_Audio8","time_Audio9","time_response","title"
"Blocked","Male","tile","17","M_lash.wav","NA","NA","309","23624.0657945","NA","NA","NA","NA","NA","NA","NA","NA","NA","NA","NA","NA","NA","NA","NA","NA","Mapping"
"Blocked","Male","tile","17","M_bluff.wav","space","100.015365984","309","23624.0657945","NA","NA","NA","NA","NA","NA","NA","24373.7876159","NA","NA","NA","NA","NA","NA","NA","23639.0776993","Mapping"
"Blocked","Male","tile","17","M_bluff.wav","None","735.778110102","309","23624.0657945","NA","NA","NA","NA","NA","NA","NA","24373.7876159","25140.1392454","NA","NA","NA","NA","NA","NA","24383.6904336","Mapping"
"Blocked","Male","tile","17","M_reek.wav","None","731.999086216","309","23624.0657945","NA","NA","NA","NA","NA","NA","NA","24373.7876159","25140.1392454","25906.7765512","NA","NA","NA","NA","NA","25151.325441","Mapping"
"Blocked","Male","tile","17","M_tile.wav","None","730.394477025","309","23624.0657945","NA","NA","NA","NA","NA","NA","NA","24373.7876159","25140.1392454","25906.7765512","26673.6528473","NA","NA","NA","NA","25916.7795409","Mapping"
"Blocked","Male","tile","17","M_greet.wav","space","439.398497343","309","23624.0657945","NA","NA","NA","NA","NA","NA","NA","24373.7876159","25140.1392454","25906.7765512","26673.6528473","27440.4422664","NA","NA","NA","26683.6654218","Mapping"
"Blocked","Male","tile","17","M_tile.wav","None","724.386314396","309","23624.0657945","NA","NA","NA","NA","NA","NA","NA","24373.7876159","25140.1392454","25906.7765512","26673.6528473","27440.4422664","28206.7725626","NA","NA","27450.4353623","Mapping"
"Blocked","Male","tile","17","M_gnash.wav","space","427.159257699","309","23624.0657945","NA","NA","NA","NA","NA","NA","NA","24373.7876159","25140.1392454","25906.7765512","26673.6528473","27440.4422664","28206.7725626","28973.9345354","NA","28215.8610183","Mapping"
"Blocked","Male","tile","17","M_depth.wav","None","722.461401951","309","23624.0657945","NA","NA","NA","NA","NA","NA","NA","24373.7876159","25140.1392454","25906.7765512","26673.6528473","27440.4422664","28206.7725626","28973.9345354","29723.3508937","28983.1009023","Mapping"
"Blocked","Male","tile","17","M_cling.wav","None","736.5188892","309","23624.0657945","30490.5598601","NA","NA","NA","NA","NA","NA","24373.7876159","25140.1392454","25906.7765512","26673.6528473","27440.4422664","28206.7725626","28973.9345354","29723.3508937","29732.8137574","Mapping"
"Blocked","Male","tile","17","M_tile.wav","None","732.848694082","309","23624.0657945","30490.5598601","31257.3273275","NA","NA","NA","NA","NA","24373.7876159","25140.1392454","25906.7765512","26673.6528473","27440.4422664","28206.7725626","28973.9345354","29723.3508937","30500.3727083","Mapping"
"Blocked","Male","tile","17","M_park.wav","space","407.971350942","309","23624.0657945","30490.5598601","31257.3273275","32024.1133454","NA","NA","NA","NA","24373.7876159","25140.1392454","25906.7765512","26673.6528473","27440.4422664","28206.7725626","28973.9345354","29723.3508937","31267.0013569","Mapping"
"Blocked","Male","tile","17","M_priest.wav","None","726.92555422","309","23624.0657945","30490.5598601","31257.3273275","32024.1133454","32790.8910154","NA","NA","NA","24373.7876159","25140.1392454","25906.7765512","26673.6528473","27440.4422664","28206.7725626","28973.9345354","29723.3508937","32034.0028685","Mapping"
"Blocked","Male","tile","17","M_tile.wav","None","724.027673714","309","23624.0657945","30490.5598601","31257.3273275","32024.1133454","32790.8910154","33557.8616099","NA","NA","24373.7876159","25140.1392454","25906.7765512","26673.6528473","27440.4422664","28206.7725626","28973.9345354","29723.3508937","32800.695207","Mapping"
"Blocked","Male","tile","17","M_depth.wav","space","571.963617578","309","23624.0657945","30490.5598601","31257.3273275","32024.1133454","32790.8910154","33557.8616099","34307.4922254","NA","24373.7876159","25140.1392454","25906.7765512","26673.6528473","27440.4422664","28206.7725626","28973.9345354","29723.3508937","33566.949138","Mapping"
"Blocked","Male","tile","17","M_reek.wav","None","735.699580051","309","23624.0657945","30490.5598601","31257.3273275","32024.1133454","32790.8910154","33557.8616099","34307.4922254","35073.6045544","24373.7876159","25140.1392454","25906.7765512","26673.6528473","27440.4422664","28206.7725626","28973.9345354","29723.3508937","34316.7281561","Mapping"
"Blocked","Male","tile","14","M_cling.wav","None","733.583289664","309","38241.0700731","30490.5598601","31257.3273275","32024.1133454","32790.8910154","33557.8616099","34307.4922254","35073.6045544","24373.7876159","25140.1392454","25906.7765512","26673.6528473","27440.4422664","28206.7725626","28973.9345354","29723.3508937","35083.0213521","Mapping"
"Blocked","Male","tile","14","M_park.wav","None","718.848404009","309","38241.0700731","30490.5598601","31257.3273275","32024.1133454","32790.8910154","33557.8616099","34307.4922254","35073.6045544","38990.8871199","25140.1392454","25906.7765512","26673.6528473","27440.4422664","28206.7725626","28973.9345354","29723.3508937","38252.8981124","Mapping"
"Blocked","Male","tile","14","M_jaw.wav","None","735.164401121","309","38241.0700731","30490.5598601","31257.3273275","32024.1133454","32790.8910154","33557.8616099","34307.4922254","35073.6045544","38990.8871199","39757.2922367","25906.7765512","26673.6528473","27440.4422664","28206.7725626","28973.9345354","29723.3508937","39000.5484736","Mapping"
"Blocked","Male","tile","14","M_tile.wav","None","732.632891275","309","38241.0700731","30490.5598601","31257.3273275","32024.1133454","32790.8910154","33557.8616099","34307.4922254","35073.6045544","38990.8871199","39757.2922367","40524.1240119","26673.6528473","27440.4422664","28206.7725626","28973.9345354","29723.3508937","39766.8296113","Mapping"
"Blocked","Male","tile","14","M_cling.wav","space","437.055273913","309","38241.0700731","30490.5598601","31257.3273275","32024.1133454","32790.8910154","33557.8616099","34307.4922254","35073.6045544","38990.8871199","39757.2922367","40524.1240119","41290.3077602","27440.4422664","28206.7725626","28973.9345354","29723.3508937","40533.7315691","Mapping"
"Blocked","Male","tile","14","M_tile.wav","None","727.781963535","309","38241.0700731","30490.5598601","31257.3273275","32024.1133454","32790.8910154","33557.8616099","34307.4922254","35073.6045544","38990.8871199","39757.2922367","40524.1240119","41290.3077602","42057.238162","28206.7725626","28973.9345354","29723.3508937","41299.4435192","Mapping"
"Blocked","Male","tile","14","M_romp.wav","space","584.023845848","309","38241.0700731","30490.5598601","31257.3273275","32024.1133454","32790.8910154","33557.8616099","34307.4922254","35073.6045544","38990.8871199","39757.2922367","40524.1240119","41290.3077602","42057.238162","42823.8980374","28973.9345354","29723.3508937","42066.7396728","Mapping"
"Blocked","Male","tile","14","M_jolt.wav","None","721.728352364","309","38241.0700731","30490.5598601","31257.3273275","32024.1133454","32790.8910154","33557.8616099","34307.4922254","35073.6045544","38990.8871199","39757.2922367","40524.1240119","41290.3077602","42057.238162","42823.8980374","43573.9296502","29723.3508937","42833.3513169","Mapping"
"Blocked","Male","tile","14","M_romp.wav","None","740.850096103","309","38241.0700731","30490.5598601","31257.3273275","32024.1133454","32790.8910154","33557.8616099","34307.4922254","35073.6045544","38990.8871199","39757.2922367","40524.1240119","41290.3077602","42057.238162","42823.8980374","43573.9296502","44340.5644824","43578.1798544","Mapping"
"Blocked","Male","tile","14","M_tile.wav","None","733.376452699","309","38241.0700731","45107.2574393","31257.3273275","32024.1133454","32790.8910154","33557.8616099","34307.4922254","35073.6045544","38990.8871199","39757.2922367","40524.1240119","41290.3077602","42057.238162","42823.8980374","43573.9296502","44340.5644824","44350.4091753","Mapping"
"Blocked","Male","tile","14","M_bluff.wav","space","301.86372716","309","38241.0700731","45107.2574393","45873.3530734","32024.1133454","32790.8910154","33557.8616099","34307.4922254","35073.6045544","38990.8871199","39757.2922367","40524.1240119","41290.3077602","42057.238162","42823.8980374","43573.9296502","44340.5644824","45116.828823","Mapping"
"Blocked","Male","tile","14","M_priest.wav","None","728.721541353","309","38241.0700731","45107.2574393","45873.3530734","46640.6368599","32790.8910154","33557.8616099","34307.4922254","35073.6045544","38990.8871199","39757.2922367","40524.1240119","41290.3077602","42057.238162","42823.8980374","43573.9296502","44340.5644824","45882.7049439","Mapping"
"Blocked","Male","tile","14","M_park.wav","None","725.107615348","309","38241.0700731","45107.2574393","45873.3530734","46640.6368599","47407.4670896","33557.8616099","34307.4922254","35073.6045544","38990.8871199","39757.2922367","40524.1240119","41290.3077602","42057.238162","42823.8980374","43573.9296502","44340.5644824","46650.228031","Mapping"
"Blocked","Male","tile","14","M_tile.wav","None","721.720932517","309","38241.0700731","45107.2574393","45873.3530734","46640.6368599","47407.4670896","48173.8657132","34307.4922254","35073.6045544","38990.8871199","39757.2922367","40524.1240119","41290.3077602","42057.238162","42823.8980374","43573.9296502","44340.5644824","47417.4329783","Mapping"
"Blocked","Male","tile","14","M_lash.wav","space","299.313048366","309","38241.0700731","45107.2574393","45873.3530734","46640.6368599","47407.4670896","48173.8657132","48923.6193793","35073.6045544","38990.8871199","39757.2922367","40524.1240119","41290.3077602","42057.238162","42823.8980374","43573.9296502","44340.5644824","48183.3826825","Mapping"
"Blocked","Male","tile","14","M_gnash.wav","None","733.258658089","309","38241.0700731","45107.2574393","45873.3530734","46640.6368599","47407.4670896","48173.8657132","48923.6193793","49690.5238107","38990.8871199","39757.2922367","40524.1240119","41290.3077602","42057.238162","42823.8980374","43573.9296502","44340.5644824","48933.5988718","Mapping"
"Blocked","Male","ball","1","M_bluff.wav","None","730.124569032","309","52824.1929887","45107.2574393","45873.3530734","46640.6368599","47407.4670896","48173.8657132","48923.6193793","49690.5238107","38990.8871199","39757.2922367","40524.1240119","41290.3077602","42057.238162","42823.8980374","43573.9296502","44340.5644824","49700.6687107","Mapping"
"Blocked","Male","ball","1","M_bluff.wav","None","720.205056015","309","52824.1929887","45107.2574393","45873.3530734","46640.6368599","47407.4670896","48173.8657132","48923.6193793","49690.5238107","53573.470219","39757.2922367","40524.1240119","41290.3077602","42057.238162","42823.8980374","43573.9296502","44340.5644824","52833.9192681","Mapping"
"Blocked","Male","ball","1","M_ball.wav","None","734.871614724","309","52824.1929887","45107.2574393","45873.3530734","46640.6368599","47407.4670896","48173.8657132","48923.6193793","49690.5238107","53573.470219","54340.1127802","40524.1240119","41290.3077602","42057.238162","42823.8980374","43573.9296502","44340.5644824","53583.0672639","Mapping"
"Blocked","Male","ball","1","M_jolt.wav","space","421.314647421","309","52824.1929887","45107.2574393","45873.3530734","46640.6368599","47407.4670896","48173.8657132","48923.6193793","49690.5238107","53573.470219","54340.1127802","55106.963106","41290.3077602","42057.238162","42823.8980374","43573.9296502","44340.5644824","54349.2405009","Mapping"
"Blocked","Male","ball","1","M_cad.wav","None","728.473893367","309","52824.1929887","45107.2574393","45873.3530734","46640.6368599","47407.4670896","48173.8657132","48923.6193793","49690.5238107","53573.470219","54340.1127802","55106.963106","55873.3555465","42057.238162","42823.8980374","43573.9296502","44340.5644824","55116.6495024","Mapping"
"Blocked","Male","ball","1","M_bluff.wav","None","726.052448619","309","52824.1929887","45107.2574393","45873.3530734","46640.6368599","47407.4670896","48173.8657132","48923.6193793","49690.5238107","53573.470219","54340.1127802","55106.963106","55873.3555465","56640.6739606","42823.8980374","43573.9296502","44340.5644824","55882.9260031","Mapping"
"Blocked","Male","ball","1","M_jolt.wav","space","519.207539503","309","52824.1929887","45107.2574393","45873.3530734","46640.6368599","47407.4670896","48173.8657132","48923.6193793","49690.5238107","53573.470219","54340.1127802","55106.963106","55873.3555465","56640.6739606","57406.7321848","43573.9296502","44340.5644824","56651.310137","Mapping"
"Blocked","Male","ball","1","M_greet.wav","None","720.445592422","309","52824.1929887","45107.2574393","45873.3530734","46640.6368599","47407.4670896","48173.8657132","48923.6193793","49690.5238107","53573.470219","54340.1127802","55106.963106","55873.3555465","56640.6739606","57406.7321848","58156.4243254","44340.5644824","57416.0067625","Mapping"
"Blocked","Male","ball","1","M_ball.wav","None","734.507717192","309","52824.1929887","45107.2574393","45873.3530734","46640.6368599","47407.4670896","48173.8657132","48923.6193793","49690.5238107","53573.470219","54340.1127802","55106.963106","55873.3555465","56640.6739606","57406.7321848","58156.4243254","58923.1887013","58165.8995566","Mapping"
"Blocked","Male","ball","1","M_reek.wav","space","478.113783989","309","52824.1929887","59690.3222296","45873.3530734","46640.6368599","47407.4670896","48173.8657132","48923.6193793","49690.5238107","53573.470219","54340.1127802","55106.963106","55873.3555465","56640.6739606","57406.7321848","58156.4243254","58923.1887013","58932.356305","Mapping"
"Blocked","Male","ball","1","M_gnash.wav","None","727.435689885","309","52824.1929887","59690.3222296","60456.50907","46640.6368599","47407.4670896","48173.8657132","48923.6193793","49690.5238107","53573.470219","54340.1127802","55106.963106","55873.3555465","56640.6739606","57406.7321848","58156.4243254","58923.1887013","59700.4584731","Mapping"
"Blocked","Male","ball","1","M_bluff.wav","None","726.291439962","309","52824.1929887","59690.3222296","60456.50907","61223.9146708","47407.4670896","48173.8657132","48923.6193793","49690.5238107","53573.470219","54340.1127802","55106.963106","55873.3555465","56640.6739606","57406.7321848","58156.4243254","58923.1887013","60465.4506678","Mapping"
"Blocked","Male","ball","1","M_ball.wav","None","721.131339204","309","52824.1929887","59690.3222296","60456.50907","61223.9146708","61990.6870848","48173.8657132","48923.6193793","49690.5238107","53573.470219","54340.1127802","55106.963106","55873.3555465","56640.6739606","57406.7321848","58156.4243254","58923.1887013","61234.522094","Mapping"
"Blocked","Male","ball","1","M_dime.wav","space","433.607065119","309","52824.1929887","59690.3222296","60456.50907","61223.9146708","61990.6870848","62740.2840005","48923.6193793","49690.5238107","53573.470219","54340.1127802","55106.963106","55873.3555465","56640.6739606","57406.7321848","58156.4243254","58923.1887013","62000.828275","Mapping"
"Blocked","Male","ball","1","M_ball.wav","None","733.587308787","309","52824.1929887","59690.3222296","60456.50907","61223.9146708","61990.6870848","62740.2840005","63506.8229889","49690.5238107","53573.470219","54340.1127802","55106.963106","55873.3555465","56640.6739606","57406.7321848","58156.4243254","58923.1887013","62749.5047818","Mapping"
"Blocked","Male","ball","1","M_gnash.wav","space","558.073084336","309","52824.1929887","59690.3222296","60456.50907","61223.9146708","61990.6870848","62740.2840005","63506.8229889","64273.5029603","53573.470219","54340.1127802","55106.963106","55873.3555465","56640.6739606","57406.7321848","58156.4243254","58923.1887013","63516.3449049","Mapping"
"Blocked","Male","cave","12","M_gnash.wav","None","727.024179883","309","67407.1266898","59690.3222296","60456.50907","61223.9146708","61990.6870848","62740.2840005","63506.8229889","64273.5029603","53573.470219","54340.1127802","55106.963106","55873.3555465","56640.6739606","57406.7321848","58156.4243254","58923.1887013","64283.5161528","Mapping"
"Blocked","Male","cave","12","M_cave.wav","None","719.651327003","309","67407.1266898","59690.3222296","60456.50907","61223.9146708","61990.6870848","62740.2840005","63506.8229889","64273.5029603","68156.6750649","54340.1127802","55106.963106","55873.3555465","56640.6739606","57406.7321848","58156.4243254","58923.1887013","67416.9890056","Mapping"
"Blocked","Male","cave","12","M_bluff.wav","space","467.569431756","309","67407.1266898","59690.3222296","60456.50907","61223.9146708","61990.6870848","62740.2840005","63506.8229889","64273.5029603","68156.6750649","68923.5699116","55106.963106","55873.3555465","56640.6739606","57406.7321848","58156.4243254","58923.1887013","68166.7358703","Mapping"
"Blocked","Male","cave","12","M_cave.wav","None","730.604405515","309","67407.1266898","59690.3222296","60456.50907","61223.9146708","61990.6870848","62740.2840005","63506.8229889","64273.5029603","68156.6750649","68923.5699116","69690.1834109","55873.3555465","56640.6739606","57406.7321848","58156.4243254","58923.1887013","68933.4081123","Mapping"
"Blocked","Male","cave","12","M_greet.wav","space","405.822287779","309","67407.1266898","59690.3222296","60456.50907","61223.9146708","61990.6870848","62740.2840005","63506.8229889","64273.5029603","68156.6750649","68923.5699116","69690.1834109","70456.2320509","56640.6739606","57406.7321848","58156.4243254","58923.1887013","69700.435285","Mapping"
"Blocked","Male","cave","12","M_cad.wav","None","726.192504168","309","67407.1266898","59690.3222296","60456.50907","61223.9146708","61990.6870848","62740.2840005","63506.8229889","64273.5029603","68156.6750649","68923.5699116","69690.1834109","70456.2320509","71223.7214376","57406.7321848","58156.4243254","58923.1887013","70465.3919251","Mapping"
"Blocked","Male","cave","12","M_park.wav","None","721.43123718","309","67407.1266898","59690.3222296","60456.50907","61223.9146708","61990.6870848","62740.2840005","63506.8229889","64273.5029603","68156.6750649","68923.5699116","69690.1834109","70456.2320509","71223.7214376","71990.0229811","58156.4243254","58923.1887013","71234.0169051","Mapping"
"Blocked","Male","cave","12","M_bluff.wav","None","720.146622509","309","67407.1266898","59690.3222296","60456.50907","61223.9146708","61990.6870848","62740.2840005","63506.8229889","64273.5029603","68156.6750649","68923.5699116","69690.1834109","70456.2320509","71223.7214376","71990.0229811","72739.9674072","58923.1887013","71999.2428347","Mapping"
"Blocked","Male","cave","12","M_depth.wav","None","733.405205421","309","67407.1266898","59690.3222296","60456.50907","61223.9146708","61990.6870848","62740.2840005","63506.8229889","64273.5029603","68156.6750649","68923.5699116","69690.1834109","70456.2320509","71223.7214376","71990.0229811","72739.9674072","73506.6714939","72749.9478273","Mapping"
"Blocked","Male","cave","12","M_greet.wav","None","731.115468778","309","67407.1266898","74273.2964326","60456.50907","61223.9146708","61990.6870848","62740.2840005","63506.8229889","64273.5029603","68156.6750649","68923.5699116","69690.1834109","70456.2320509","71223.7214376","71990.0229811","72739.9674072","73506.6714939","73516.2552451","Mapping"
"Blocked","Male","cave","12","M_cling.wav","None","728.073823266","309","67407.1266898","74273.2964326","75039.6557916","61223.9146708","61990.6870848","62740.2840005","63506.8229889","64273.5029603","68156.6750649","68923.5699116","69690.1834109","70456.2320509","71223.7214376","71990.0229811","72739.9674072","73506.6714939","74283.131232","Mapping"
"Blocked","Male","cave","12","M_dime.wav","None","726.281546056","309","67407.1266898","74273.2964326","75039.6557916","75806.3864671","61990.6870848","62740.2840005","63506.8229889","64273.5029603","68156.6750649","68923.5699116","69690.1834109","70456.2320509","71223.7214376","71990.0229811","72739.9674072","73506.6714939","75048.9452095","Mapping"
"Blocked","Male","cave","12","M_cave.wav","None","723.383975215","309","67407.1266898","74273.2964326","75039.6557916","75806.3864671","76573.6087286","62740.2840005","63506.8229889","64273.5029603","68156.6750649","68923.5699116","69690.1834109","70456.2320509","71223.7214376","71990.0229811","72739.9674072","73506.6714939","75815.6326008","Mapping"
"Blocked","Male","cave","12","M_jaw.wav","space","506.848650053","309","67407.1266898","74273.2964326","75039.6557916","75806.3864671","76573.6087286","77322.8337085","63506.8229889","64273.5029603","68156.6750649","68923.5699116","69690.1834109","70456.2320509","71223.7214376","71990.0229811","72739.9674072","73506.6714939","76583.2855403","Mapping"
"Blocked","Male","cave","12","M_cave.wav","None","734.27892942","309","67407.1266898","74273.2964326","75039.6557916","75806.3864671","76573.6087286","77322.8337085","78089.4611203","64273.5029603","68156.6750649","68923.5699116","69690.1834109","70456.2320509","71223.7214376","71990.0229811","72739.9674072","73506.6714939","77332.3253258","Mapping"
"Blocked","Male","cave","12","M_knife.wav","space","453.115584794","309","67407.1266898","74273.2964326","75039.6557916","75806.3864671","76573.6087286","77322.8337085","78089.4611203","78856.2966059","68156.6750649","68923.5699116","69690.1834109","70456.2320509","71223.7214376","71990.0229811","72739.9674072","73506.6714939","78093.0088828","Mapping"
"Blocked","Male","ball","6","M_dime.wav","None","728.91570162","309","81990.2183786","74273.2964326","75039.6557916","75806.3864671","76573.6087286","77322.8337085","78089.4611203","78856.2966059","68156.6750649","68923.5699116","69690.1834109","70456.2320509","71223.7214376","71990.0229811","72739.9674072","73506.6714939","78865.5517059","Mapping"
"Blocked","Male","ball","6","M_ball.wav","None","718.877157196","309","81990.2183786","74273.2964326","75039.6557916","75806.3864671","76573.6087286","77322.8337085","78089.4611203","78856.2966059","82739.7958161","68923.5699116","69690.1834109","70456.2320509","71223.7214376","71990.0229811","72739.9674072","73506.6714939","82000.7924112","Mapping"
"Blocked","Male","ball","6","M_depth.wav","space","684.495242313","309","81990.2183786","74273.2964326","75039.6557916","75806.3864671","76573.6087286","77322.8337085","78089.4611203","78856.2966059","82739.7958161","83506.3480991","69690.1834109","70456.2320509","71223.7214376","71990.0229811","72739.9674072","73506.6714939","82749.5703269","Mapping"
"Blocked","Male","ball","6","M_depth.wav","None","731.748346705","309","81990.2183786","74273.2964326","75039.6557916","75806.3864671","76573.6087286","77322.8337085","78089.4611203","78856.2966059","82739.7958161","83506.3480991","84272.8107213","70456.2320509","71223.7214376","71990.0229811","72739.9674072","73506.6714939","83515.5472383","Mapping"
"Blocked","Male","ball","6","M_cling.wav","None","729.149127379","309","81990.2183786","74273.2964326","75039.6557916","75806.3864671","76573.6087286","77322.8337085","78089.4611203","78856.2966059","82739.7958161","83506.3480991","84272.8107213","85039.924772","71223.7214376","71990.0229811","72739.9674072","73506.6714939","84282.1882539","Mapping"
"Blocked","Male","ball","6","M_greet.wav","None","725.875601638","309","81990.2183786","74273.2964326","75039.6557916","75806.3864671","76573.6087286","77322.8337085","78089.4611203","78856.2966059","82739.7958161","83506.3480991","84272.8107213","85039.924772","85806.9933741","71990.0229811","72739.9674072","73506.6714939","85049.5706666","Mapping"
"Blocked","Male","ball","6","M_reek.wav","None","722.230758518","309","81990.2183786","74273.2964326","75039.6557916","75806.3864671","76573.6087286","77322.8337085","78089.4611203","78856.2966059","82739.7958161","83506.3480991","84272.8107213","85039.924772","85806.9933741","86572.9780151","72739.9674072","73506.6714939","85817.3039914","Mapping"
"Blocked","Male","ball","6","M_gnash.wav","None","720.727867913","309","81990.2183786","74273.2964326","75039.6557916","75806.3864671","76573.6087286","77322.8337085","78089.4611203","78856.2966059","82739.7958161","83506.3480991","84272.8107213","85039.924772","85806.9933741","86572.9780151","87322.7792941","73506.6714939","86582.9253537","Mapping"
"Blocked","Male","ball","6","M_ball.wav","None","735.257462133","309","81990.2183786","74273.2964326","75039.6557916","75806.3864671","76573.6087286","77322.8337085","78089.4611203","78856.2966059","82739.7958161","83506.3480991","84272.8107213","85039.924772","85806.9933741","86572.9780151","87322.7792941","88089.7084591","87332.4551787","Mapping"
"Blocked","Male","ball","6","M_priest.wav","space","454.499134794","309","81990.2183786","88856.3813195","75039.6557916","75806.3864671","76573.6087286","77322.8337085","78089.4611203","78856.2966059","82739.7958161","83506.3480991","84272.8107213","85039.924772","85806.9933741","86572.9780151","87322.7792941","88089.7084591","88099.4804963","Mapping"
"Blocked","Male","ball","6","M_ball.wav","None","729.287946131","309","81990.2183786","88856.3813195","89622.961428","75806.3864671","76573.6087286","77322.8337085","78089.4611203","78856.2966059","82739.7958161","83506.3480991","84272.8107213","85039.924772","85806.9933741","86572.9780151","87322.7792941","88089.7084591","88866.0476198","Mapping"
"Blocked","Male","ball","6","M_priest.wav","space","545.495918486","309","81990.2183786","88856.3813195","89622.961428","90390.1877087","76573.6087286","77322.8337085","78089.4611203","78856.2966059","82739.7958161","83506.3480991","84272.8107213","85039.924772","85806.9933741","86572.9780151","87322.7792941","88089.7084591","89632.434804","Mapping"
"Blocked","Male","ball","6","M_ball.wav","None","723.045739345","309","81990.2183786","88856.3813195","89622.961428","90390.1877087","91156.8478928","77322.8337085","78089.4611203","78856.2966059","82739.7958161","83506.3480991","84272.8107213","85039.924772","85806.9933741","86572.9780151","87322.7792941","88089.7084591","90399.9078046","Mapping"
"Blocked","Male","ball","6","M_jolt.wav","space","315.045635682","309","81990.2183786","88856.3813195","89622.961428","90390.1877087","91156.8478928","91922.8059449","78089.4611203","78856.2966059","82739.7958161","83506.3480991","84272.8107213","85039.924772","85806.9933741","86572.9780151","87322.7792941","88089.7084591","91166.887674","Mapping"
"Blocked","Male","ball","6","M_jolt.wav","None","721.63776448","309","81990.2183786","88856.3813195","89622.961428","90390.1877087","91156.8478928","91922.8059449","92673.1965076","78856.2966059","82739.7958161","83506.3480991","84272.8107213","85039.924772","85806.9933741","86572.9780151","87322.7792941","88089.7084591","91932.5585044","Mapping"
"Blocked","Male","ball","6","M_gnash.wav","None","735.594461206","309","81990.2183786","88856.3813195","89622.961428","90390.1877087","91156.8478928","91922.8059449","92673.1965076","93439.724057","82739.7958161","83506.3480991","84272.8107213","85039.924772","85806.9933741","86572.9780151","87322.7792941","88089.7084591","92682.7409938","Mapping"
"Blocked","Male","cave","8","M_cad.wav","None","733.028941788","309","96573.2210251","88856.3813195","89622.961428","90390.1877087","91156.8478928","91922.8059449","92673.1965076","93439.724057","82739.7958161","83506.3480991","84272.8107213","85039.924772","85806.9933741","86572.9780151","87322.7792941","88089.7084591","93449.4695053","Mapping"
"Blocked","Male","cave","8","M_park.wav","None","720.583793242","309","96573.2210251","88856.3813195","89622.961428","90390.1877087","91156.8478928","91922.8059449","92673.1965076","93439.724057","97322.4490969","83506.3480991","84272.8107213","85039.924772","85806.9933741","86572.9780151","87322.7792941","88089.7084591","96582.7240818","Mapping"
"Blocked","Male","cave","8","M_dime.wav","None","735.569418408","309","96573.2210251","88856.3813195","89622.961428","90390.1877087","91156.8478928","91922.8059449","92673.1965076","93439.724057","97322.4490969","98089.6181804","84272.8107213","85039.924772","85806.9933741","86572.9780151","87322.7792941","88089.7084591","97332.0739679","Mapping"
"Blocked","Male","cave","8","M_cave.wav","None","732.380914968","309","96573.2210251","88856.3813195","89622.961428","90390.1877087","91156.8478928","91922.8059449","92673.1965076","93439.724057","97322.4490969","98089.6181804","98855.7917261","85039.924772","85806.9933741","86572.9780151","87322.7792941","88089.7084591","98099.3277649","Mapping"
"Blocked","Male","cave","8","M_jaw.wav","space","392.990363296","309","96573.2210251","88856.3813195","89622.961428","90390.1877087","91156.8478928","91922.8059449","92673.1965076","93439.724057","97322.4490969","98089.6181804","98855.7917261","99622.7907646","85806.9933741","86572.9780151","87322.7792941","88089.7084591","98864.7762993","Mapping"
"Blocked","Male","cave","8","M_knife.wav","None","726.518372539","309","96573.2210251","88856.3813195","89622.961428","90390.1877087","91156.8478928","91922.8059449","92673.1965076","93439.724057","97322.4490969","98089.6181804","98855.7917261","99622.7907646","100389.183514","86572.9780151","87322.7792941","88089.7084591","99632.7742762","Mapping"
"Blocked","Male","cave","8","M_gnash.wav","None","724.698888604","309","96573.2210251","88856.3813195","89622.961428","90390.1877087","91156.8478928","91922.8059449","92673.1965076","93439.724057","97322.4490969","98089.6181804","98855.7917261","99622.7907646","100389.183514","101155.971078","87322.7792941","88089.7084591","100398.647924","Mapping"
"Blocked","Male","cave","8","M_cad.wav","None","722.36463055","309","96573.2210251","88856.3813195","89622.961428","90390.1877087","91156.8478928","91922.8059449","92673.1965076","93439.724057","97322.4490969","98089.6181804","98855.7917261","99622.7907646","100389.183514","101155.971078","101922.598799","88089.7084591","101165.466405","Mapping"
"Blocked","Male","cave","8","M_cave.wav","space","333.870573435","309","96573.2210251","88856.3813195","89622.961428","90390.1877087","91156.8478928","91922.8059449","92673.1965076","93439.724057","97322.4490969","98089.6181804","98855.7917261","99622.7907646","100389.183514","101155.971078","101922.598799","102672.789327","101931.831638","Mapping"
"Blocked","Male","cave","8","M_lash.wav","space","599.298238754","309","96573.2210251","103439.65202","89622.961428","90390.1877087","91156.8478928","91922.8059449","92673.1965076","93439.724057","97322.4490969","98089.6181804","98855.7917261","99622.7907646","100389.183514","101155.971078","101922.598799","102672.789327","102682.404304","Mapping"
"Blocked","Male","cave","8","M_cave.wav","None","729.659881908","309","96573.2210251","103439.65202","104206.08929","90390.1877087","91156.8478928","91922.8059449","92673.1965076","93439.724057","97322.4490969","98089.6181804","98855.7917261","99622.7907646","100389.183514","101155.971078","101922.598799","102672.789327","103449.335015","Mapping"
"Blocked","Male","cave","8","M_depth.wav","space","528.634230606","309","96573.2210251","103439.65202","104206.08929","104972.786884","91156.8478928","91922.8059449","92673.1965076","93439.724057","97322.4490969","98089.6181804","98855.7917261","99622.7907646","100389.183514","101155.971078","101922.598799","102672.789327","104217.01949","Mapping"
"Blocked","Male","cave","8","M_romp.wav","None","724.545229226","309","96573.2210251","103439.65202","104206.08929","104972.786884","105740.000489","91922.8059449","92673.1965076","93439.724057","97322.4490969","98089.6181804","98855.7917261","99622.7907646","100389.183514","101155.971078","101922.598799","102672.789327","104982.400934","Mapping"
"Blocked","Male","cave","8","M_cave.wav","None","720.956037752","309","96573.2210251","103439.65202","104206.08929","104972.786884","105740.000489","106505.788495","92673.1965076","93439.724057","97322.4490969","98089.6181804","98855.7917261","99622.7907646","100389.183514","101155.971078","101922.598799","102672.789327","105750.124056","Mapping"
"Blocked","Male","cave","8","M_dime.wav","space","430.643948726","309","96573.2210251","103439.65202","104206.08929","104972.786884","105740.000489","106505.788495","107255.612653","93439.724057","97322.4490969","98089.6181804","98855.7917261","99622.7907646","100389.183514","101155.971078","101922.598799","102672.789327","106515.036484","Mapping"
"Blocked","Male","cave","8","M_romp.wav","None","734.119086992","309","96573.2210251","103439.65202","104206.08929","104972.786884","105740.000489","106505.788495","107255.612653","108022.637044","97322.4490969","98089.6181804","98855.7917261","99622.7907646","100389.183514","101155.971078","101922.598799","102672.789327","107264.771291","Mapping"
"Blocked","Male","done","24","M_greet.wav","None","730.810314883","309","111156.33312","103439.65202","104206.08929","104972.786884","105740.000489","106505.788495","107255.612653","108022.637044","97322.4490969","98089.6181804","98855.7917261","99622.7907646","100389.183514","101155.971078","101922.598799","102672.789327","108032.300561","Mapping"
"Blocked","Male","done","24","M_cad.wav","None","719.69492035","309","111156.33312","103439.65202","104206.08929","104972.786884","105740.000489","106505.788495","107255.612653","108022.637044","111905.776685","98089.6181804","98855.7917261","99622.7907646","100389.183514","101155.971078","101922.598799","102672.789327","111166.394543","Mapping"
"Blocked","Male","done","24","M_greet.wav","None","734.840078745","309","111156.33312","103439.65202","104206.08929","104972.786884","105740.000489","106505.788495","107255.612653","108022.637044","111905.776685","112672.44769","98855.7917261","99622.7907646","100389.183514","101155.971078","101922.598799","102672.789327","111915.374967","Mapping"
"Blocked","Male","done","24","M_reek.wav","None","732.913001906","309","111156.33312","103439.65202","104206.08929","104972.786884","105740.000489","106505.788495","107255.612653","108022.637044","111905.776685","112672.44769","113439.370363","99622.7907646","100389.183514","101155.971078","101922.598799","102672.789327","112681.544493","Mapping"
"Blocked","Male","done","24","M_gnash.wav","None","729.335868265","309","111156.33312","103439.65202","104206.08929","104972.786884","105740.000489","106505.788495","107255.612653","108022.637044","111905.776685","112672.44769","113439.370363","114205.974587","100389.183514","101155.971078","101922.598799","102672.789327","113449.344908","Mapping"
"Blocked","Male","done","24","M_bluff.wav","None","726.461794227","309","111156.33312","103439.65202","104206.08929","104972.786884","105740.000489","106505.788495","107255.612653","108022.637044","111905.776685","112672.44769","113439.370363","114205.974587","114972.281695","101155.971078","101922.598799","102672.789327","114216.374864","Mapping"
"Blocked","Male","done","24","M_knife.wav","None","725.499647204","309","111156.33312","103439.65202","104206.08929","104972.786884","105740.000489","106505.788495","107255.612653","108022.637044","111905.776685","112672.44769","113439.370363","114205.974587","114972.281695","115739.673693","101922.598799","102672.789327","114981.465376","Mapping"
"Blocked","Male","done","24","M_done.wav","None","721.265829168","309","111156.33312","103439.65202","104206.08929","104972.786884","105740.000489","106505.788495","107255.612653","108022.637044","111905.776685","112672.44769","113439.370363","114205.974587","114972.281695","115739.673693","116505.807664","102672.789327","115749.923712","Mapping"
"Blocked","Male","done","24","M_jaw.wav","space","484.942183364","309","111156.33312","103439.65202","104206.08929","104972.786884","105740.000489","106505.788495","107255.612653","108022.637044","111905.776685","112672.44769","113439.370363","114205.974587","114972.281695","115739.673693","116505.807664","117255.806505","116516.4627","Mapping"
"Blocked","Male","done","24","M_done.wav","None","734.521011822","309","111156.33312","118022.534089","104206.08929","104972.786884","105740.000489","106505.788495","107255.612653","108022.637044","111905.776685","112672.44769","113439.370363","114205.974587","114972.281695","115739.673693","116505.807664","117255.806505","117265.528765","Mapping"
"Blocked","Male","done","24","M_park.wav","space","433.17020312","309","111156.33312","118022.534089","118788.967958","104972.786884","105740.000489","106505.788495","107255.612653","108022.637044","111905.776685","112672.44769","113439.370363","114205.974587","114972.281695","115739.673693","116505.807664","117255.806505","118032.248929","Mapping"
"Blocked","Male","done","24","M_gnash.wav","None","729.372968897","309","111156.33312","118022.534089","118788.967958","119555.837453","105740.000489","106505.788495","107255.612653","108022.637044","111905.776685","112672.44769","113439.370363","114205.974587","114972.281695","115739.673693","116505.807664","117255.806505","118798.509043","Mapping"
"Blocked","Male","done","24","M_done.wav","None","726.840530988","309","111156.33312","118022.534089","118788.967958","119555.837453","120322.452189","106505.788495","107255.612653","108022.637044","111905.776685","112672.44769","113439.370363","114205.974587","114972.281695","115739.673693","116505.807664","117255.806505","119565.248067","Mapping"
"Blocked","Male","done","24","M_park.wav","space","477.001069579","309","111156.33312","118022.534089","118788.967958","119555.837453","120322.452189","121089.613543","107255.612653","108022.637044","111905.776685","112672.44769","113439.370363","114205.974587","114972.281695","115739.673693","116505.807664","117255.806505","120332.37232","Mapping"
"Blocked","Male","done","24","M_done.wav","None","720.541436691","309","111156.33312","118022.534089","118788.967958","119555.837453","120322.452189","121089.613543","121838.510799","108022.637044","111905.776685","112672.44769","113439.370363","114205.974587","114972.281695","115739.673693","116505.807664","117255.806505","121099.285408","Mapping"
"Blocked","Male","done","24","M_jolt.wav","space","665.843132418","309","111156.33312","118022.534089","118788.967958","119555.837453","120322.452189","121089.613543","121838.510799","122605.782528","111905.776685","112672.44769","113439.370363","114205.974587","114972.281695","115739.673693","116505.807664","117255.806505","121847.479295","Mapping"
"Blocked","Male","cave","11","M_dime.wav","None","731.373937801","309","125739.160465","118022.534089","118788.967958","119555.837453","120322.452189","121089.613543","121838.510799","122605.782528","111905.776685","112672.44769","113439.370363","114205.974587","114972.281695","115739.673693","116505.807664","117255.806505","122616.469409","Mapping"
"Blocked","Male","cave","11","M_cave.wav","None","719.996982254","309","125739.160465","118022.534089","118788.967958","119555.837453","120322.452189","121089.613543","121838.510799","122605.782528","126488.587026","112672.44769","113439.370363","114205.974587","114972.281695","115739.673693","116505.807664","117255.806505","125748.750709","Mapping"
"Blocked","Male","cave","11","M_priest.wav","space","511.559830979","309","125739.160465","118022.534089","118788.967958","119555.837453","120322.452189","121089.613543","121838.510799","122605.782528","126488.587026","127255.362841","113439.370363","114205.974587","114972.281695","115739.673693","116505.807664","117255.806505","126497.719384","Mapping"
"Blocked","Male","cave","11","M_lash.wav","None","731.735052075","309","125739.160465","118022.534089","118788.967958","119555.837453","120322.452189","121089.613543","121838.510799","122605.782528","126488.587026","127255.362841","128022.323851","114205.974587","114972.281695","115739.673693","116505.807664","117255.806505","127264.772837","Mapping"
"Blocked","Male","cave","11","M_cave.wav","None","728.529544082","309","125739.160465","118022.534089","118788.967958","119555.837453","120322.452189","121089.613543","121838.510799","122605.782528","126488.587026","127255.362841","128022.323851","128789.028865","114972.281695","115739.673693","116505.807664","117255.806505","128032.133298","Mapping"
"Blocked","Male","cave","11","M_bluff.wav","space","626.332343556","309","125739.160465","118022.534089","118788.967958","119555.837453","120322.452189","121089.613543","121838.510799","122605.782528","126488.587026","127255.362841","128022.323851","128789.028865","129555.394099","115739.673693","116505.807664","117255.806505","128798.881597","Mapping"
"Blocked","Male","cave","11","M_reek.wav","None","723.572570831","309","125739.160465","118022.534089","118788.967958","119555.837453","120322.452189","121089.613543","121838.510799","122605.782528","126488.587026","127255.362841","128022.323851","128789.028865","129555.394099","130322.88905","116505.807664","117255.806505","129565.059471","Mapping"
"Blocked","Male","cave","11","M_jaw.wav","None","725.323418155","309","125739.160465","118022.534089","118788.967958","119555.837453","120322.452189","121089.613543","121838.510799","122605.782528","126488.587026","127255.362841","128022.323851","128789.028865","129555.394099","130322.88905","131088.837828","117255.806505","130327.984225","Mapping"
"Blocked","Male","cave","11","M_cave.wav","None","719.160359818","309","125739.160465","118022.534089","118788.967958","119555.837453","120322.452189","121089.613543","121838.510799","122605.782528","126488.587026","127255.362841","128022.323851","128789.028865","129555.394099","130322.88905","131088.837828","131838.541408","131098.752393","Mapping"
"Blocked","Male","cave","11","M_cling.wav","space","377.151111141","309","125739.160465","132605.181496","118788.967958","119555.837453","120322.452189","121089.613543","121838.510799","122605.782528","126488.587026","127255.362841","128022.323851","128789.028865","129555.394099","130322.88905","131088.837828","131838.541408","131848.04601","Mapping"
"Blocked","Male","cave","11","M_lash.wav","None","731.724849436","309","125739.160465","132605.181496","133371.85281","119555.837453","120322.452189","121089.613543","121838.510799","122605.782528","126488.587026","127255.362841","128022.323851","128789.028865","129555.394099","130322.88905","131088.837828","131838.541408","132614.254492","Mapping"
"Blocked","Male","cave","11","M_cave.wav","None","729.785406031","309","125739.160465","132605.181496","133371.85281","134138.663253","120322.452189","121089.613543","121838.510799","122605.782528","126488.587026","127255.362841","128022.323851","128789.028865","129555.394099","130322.88905","131088.837828","131838.541408","133381.06308","Mapping"
"Blocked","Male","cave","11","M_knife.wav","space","437.114635017","309","125739.160465","132605.181496","133371.85281","134138.663253","134905.904374","121089.613543","121838.510799","122605.782528","126488.587026","127255.362841","128022.323851","128789.028865","129555.394099","130322.88905","131088.837828","131838.541408","134148.009559","Mapping"
"Blocked","Male","cave","11","M_reek.wav","None","723.16909954","309","125739.160465","132605.181496","133371.85281","134138.663253","134905.904374","135672.549099","121838.510799","122605.782528","126488.587026","127255.362841","128022.323851","128789.028865","129555.394099","130322.88905","131088.837828","131838.541408","134915.514404","Mapping"
"Blocked","Male","cave","11","M_romp.wav","None","719.846724067","309","125739.160465","132605.181496","133371.85281","134138.663253","134905.904374","135672.549099","136422.122827","122605.782528","126488.587026","127255.362841","128022.323851","128789.028865","129555.394099","130322.88905","131088.837828","131838.541408","135683.169199","Mapping"
"Blocked","Male","cave","11","M_cling.wav","None","735.1238993","309","125739.160465","132605.181496","133371.85281","134138.663253","134905.904374","135672.549099","136422.122827","137188.885038","126488.587026","127255.362841","128022.323851","128789.028865","129555.394099","130322.88905","131088.837828","131838.541408","136432.013277","Mapping"
"Blocked","Male","ball","4","M_jaw.wav","None","732.770473231","309","140322.436112","132605.181496","133371.85281","134138.663253","134905.904374","135672.549099","136422.122827","137188.885038","126488.587026","127255.362841","128022.323851","128789.028865","129555.394099","130322.88905","131088.837828","131838.541408","137198.639143","Mapping"
"Blocked","Male","ball","4","M_bluff.wav","None","720.197944902","309","140322.436112","132605.181496","133371.85281","134138.663253","134905.904374","135672.549099","136422.122827","137188.885038","141071.470332","127255.362841","128022.323851","128789.028865","129555.394099","130322.88905","131088.837828","131838.541408","140332.519177","Mapping"
"Blocked","Male","ball","4","M_greet.wav","None","736.312670633","309","140322.436112","132605.181496","133371.85281","134138.663253","134905.904374","135672.549099","136422.122827","137188.885038","141071.470332","141838.513273","128022.323851","128789.028865","129555.394099","130322.88905","131088.837828","131838.541408","141080.89424","Mapping"
"Blocked","Male","ball","4","M_ball.wav","None","734.109811485","309","140322.436112","132605.181496","133371.85281","134138.663253","134905.904374","135672.549099","136422.122827","137188.885038","141071.470332","141838.513273","142604.98548","128789.028865","129555.394099","130322.88905","131088.837828","131838.541408","141847.497846","Mapping"
"Blocked","Male","ball","4","M_jaw.wav","space","298.930291552","309","140322.436112","132605.181496","133371.85281","134138.663253","134905.904374","135672.549099","136422.122827","137188.885038","141071.470332","141838.513273","142604.98548","143371.661432","129555.394099","130322.88905","131088.837828","131838.541408","142614.062805","Mapping"
"Blocked","Male","ball","4","M_ball.wav","None","730.137863196","309","140322.436112","132605.181496","133371.85281","134138.663253","134905.904374","135672.549099","136422.122827","137188.885038","141071.470332","141838.513273","142604.98548","143371.661432","144138.820931","130322.88905","131088.837828","131838.541408","143380.95085","Mapping"
"Blocked","Male","ball","4","M_romp.wav","space","603.923160583","309","140322.436112","132605.181496","133371.85281","134138.663253","134905.904374","135672.549099","136422.122827","137188.885038","141071.470332","141838.513273","142604.98548","143371.661432","144138.820931","144905.781941","131088.837828","131838.541408","144149.07466","Mapping"
"Blocked","Male","ball","4","M_ball.wav","None","727.951699402","309","140322.436112","132605.181496","133371.85281","134138.663253","134905.904374","135672.549099","136422.122827","137188.885038","141071.470332","141838.513273","142604.98548","143371.661432","144138.820931","144905.781941","145671.97311","131838.541408","144911.219061","Mapping"
"Blocked","Male","ball","4","M_romp.wav","space","399.720445275","309","140322.436112","132605.181496","133371.85281","134138.663253","134905.904374","135672.549099","136422.122827","137188.885038","141071.470332","141838.513273","142604.98548","143371.661432","144138.820931","144905.781941","145671.97311","146421.47078","145681.218625","Mapping"
"Blocked","Male","ball","4","M_depth.wav","None","736.346988939","309","140322.436112","147188.210731","133371.85281","134138.663253","134905.904374","135672.549099","136422.122827","137188.885038","141071.470332","141838.513273","142604.98548","143371.661432","144138.820931","144905.781941","145671.97311","146421.47078","146430.814922","Mapping"
"Blocked","Male","ball","4","M_ball.wav","None","733.702321071","309","140322.436112","147188.210731","147955.335603","134138.663253","134905.904374","135672.549099","136422.122827","137188.885038","141071.470332","141838.513273","142604.98548","143371.661432","144138.820931","144905.781941","145671.97311","146421.47078","147197.878886","Mapping"
"Blocked","Male","ball","4","M_knife.wav","space","340.019100811","309","140322.436112","147188.210731","147955.335603","148721.980947","134905.904374","135672.549099","136422.122827","137188.885038","141071.470332","141838.513273","142604.98548","143371.661432","144138.820931","144905.781941","145671.97311","146421.47078","147964.891837","Mapping"
"Blocked","Male","ball","4","M_priest.wav","None","728.06733055","309","140322.436112","147188.210731","147955.335603","148721.980947","149488.796027","135672.549099","136422.122827","137188.885038","141071.470332","141838.513273","142604.98548","143371.661432","144138.820931","144905.781941","145671.97311","146421.47078","148731.427116","Mapping"
"Blocked","Male","ball","4","M_depth.wav","None","725.024448242","309","140322.436112","147188.210731","147955.335603","148721.980947","149488.796027","150255.608016","136422.122827","137188.885038","141071.470332","141838.513273","142604.98548","143371.661432","144138.820931","144905.781941","145671.97311","146421.47078","149498.85374","Mapping"
"Blocked","Male","ball","4","M_greet.wav","None","721.89870663","309","140322.436112","147188.210731","147955.335603","148721.980947","149488.796027","150255.608016","151021.930274","137188.885038","141071.470332","141838.513273","142604.98548","143371.661432","144138.820931","144905.781941","145671.97311","146421.47078","150266.349002","Mapping"
"Blocked","Male","ball","4","M_gnash.wav","None","721.494617406","309","140322.436112","147188.210731","147955.335603","148721.980947","149488.796027","150255.608016","151021.930274","151772.29703","141071.470332","141838.513273","142604.98548","143371.661432","144138.820931","144905.781941","145671.97311","146421.47078","151031.349544","Mapping"
"Blocked","Male","cave","9","M_jolt.wav","None","735.2324198","309","154905.440923","147188.210731","147955.335603","148721.980947","149488.796027","150255.608016","151021.930274","151772.29703","141071.470332","141838.513273","142604.98548","143371.661432","144138.820931","144905.781941","145671.97311","146421.47078","151782.017745","Mapping"
"Blocked","Male","cave","9","M_priest.wav","None","719.403679017","309","154905.440923","147188.210731","147955.335603","148721.980947","149488.796027","150255.608016","151021.930274","151772.29703","155655.095963","141838.513273","142604.98548","143371.661432","144138.820931","144905.781941","145671.97311","146421.47078","154915.762052","Mapping"
"Blocked","Male","cave","9","M_cave.wav","None","734.814726282","309","154905.440923","147188.210731","147955.335603","148721.980947","149488.796027","150255.608016","151021.930274","151772.29703","155655.095963","156421.94969","142604.98548","143371.661432","144138.820931","144905.781941","145671.97311","146421.47078","155664.650961","Mapping"
"Blocked","Male","cave","9","M_knife.wav","space","369.25297277","309","154905.440923","147188.210731","147955.335603","148721.980947","149488.796027","150255.608016","151021.930274","151772.29703","155655.095963","156421.94969","157188.535363","143371.661432","144138.820931","144905.781941","145671.97311","146421.47078","156431.453055","Mapping"
"Blocked","Male","cave","9","M_cave.wav","None","729.635457043","309","154905.440923","147188.210731","147955.335603","148721.980947","149488.796027","150255.608016","151021.930274","151772.29703","155655.095963","156421.94969","157188.535363","157955.135877","144138.820931","144905.781941","145671.97311","146421.47078","157198.113549","Mapping"
"Blocked","Male","cave","9","M_cling.wav","space","460.013857577","309","154905.440923","147188.210731","147955.335603","148721.980947","149488.796027","150255.608016","151021.930274","151772.29703","155655.095963","156421.94969","157188.535363","157955.135877","158722.290738","144905.781941","145671.97311","146421.47078","157964.68902","Mapping"
"Blocked","Male","cave","9","M_depth.wav","None","723.587101791","309","154905.440923","147188.210731","147955.335603","148721.980947","149488.796027","150255.608016","151021.930274","151772.29703","155655.095963","156421.94969","157188.535363","157955.135877","158722.290738","159488.666174","145671.97311","146421.47078","158732.018873","Mapping"
"Blocked","Male","cave","9","M_cling.wav","None","721.014780458","309","154905.440923","147188.210731","147955.335603","148721.980947","149488.796027","150255.608016","151021.930274","151772.29703","155655.095963","156421.94969","157188.535363","157955.135877","158722.290738","159488.666174","160255.541543","146421.47078","159498.995342","Mapping"
"Blocked","Male","cave","9","M_cave.wav","None","718.428237829","309","154905.440923","147188.210731","147955.335603","148721.980947","149488.796027","150255.608016","151021.930274","151772.29703","155655.095963","156421.94969","157188.535363","157955.135877","158722.290738","159488.666174","160255.541543","161005.036431","160265.996853","Mapping"
"Blocked","Male","cave","9","M_priest.wav","space","362.043053377","309","154905.440923","161771.479886","147955.335603","148721.980947","149488.796027","150255.608016","151021.930274","151772.29703","155655.095963","156421.94969","157188.535363","157955.135877","158722.290738","159488.666174","160255.541543","161005.036431","161014.597304","Mapping"
"Blocked","Male","cave","9","M_priest.wav","None","731.978989672","309","154905.440923","161771.479886","162538.30826","148721.980947","149488.796027","150255.608016","151021.930274","151772.29703","155655.095963","156421.94969","157188.535363","157955.135877","158722.290738","159488.666174","160255.541543","161005.036431","161780.616263","Mapping"
"Blocked","Male","cave","9","M_jolt.wav","None","728.583340533","309","154905.440923","161771.479886","162538.30826","163304.610113","149488.796027","150255.608016","151021.930274","151772.29703","155655.095963","156421.94969","157188.535363","157955.135877","158722.290738","159488.666174","160255.541543","161005.036431","162548.386688","Mapping"
"Blocked","Male","cave","9","M_cave.wav","None","727.341082878","309","154905.440923","161771.479886","162538.30826","163304.610113","164071.274626","150255.608016","151021.930274","151772.29703","155655.095963","156421.94969","157188.535363","157955.135877","158722.290738","159488.666174","160255.541543","161005.036431","163314.242713","Mapping"
"Blocked","Male","cave","9","M_greet.wav","space","592.012262903","309","154905.440923","161771.479886","162538.30826","163304.610113","164071.274626","164838.305817","151021.930274","151772.29703","155655.095963","156421.94969","157188.535363","157955.135877","158722.290738","159488.666174","160255.541543","161005.036431","164080.574246","Mapping"
"Blocked","Male","cave","9","M_cad.wav","None","721.958376933","309","154905.440923","161771.479886","162538.30826","163304.610113","164071.274626","164838.305817","165605.772635","151772.29703","155655.095963","156421.94969","157188.535363","157955.135877","158722.290738","159488.666174","160255.541543","161005.036431","164847.644703","Mapping"
"Blocked","Male","cave","9","M_priest.wav","None","718.384026084","309","154905.440923","161771.479886","162538.30826","163304.610113","164071.274626","164838.305817","165605.772635","166354.897134","155655.095963","156421.94969","157188.535363","157955.135877","158722.290738","159488.666174","160255.541543","161005.036431","165615.842097","Mapping"
"Blocked","Male","ball","5","M_priest.wav","None","734.285421669","309","169488.71997","161771.479886","162538.30826","163304.610113","164071.274626","164838.305817","165605.772635","166354.897134","155655.095963","156421.94969","157188.535363","157955.135877","158722.290738","159488.666174","160255.541543","161005.036431","166364.488305","Mapping"
"Blocked","Male","ball","5","M_ball.wav","None","719.817971345","309","169488.71997","161771.479886","162538.30826","163304.610113","164071.274626","164838.305817","165605.772635","166354.897134","170237.975559","156421.94969","157188.535363","157955.135877","158722.290738","159488.666174","160255.541543","161005.036431","169499.39603","Mapping"
"Blocked","Male","ball","5","M_reek.wav","space","376.991887111","309","169488.71997","161771.479886","162538.30826","163304.610113","164071.274626","164838.305817","165605.772635","166354.897134","170237.975559","171005.010152","157188.535363","157955.135877","158722.290738","159488.666174","160255.541543","161005.036431","170247.470886","Mapping"
"Blocked","Male","ball","5","M_ball.wav","None","732.962779235","309","169488.71997","161771.479886","162538.30826","163304.610113","164071.274626","164838.305817","165605.772635","166354.897134","170237.975559","171005.010152","171771.580367","157955.135877","158722.290738","159488.666174","160255.541543","161005.036431","171014.572879","Mapping"
"Blocked","Male","ball","5","M_knife.wav","space","515.254760627","309","169488.71997","161771.479886","162538.30826","163304.610113","164071.274626","164838.305817","165605.772635","166354.897134","170237.975559","171005.010152","171771.580367","172537.864906","158722.290738","159488.666174","160255.541543","161005.036431","171781.183905","Mapping"
"Blocked","Male","ball","5","M_reek.wav","None","728.821403813","309","169488.71997","161771.479886","162538.30826","163304.610113","164071.274626","164838.305817","165605.772635","166354.897134","170237.975559","171005.010152","171771.580367","172537.864906","173304.46171","159488.666174","160255.541543","161005.036431","172546.972839","Mapping"
"Blocked","Male","ball","5","M_dime.wav","None","726.302570198","309","169488.71997","161771.479886","162538.30826","163304.610113","164071.274626","164838.305817","165605.772635","166354.897134","170237.975559","171005.010152","171771.580367","172537.864906","173304.46171","174071.103034","160255.541543","161005.036431","173314.071122","Mapping"
"Blocked","Male","ball","5","M_jaw.wav","None","725.090920459","309","169488.71997","161771.479886","162538.30826","163304.610113","164071.274626","164838.305817","165605.772635","166354.897134","170237.975559","171005.010152","171771.580367","172537.864906","173304.46171","174071.103034","174837.973766","161005.036431","174080.238484","Mapping"
"Blocked","Male","ball","5","M_ball.wav","None","722.606404219","309","169488.71997","161771.479886","162538.30826","163304.610113","164071.274626","164838.305817","165605.772635","166354.897134","170237.975559","171005.010152","171771.580367","172537.864906","173304.46171","174071.103034","174837.973766","175604.468233","174847.221136","Mapping"
"Blocked","Male","ball","5","M_cad.wav","space","250.737919006","309","169488.71997","176354.361336","162538.30826","163304.610113","164071.274626","164838.305817","165605.772635","166354.897134","170237.975559","171005.010152","171771.580367","172537.864906","173304.46171","174071.103034","174837.973766","175604.468233","175613.634291","Mapping"
"Blocked","Male","ball","5","M_ball.wav","None","734.226060566","309","169488.71997","176354.361336","177120.992458","163304.610113","164071.274626","164838.305817","165605.772635","166354.897134","170237.975559","171005.010152","171771.580367","172537.864906","173304.46171","174071.103034","174837.973766","175604.468233","176363.744125","Mapping"
"Blocked","Male","ball","5","M_priest.wav","space","301.877948921","309","169488.71997","176354.361336","177120.992458","177887.675212","164071.274626","164838.305817","165605.772635","166354.897134","170237.975559","171005.010152","171771.580367","172537.864906","173304.46171","174071.103034","174837.973766","175604.468233","177130.475419","Mapping"
"Blocked","Male","ball","5","M_park.wav","None","729.390901048","309","169488.71997","176354.361336","177120.992458","177887.675212","178654.280055","164838.305817","165605.772635","166354.897134","170237.975559","171005.010152","171771.580367","172537.864906","173304.46171","174071.103034","174837.973766","175604.468233","177896.876825","Mapping"
"Blocked","Male","ball","5","M_priest.wav","None","727.592131589","309","169488.71997","176354.361336","177120.992458","177887.675212","178654.280055","179421.392869","165605.772635","166354.897134","170237.975559","171005.010152","171771.580367","172537.864906","173304.46171","174071.103034","174837.973766","175604.468233","178663.261536","Mapping"
"Blocked","Male","ball","5","M_jaw.wav","None","724.722694606","309","169488.71997","176354.361336","177120.992458","177887.675212","178654.280055","179421.392869","180187.830448","166354.897134","170237.975559","171005.010152","171771.580367","172537.864906","173304.46171","174071.103034","174837.973766","175604.468233","179430.800082","Mapping"
"Blocked","Male","ball","5","M_park.wav","None","722.317945678","309","169488.71997","176354.361336","177120.992458","177887.675212","178654.280055","179421.392869","180187.830448","180955.411969","170237.975559","171005.010152","171771.580367","172537.864906","173304.46171","174071.103034","174837.973766","175604.468233","180197.827564","Mapping"
"Blocked","Male","cave","7","M_reek.wav","None","719.206117559","309","184071.753225","176354.361336","177120.992458","177887.675212","178654.280055","179421.392869","180187.830448","180955.411969","170237.975559","171005.010152","171771.580367","172537.864906","173304.46171","174071.103034","174837.973766","175604.468233","180965.660133","Mapping"
"Blocked","Male","cave","7","M_dime.wav","None","719.039782416","309","184071.753225","176354.361336","177120.992458","177887.675212","178654.280055","179421.392869","180187.830448","180955.411969","184820.746944","171005.010152","171771.580367","172537.864906","173304.46171","174071.103034","174837.973766","175604.468233","184082.83523","Mapping"
"Blocked","Male","cave","7","M_gnash.wav","None","736.703465227","309","184071.753225","176354.361336","177120.992458","177887.675212","178654.280055","179421.392869","180187.830448","180955.411969","184820.746944","185588.084218","171771.580367","172537.864906","173304.46171","174071.103034","174837.973766","175604.468233","184829.857042","Mapping"
"Blocked","Male","cave","7","M_knife.wav","None","733.331931755","309","184071.753225","176354.361336","177120.992458","177887.675212","178654.280055","179421.392869","180187.830448","180955.411969","184820.746944","185588.084218","186354.631863","172537.864906","173304.46171","174071.103034","174837.973766","175604.468233","185597.738769","Mapping"
"Blocked","Male","cave","7","M_cave.wav","None","731.725777034","309","184071.753225","176354.361336","177120.992458","177887.675212","178654.280055","179421.392869","180187.830448","180955.411969","184820.746944","185588.084218","186354.631863","187120.728116","173304.46171","174071.103034","174837.973766","175604.468233","186363.940759","Mapping"
"Blocked","Male","cave","7","M_park.wav","space","670.320887584","309","184071.753225","176354.361336","177120.992458","177887.675212","178654.280055","179421.392869","180187.830448","180955.411969","184820.746944","185588.084218","186354.631863","187120.728116","187887.943884","174071.103034","174837.973766","175604.468233","187129.854908","Mapping"
"Blocked","Male","cave","7","M_gnash.wav","None","727.982616983","309","184071.753225","176354.361336","177120.992458","177887.675212","178654.280055","179421.392869","180187.830448","180955.411969","184820.746944","185588.084218","186354.631863","187120.728116","187887.943884","188654.135053","174837.973766","175604.468233","187897.785176","Mapping"
"Blocked","Male","cave","7","M_cling.wav","None","727.787219919","309","184071.753225","176354.361336","177120.992458","177887.675212","178654.280055","179421.392869","180187.830448","180955.411969","184820.746944","185588.084218","186354.631863","187120.728116","187887.943884","188654.135053","189420.827391","175604.468233","188663.139413","Mapping"
"Blocked","Male","cave","7","M_cave.wav","None","725.724725053","309","184071.753225","176354.361336","177120.992458","177887.675212","178654.280055","179421.392869","180187.830448","180955.411969","184820.746944","185588.084218","186354.631863","187120.728116","187887.943884","188654.135053","189420.827391","190188.452814","189430.071051","Mapping"
"Blocked","Male","cave","7","M_romp.wav","space","337.267149705","309","184071.753225","190954.311621","177120.992458","177887.675212","178654.280055","179421.392869","180187.830448","180955.411969","184820.746944","185588.084218","186354.631863","187120.728116","187887.943884","188654.135053","189420.827391","190188.452814","190198.85371","Mapping"
"Blocked","Male","cave","7","M_cave.wav","None","720.668815542","309","184071.753225","190954.311621","191704.044882","177887.675212","178654.280055","179421.392869","180187.830448","180955.411969","184820.746944","185588.084218","186354.631863","187120.728116","187887.943884","188654.135053","189420.827391","190188.452814","190963.42512","Mapping"
"Blocked","Male","cave","7","M_park.wav","space","439.15826967","309","184071.753225","190954.311621","191704.044882","192471.191705","178654.280055","179421.392869","180187.830448","180955.411969","184820.746944","185588.084218","186354.631863","187120.728116","187887.943884","188654.135053","189420.827391","190188.452814","191712.913206","Mapping"
"Blocked","Male","cave","7","M_jolt.wav","None","731.32323334","309","184071.753225","190954.311621","191704.044882","192471.191705","193237.994728","179421.392869","180187.830448","180955.411969","184820.746944","185588.084218","186354.631863","187120.728116","187887.943884","188654.135053","189420.827391","190188.452814","192481.034234","Mapping"
"Blocked","Male","cave","7","M_cave.wav","None","728.967952076","309","184071.753225","190954.311621","191704.044882","192471.191705","193237.994728","194004.553503","180187.830448","180955.411969","184820.746944","185588.084218","186354.631863","187120.728116","187887.943884","188654.135053","189420.827391","190188.452814","193247.832","Mapping"
"Blocked","Male","cave","7","M_gnash.wav","space","489.873804618","309","184071.753225","190954.311621","191704.044882","192471.191705","193237.994728","194004.553503","194770.741889","180955.411969","184820.746944","185588.084218","186354.631863","187120.728116","187887.943884","188654.135053","189420.827391","190188.452814","194014.191668","Mapping"
"Blocked","Male","cave","7","M_jolt.wav","None","725.077316631","309","184071.753225","190954.311621","191704.044882","192471.191705","193237.994728","194004.553503","194770.741889","195538.158002","184820.746944","185588.084218","186354.631863","187120.728116","187887.943884","188654.135053","189420.827391","190188.452814","194779.902382","Mapping"
"Blocked","Male","done","21","M_reek.wav","None","720.896676648","309","198654.755254","190954.311621","191704.044882","192471.191705","193237.994728","194004.553503","194770.741889","195538.158002","184820.746944","185588.084218","186354.631863","187120.728116","187887.943884","188654.135053","189420.827391","190188.452814","195548.73729","Mapping"
"Blocked","Male","done","21","M_reek.wav","None","719.893100206","309","198654.755254","190954.311621","191704.044882","192471.191705","193237.994728","194004.553503","194770.741889","195538.158002","199404.243649","185588.084218","186354.631863","187120.728116","187887.943884","188654.135053","189420.827391","190188.452814","198664.691462","Mapping"
"Blocked","Male","done","21","M_done.wav","None","735.745028593","309","198654.755254","190954.311621","191704.044882","192471.191705","193237.994728","194004.553503","194770.741889","195538.158002","199404.243649","200171.132931","186354.631863","187120.728116","187887.943884","188654.135053","189420.827391","190188.452814","199413.6555","Mapping"
"Blocked","Male","done","21","M_lash.wav","space","435.233007185","309","198654.755254","190954.311621","191704.044882","192471.191705","193237.994728","194004.553503","194770.741889","195538.158002","199404.243649","200171.132931","200937.31668","187120.728116","187887.943884","188654.135053","189420.827391","190188.452814","200180.736469","Mapping"
"Blocked","Male","done","21","M_done.wav","None","730.740132742","309","198654.755254","190954.311621","191704.044882","192471.191705","193237.994728","194004.553503","194770.741889","195538.158002","199404.243649","200171.132931","200937.31668","201703.912865","187887.943884","188654.135053","189420.827391","190188.452814","200946.796549","Mapping"
"Blocked","Male","done","21","M_lash.wav","space","406.989725772","309","198654.755254","190954.311621","191704.044882","192471.191705","193237.994728","194004.553503","194770.741889","195538.158002","199404.243649","200171.132931","200937.31668","201703.912865","202470.64014","188654.135053","189420.827391","190188.452814","201712.924027","Mapping"
"Blocked","Male","done","21","M_cad.wav","None","725.862925407","309","198654.755254","190954.311621","191704.044882","192471.191705","193237.994728","194004.553503","194770.741889","195538.158002","199404.243649","200171.132931","200937.31668","201703.912865","202470.64014","203237.419665","189420.827391","190188.452814","202479.965113","Mapping"
"Blocked","Male","done","21","M_done.wav","None","723.824237473","309","198654.755254","190954.311621","191704.044882","192471.191705","193237.994728","194004.553503","194770.741889","195538.158002","199404.243649","200171.132931","200937.31668","201703.912865","202470.64014","203237.419665","204004.757558","190188.452814","203246.90479","Mapping"
"Blocked","Male","done","21","M_knife.wav","space","417.454929557","309","198654.755254","190954.311621","191704.044882","192471.191705","193237.994728","194004.553503","194770.741889","195538.158002","199404.243649","200171.132931","200937.31668","201703.912865","202470.64014","203237.419665","204004.757558","204754.125375","204014.405616","Mapping"
"Blocked","Male","done","21","M_cling.wav","None","735.60806457","309","198654.755254","205520.698373","191704.044882","192471.191705","193237.994728","194004.553503","194770.741889","195538.158002","199404.243649","200171.132931","200937.31668","201703.912865","202470.64014","203237.419665","204004.757558","204754.125375","204763.552376","Mapping"
"Blocked","Male","done","21","M_reek.wav","None","733.911013231","309","198654.755254","205520.698373","206287.754918","192471.191705","193237.994728","194004.553503","194770.741889","195538.158002","199404.243649","200171.132931","200937.31668","201703.912865","202470.64014","203237.419665","204004.757558","204754.125375","205529.910807","Mapping"
"Blocked","Male","done","21","M_priest.wav","None","730.927491561","309","198654.755254","205520.698373","206287.754918","207053.955052","193237.994728","194004.553503","194770.741889","195538.158002","199404.243649","200171.132931","200937.31668","201703.912865","202470.64014","203237.419665","204004.757558","204754.125375","206297.545505","Mapping"
"Blocked","Male","done","21","M_done.wav","None","730.415191501","309","198654.755254","205520.698373","206287.754918","207053.955052","207820.726848","194004.553503","194770.741889","195538.158002","199404.243649","200171.132931","200937.31668","201703.912865","202470.64014","203237.419665","204004.757558","204754.125375","207062.956939","Mapping"
"Blocked","Male","done","21","M_bluff.wav","space","441.6103228","309","198654.755254","205520.698373","206287.754918","207053.955052","207820.726848","208587.680438","194770.741889","195538.158002","199404.243649","200171.132931","200937.31668","201703.912865","202470.64014","203237.419665","204004.757558","204754.125375","207830.227122","Mapping"
"Blocked","Male","done","21","M_park.wav","None","724.362817593","309","198654.755254","205520.698373","206287.754918","207053.955052","207820.726848","208587.680438","209354.6331","195538.158002","199404.243649","200171.132931","200937.31668","201703.912865","202470.64014","203237.419665","204004.757558","204754.125375","208597.512145","Mapping"
"Blocked","Male","done","21","M_bluff.wav","None","721.486579161","309","198654.755254","205520.698373","206287.754918","207053.955052","207820.726848","208587.680438","209354.6331","210120.632272","199404.243649","200171.132931","200937.31668","201703.912865","202470.64014","203237.419665","204004.757558","204754.125375","209365.114999","Mapping"
"Blocked","Male","tile","13","M_park.wav","None","721.285925712","309","213238.009568","205520.698373","206287.754918","207053.955052","207820.726848","208587.680438","209354.6331","210120.632272","199404.243649","200171.132931","200937.31668","201703.912865","202470.64014","203237.419665","204004.757558","204754.125375","210130.166864","Mapping"
"Blocked","Male","tile","13","M_cling.wav","None","720.260089263","309","213238.009568","205520.698373","206287.754918","207053.955052","207820.726848","208587.680438","209354.6331","210120.632272","214004.520731","200171.132931","200937.31668","201703.912865","202470.64014","203237.419665","204004.757558","204754.125375","213248.10871","Mapping"
"Blocked","Male","tile","13","M_tile.wav","None","718.767400831","309","213238.009568","205520.698373","206287.754918","207053.955052","207820.726848","208587.680438","209354.6331","210120.632272","214004.520731","214754.040662","200937.31668","201703.912865","202470.64014","203237.419665","204004.757558","204754.125375","214014.60596","Mapping"
"Blocked","Male","tile","13","M_priest.wav","space","372.035531327","309","213238.009568","205520.698373","206287.754918","207053.955052","207820.726848","208587.680438","209354.6331","210120.632272","214004.520731","214754.040662","215520.701774","201703.912865","202470.64014","203237.419665","204004.757558","204754.125375","214763.645127","Mapping"
"Blocked","Male","tile","13","M_tile.wav","None","731.727322564","309","213238.009568","205520.698373","206287.754918","207053.955052","207820.726848","208587.680438","209354.6331","210120.632272","214004.520731","214754.040662","215520.701774","216287.003627","202470.64014","203237.419665","204004.757558","204754.125375","215530.375185","Mapping"
"Blocked","Male","tile","13","M_bluff.wav","space","351.16881365","309","213238.009568","205520.698373","206287.754918","207053.955052","207820.726848","208587.680438","209354.6331","210120.632272","214004.520731","214754.040662","215520.701774","216287.003627","217053.669994","203237.419665","204004.757558","204754.125375","216296.509775","Mapping"
"Blocked","Male","tile","13","M_tile.wav","None","728.09546534","309","213238.009568","205520.698373","206287.754918","207053.955052","207820.726848","208587.680438","209354.6331","210120.632272","214004.520731","214754.040662","215520.701774","216287.003627","217053.669994","217820.302353","204004.757558","204754.125375","217062.653949","Mapping"
"Blocked","Male","tile","13","M_bluff.wav","space","314.053498674","309","213238.009568","205520.698373","206287.754918","207053.955052","207820.726848","208587.680438","209354.6331","210120.632272","214004.520731","214754.040662","215520.701774","216287.003627","217053.669994","217820.302353","218588.021146","204754.125375","217829.530246","Mapping"
"Blocked","Male","tile","13","M_cad.wav","None","721.849238966","309","213238.009568","205520.698373","206287.754918","207053.955052","207820.726848","208587.680438","209354.6331","210120.632272","214004.520731","214754.040662","215520.701774","216287.003627","217053.669994","217820.302353","218588.021146","219353.796168","218598.075768","Mapping"
"Blocked","Male","tile","13","M_tile.wav","None","722.073698882","309","213238.009568","220120.551577","206287.754918","207053.955052","207820.726848","208587.680438","209354.6331","210120.632272","214004.520731","214754.040662","215520.701774","216287.003627","217053.669994","217820.302353","218588.021146","219353.796168","219363.009529","Mapping"
"Blocked","Male","tile","13","M_lash.wav","space","373.623445164","309","213238.009568","220120.551577","220870.42613","207053.955052","207820.726848","208587.680438","209354.6331","210120.632272","214004.520731","214754.040662","215520.701774","216287.003627","217053.669994","217820.302353","218588.021146","219353.796168","220129.930965","Mapping"
"Blocked","Male","tile","13","M_lash.wav","None","733.908848837","309","213238.009568","220120.551577","220870.42613","221637.320977","207820.726848","208587.680438","209354.6331","210120.632272","214004.520731","214754.040662","215520.701774","216287.003627","217053.669994","217820.302353","218588.021146","219353.796168","220879.701636","Mapping"
"Blocked","Male","tile","13","M_park.wav","None","731.009422801","309","213238.009568","220120.551577","220870.42613","221637.320977","222404.00033","208587.680438","209354.6331","210120.632272","214004.520731","214754.040662","215520.701774","216287.003627","217053.669994","217820.302353","218588.021146","219353.796168","221647.462477","Mapping"
"Blocked","Male","tile","13","M_lash.wav","None","729.872592725","309","213238.009568","220120.551577","220870.42613","221637.320977","222404.00033","223170.344849","209354.6331","210120.632272","214004.520731","214754.040662","215520.701774","216287.003627","217053.669994","217820.302353","218588.021146","219353.796168","222413.575115","Mapping"
"Blocked","Male","tile","13","M_bluff.wav","None","728.332291823","309","213238.009568","220120.551577","220870.42613","221637.320977","222404.00033","223170.344849","223937.379442","210120.632272","214004.520731","214754.040662","215520.701774","216287.003627","217053.669994","217820.302353","218588.021146","219353.796168","223179.933856","Mapping"
"Blocked","Male","tile","13","M_park.wav","None","726.465504151","309","213238.009568","220120.551577","220870.42613","221637.320977","222404.00033","223170.344849","223937.379442","224703.906991","214004.520731","214754.040662","215520.701774","216287.003627","217053.669994","217820.302353","218588.021146","219353.796168","223946.790056","Mapping"
"Blocked","Male","done","20","M_jolt.wav","None","724.765979219","309","227820.984698","220120.551577","220870.42613","221637.320977","222404.00033","223170.344849","223937.379442","224703.906991","214004.520731","214754.040662","215520.701774","216287.003627","217053.669994","217820.302353","218588.021146","219353.796168","224713.372947","Mapping"
"Blocked","Male","done","20","M_done.wav","None","719.629993662","309","227820.984698","220120.551577","220870.42613","221637.320977","222404.00033","223170.344849","223937.379442","224703.906991","228587.711973","214754.040662","215520.701774","216287.003627","217053.669994","217820.302353","218588.021146","219353.796168","227831.485766","Mapping"
"Blocked","Male","done","20","M_reek.wav","space","377.331359312","309","227820.984698","220120.551577","220870.42613","221637.320977","222404.00033","223170.344849","223937.379442","224703.906991","228587.711973","229337.280754","215520.701774","216287.003627","217053.669994","217820.302353","218588.021146","219353.796168","228598.087517","Mapping"
"Blocked","Male","done","20","M_done.wav","None","732.592698652","309","227820.984698","220120.551577","220870.42613","221637.320977","222404.00033","223170.344849","223937.379442","224703.906991","228587.711973","229337.280754","230103.862408","216287.003627","217053.669994","217820.302353","218588.021146","219353.796168","229347.18017","Mapping"
"Blocked","Male","done","20","M_lash.wav","space","341.981113888","309","227820.984698","220120.551577","220870.42613","221637.320977","222404.00033","223170.344849","223937.379442","224703.906991","228587.711973","229337.280754","230103.862408","230870.522593","217053.669994","217820.302353","218588.021146","219353.796168","230113.433174","Mapping"
"Blocked","Male","done","20","M_knife.wav","None","728.046615608","309","227820.984698","220120.551577","220870.42613","221637.320977","222404.00033","223170.344849","223937.379442","224703.906991","228587.711973","229337.280754","230103.862408","230870.522593","231637.258833","217820.302353","218588.021146","219353.796168","230880.09645","Mapping"
"Blocked","Male","done","20","M_cling.wav","None","726.670176722","309","227820.984698","220120.551577","220870.42613","221637.320977","222404.00033","223170.344849","223937.379442","224703.906991","228587.711973","229337.280754","230103.862408","230870.522593","231637.258833","232403.859966","218588.021146","219353.796168","231646.449625","Mapping"
"Blocked","Male","done","20","M_done.wav","None","724.411048461","309","227820.984698","220120.551577","220870.42613","221637.320977","222404.00033","223170.344849","223937.379442","224703.906991","228587.711973","229337.280754","230103.862408","230870.522593","231637.258833","232403.859966","233170.226745","219353.796168","232413.618399","Mapping"
"Blocked","Male","done","20","M_gnash.wav","space","395.929363556","309","227820.984698","220120.551577","220870.42613","221637.320977","222404.00033","223170.344849","223937.379442","224703.906991","228587.711973","229337.280754","230103.862408","230870.522593","231637.258833","232403.859966","233170.226745","233936.827259","233179.443198","Mapping"
"Blocked","Male","done","20","M_jolt.wav","None","721.292109229","309","227820.984698","234686.701502","220870.42613","221637.320977","222404.00033","223170.344849","223937.379442","224703.906991","228587.711973","229337.280754","230103.862408","230870.522593","231637.258833","232403.859966","233170.226745","233936.827259","233946.043712","Mapping"
"Blocked","Male","done","20","M_done.wav","None","736.28577264","309","227820.984698","234686.701502","235453.221013","221637.320977","222404.00033","223170.344849","223937.379442","224703.906991","228587.711973","229337.280754","230103.862408","230870.522593","231637.258833","232403.859966","233170.226745","233936.827259","234696.060175","Mapping"
"Blocked","Male","done","20","M_lash.wav","space","576.498570386","309","227820.984698","234686.701502","235453.221013","236220.095763","222404.00033","223170.344849","223937.379442","224703.906991","228587.711973","229337.280754","230103.862408","230870.522593","231637.258833","232403.859966","233170.226745","233936.827259","235462.834444","Mapping"
"Blocked","Male","done","20","M_park.wav","None","731.166792102","309","227820.984698","234686.701502","235453.221013","236220.095763","236987.148907","223170.344849","223937.379442","224703.906991","228587.711973","229337.280754","230103.862408","230870.522593","231637.258833","232403.859966","233170.226745","233936.827259","236229.562028","Mapping"
"Blocked","Male","done","20","M_dime.wav","None","728.659396991","309","227820.984698","234686.701502","235453.221013","236220.095763","236987.148907","237753.684495","223937.379442","224703.906991","228587.711973","229337.280754","230103.862408","230870.522593","231637.258833","232403.859966","233170.226745","233936.827259","236996.933311","Mapping"
"Blocked","Male","done","20","M_romp.wav","None","727.433525492","309","227820.984698","234686.701502","235453.221013","236220.095763","236987.148907","237753.684495","238520.316853","224703.906991","228587.711973","229337.280754","230103.862408","230870.522593","231637.258833","232403.859966","233170.226745","233936.827259","237763.170856","Mapping"
"Blocked","Male","done","20","M_romp.wav","None","725.378451403","309","227820.984698","234686.701502","235453.221013","236220.095763","236987.148907","237753.684495","238520.316853","239287.516545","228587.711973","229337.280754","230103.862408","230870.522593","231637.258833","232403.859966","233170.226745","233936.827259","238530.040041","Mapping"
"Blocked","Male","ball","3","M_greet.wav","None","722.999363206","309","242404.152134","234686.701502","235453.221013","236220.095763","236987.148907","237753.684495","238520.316853","239287.516545","228587.711973","229337.280754","230103.862408","230870.522593","231637.258833","232403.859966","233170.226745","233936.827259","239297.804901","Mapping"
"Blocked","Male","ball","3","M_dime.wav","None","719.75551825","309","242404.152134","234686.701502","235453.221013","236220.095763","236987.148907","237753.684495","238520.316853","239287.516545","243153.694017","229337.280754","230103.862408","230870.522593","231637.258833","232403.859966","233170.226745","233936.827259","242414.076285","Mapping"
"Blocked","Male","ball","3","M_romp.wav","None","735.265191644","309","242404.152134","234686.701502","235453.221013","236220.095763","236987.148907","237753.684495","238520.316853","239287.516545","243153.694017","243920.242281","230103.862408","230870.522593","231637.258833","232403.859966","233170.226745","233936.827259","243163.504392","Mapping"
"Blocked","Male","ball","3","M_romp.wav","None","734.083841089","309","242404.152134","234686.701502","235453.221013","236220.095763","236987.148907","237753.684495","238520.316853","239287.516545","243153.694017","243920.242281","244687.010985","230870.522593","231637.258833","232403.859966","233170.226745","233936.827259","243930.164885","Mapping"
"Blocked","Male","ball","3","M_ball.wav","None","732.658861671","309","242404.152134","234686.701502","235453.221013","236220.095763","236987.148907","237753.684495","238520.316853","239287.516545","243153.694017","243920.242281","244687.010985","245453.100745","231637.258833","232403.859966","233170.226745","233936.827259","244696.651005","Mapping"
"Blocked","Male","ball","3","M_gnash.wav","space","400.513784029","309","242404.152134","234686.701502","235453.221013","236220.095763","236987.148907","237753.684495","238520.316853","239287.516545","243153.694017","243920.242281","244687.010985","245453.100745","246219.841932","232403.859966","233170.226745","233936.827259","245462.611221","Mapping"
"Blocked","Male","ball","3","M_ball.wav","None","729.012473021","309","242404.152134","234686.701502","235453.221013","236220.095763","236987.148907","237753.684495","238520.316853","239287.516545","243153.694017","243920.242281","244687.010985","245453.100745","246219.841932","246986.840661","233170.226745","233936.827259","246229.223484","Mapping"
"Blocked","Male","ball","3","M_depth.wav","space","338.855063543","309","242404.152134","234686.701502","235453.221013","236220.095763","236987.148907","237753.684495","238520.316853","239287.516545","243153.694017","243920.242281","244687.010985","245453.100745","246219.841932","246986.840661","247754.27316","233936.827259","246996.247256","Mapping"
"Blocked","Male","ball","3","M_knife.wav","None","722.104616463","309","242404.152134","234686.701502","235453.221013","236220.095763","236987.148907","237753.684495","238520.316853","239287.516545","243153.694017","243920.242281","244687.010985","245453.100745","246219.841932","246986.840661","247754.27316","248520.591399","247764.599236","Mapping"
"Blocked","Male","ball","3","M_ball.wav","None","721.130720805","309","242404.152134","249286.641585","235453.221013","236220.095763","236987.148907","237753.684495","238520.316853","239287.516545","243153.694017","243920.242281","244687.010985","245453.100745","246219.841932","246986.840661","247754.27316","248520.591399","248530.785458","Mapping"
"Blocked","Male","ball","3","M_reek.wav","space","438.55414493","309","242404.152134","249286.641585","250036.741216","236220.095763","236987.148907","237753.684495","238520.316853","239287.516545","243153.694017","243920.242281","244687.010985","245453.100745","246219.841932","246986.840661","247754.27316","248520.591399","249296.5005","Mapping"
"Blocked","Male","ball","3","M_ball.wav","None","733.889370691","309","242404.152134","249286.641585","250036.741216","250802.961756","236987.148907","237753.684495","238520.316853","239287.516545","243153.694017","243920.242281","244687.010985","245453.100745","246219.841932","246986.840661","247754.27316","248520.591399","250046.750698","Mapping"
"Blocked","Male","ball","3","M_priest.wav","space","370.603441261","309","242404.152134","249286.641585","250036.741216","250802.961756","251569.702943","237753.684495","238520.316853","239287.516545","243153.694017","243920.242281","244687.010985","245453.100745","246219.841932","246986.840661","247754.27316","248520.591399","250812.407924","Mapping"
"Blocked","Male","ball","3","M_cad.wav","None","732.579404023","309","242404.152134","249286.641585","250036.741216","250802.961756","251569.702943","252336.772164","238520.316853","239287.516545","243153.694017","243920.242281","244687.010985","245453.100745","246219.841932","246986.840661","247754.27316","248520.591399","251578.951551","Mapping"
"Blocked","Male","ball","3","M_depth.wav","None","735.454714857","309","242404.152134","249286.641585","250036.741216","250802.961756","251569.702943","252336.772164","253103.449971","239287.516545","243153.694017","243920.242281","244687.010985","245453.100745","246219.841932","246986.840661","247754.27316","248520.591399","252341.191486","Mapping"
"Blocked","Male","ball","3","M_cad.wav","None","728.656614665","309","242404.152134","249286.641585","250036.741216","250802.961756","251569.702943","252336.772164","253103.449971","253870.092842","243153.694017","243920.242281","244687.010985","245453.100745","246219.841932","246986.840661","247754.27316","248520.591399","253113.102977","Mapping"
"Blocked","Male","done","23","M_cling.wav","None","727.48979507","309","257003.763875","249286.641585","250036.741216","250802.961756","251569.702943","252336.772164","253103.449971","253870.092842","243153.694017","243920.242281","244687.010985","245453.100745","246219.841932","246986.840661","247754.27316","248520.591399","253879.864261","Mapping"
"Blocked","Male","done","23","M_cad.wav","None","719.877950847","309","257003.763875","249286.641585","250036.741216","250802.961756","251569.702943","252336.772164","253103.449971","253870.092842","257753.395727","243920.242281","244687.010985","245453.100745","246219.841932","246986.840661","247754.27316","248520.591399","257013.516434","Mapping"
"Blocked","Male","done","23","M_knife.wav","None","735.224381089","309","257003.763875","249286.641585","250036.741216","250802.961756","251569.702943","252336.772164","253103.449971","253870.092842","257753.395727","258520.01881","244687.010985","245453.100745","246219.841932","246986.840661","247754.27316","248520.591399","257763.222178","Mapping"
"Blocked","Male","done","23","M_done.wav","None","733.63213893","309","257003.763875","249286.641585","250036.741216","250802.961756","251569.702943","252336.772164","253103.449971","253870.092842","257753.395727","258520.01881","259286.746394","245453.100745","246219.841932","246986.840661","247754.27316","248520.591399","258529.826093","Mapping"
"Blocked","Male","done","23","M_gnash.wav","space","454.648774583","309","257003.763875","249286.641585","250036.741216","250802.961756","251569.702943","252336.772164","253103.449971","253870.092842","257753.395727","258520.01881","259286.746394","260052.822241","246219.841932","246986.840661","247754.27316","248520.591399","259296.21606","Mapping"
"Blocked","Male","done","23","M_knife.wav","None","729.948339984","309","257003.763875","249286.641585","250036.741216","250802.961756","251569.702943","252336.772164","253103.449971","253870.092842","257753.395727","258520.01881","259286.746394","260052.822241","260819.520454","246986.840661","247754.27316","248520.591399","260062.268101","Mapping"
"Blocked","Male","done","23","M_bluff.wav","None","728.358262684","309","257003.763875","249286.641585","250036.741216","250802.961756","251569.702943","252336.772164","253103.449971","253870.092842","257753.395727","258520.01881","259286.746394","260052.822241","260819.520454","261586.218358","247754.27316","248520.591399","260828.904788","Mapping"
"Blocked","Male","done","23","M_jolt.wav","None","726.381408982","309","257003.763875","249286.641585","250036.741216","250802.961756","251569.702943","252336.772164","253103.449971","253870.092842","257753.395727","258520.01881","259286.746394","260052.822241","260819.520454","261586.218358","262353.256042","248520.591399","261596.012964","Mapping"
"Blocked","Male","done","23","M_done.wav","None","724.657768384","309","257003.763875","249286.641585","250036.741216","250802.961756","251569.702943","252336.772164","253103.449971","253870.092842","257753.395727","258520.01881","259286.746394","260052.822241","260819.520454","261586.218358","262353.256042","263120.251061","262362.791871","Mapping"
"Blocked","Male","done","23","M_priest.wav","space","436.081069056","309","257003.763875","263886.33371","250036.741216","250802.961756","251569.702943","252336.772164","253103.449971","253870.092842","257753.395727","258520.01881","259286.746394","260052.822241","260819.520454","261586.218358","262353.256042","263120.251061","263130.728013","Mapping"
"Blocked","Male","done","23","M_greet.wav","None","720.261325594","309","257003.763875","263886.33371","264636.379854","250802.961756","251569.702943","252336.772164","253103.449971","253870.092842","257753.395727","258520.01881","259286.746394","260052.822241","260819.520454","261586.218358","262353.256042","263120.251061","263895.771222","Mapping"
"Blocked","Male","done","23","M_done.wav","None","735.165947117","309","257003.763875","263886.33371","264636.379854","265402.850515","251569.702943","252336.772164","253103.449971","253870.092842","257753.395727","258520.01881","259286.746394","260052.822241","260819.520454","261586.218358","262353.256042","263120.251061","264645.951856","Mapping"
"Blocked","Male","done","23","M_priest.wav","space","386.843381915","309","257003.763875","263886.33371","264636.379854","265402.850515","266169.803177","252336.772164","253103.449971","253870.092842","257753.395727","258520.01881","259286.746394","260052.822241","260819.520454","261586.218358","262353.256042","263120.251061","265411.923821","Mapping"
"Blocked","Male","done","23","M_gnash.wav","None","730.175891891","309","257003.763875","263886.33371","264636.379854","265402.850515","266169.803177","266936.549003","253103.449971","253870.092842","257753.395727","258520.01881","259286.746394","260052.822241","260819.520454","261586.218358","262353.256042","263120.251061","266179.463294","Mapping"
"Blocked","Male","done","23","M_done.wav","None","728.178014513","309","257003.763875","263886.33371","264636.379854","265402.850515","266169.803177","266936.549003","267702.738007","253870.092842","257753.395727","258520.01881","259286.746394","260052.822241","260819.520454","261586.218358","262353.256042","263120.251061","266946.48552","Mapping"
"Blocked","Male","done","23","M_cad.wav","space","358.99646068","309","257003.763875","263886.33371","264636.379854","265402.850515","266169.803177","266936.549003","267702.738007","268470.293557","257753.395727","258520.01881","259286.746394","260052.822241","260819.520454","261586.218358","262353.256042","263120.251061","267711.708358","Mapping"
"Blocked","Male","done","22","M_priest.wav","None","722.709359135","309","271586.520419","263886.33371","264636.379854","265402.850515","266169.803177","266936.549003","267702.738007","268470.293557","257753.395727","258520.01881","259286.746394","260052.822241","260819.520454","261586.218358","262353.256042","263120.251061","268480.676211","Mapping"
"Blocked","Male","done","22","M_done.wav","None","719.554864801","309","271586.520419","263886.33371","264636.379854","265402.850515","266169.803177","266936.549003","267702.738007","268470.293557","272335.819601","258520.01881","259286.746394","260052.822241","260819.520454","261586.218358","262353.256042","263120.251061","271596.60163","Mapping"
"Blocked","Male","done","22","M_gnash.wav","space","437.488425057","309","271586.520419","263886.33371","264636.379854","265402.850515","266169.803177","266936.549003","267702.738007","268470.293557","272335.819601","273103.126576","259286.746394","260052.822241","260819.520454","261586.218358","262353.256042","263120.251061","272345.152922","Mapping"
"Blocked","Male","done","22","M_done.wav","None","732.465319335","309","271586.520419","263886.33371","264636.379854","265402.850515","266169.803177","266936.549003","267702.738007","268470.293557","272335.819601","273103.126576","273869.591672","260052.822241","260819.520454","261586.218358","262353.256042","263120.251061","273112.560069","Mapping"
"Blocked","Male","done","22","M_bluff.wav","space","351.4050222","309","271586.520419","263886.33371","264636.379854","265402.850515","266169.803177","266936.549003","267702.738007","268470.293557","272335.819601","273103.126576","273869.591672","274635.964016","260819.520454","261586.218358","262353.256042","263120.251061","273879.192427","Mapping"
"Blocked","Male","done","22","M_done.wav","None","728.747820482","309","271586.520419","263886.33371","264636.379854","265402.850515","266169.803177","266936.549003","267702.738007","268470.293557","272335.819601","273103.126576","273869.591672","274635.964016","275402.587718","261586.218358","262353.256042","263120.251061","274645.045051","Mapping"
"Blocked","Male","done","22","M_depth.wav","space","363.071054686","309","271586.520419","263886.33371","264636.379854","265402.850515","266169.803177","266936.549003","267702.738007","268470.293557","272335.819601","273103.126576","273869.591672","274635.964016","275402.587718","276170.282087","262353.256042","263120.251061","275411.518186","Mapping"
"Blocked","Male","done","22","M_knife.wav","None","721.981256269","309","271586.520419","263886.33371","264636.379854","265402.850515","266169.803177","266936.549003","267702.738007","268470.293557","272335.819601","273103.126576","273869.591672","274635.964016","275402.587718","276170.282087","276936.257761","263120.251061","276180.609708","Mapping"
"Blocked","Male","done","22","M_cling.wav","None","722.580743022","309","271586.520419","263886.33371","264636.379854","265402.850515","266169.803177","266936.549003","267702.738007","268470.293557","272335.819601","273103.126576","273869.591672","274635.964016","275402.587718","276170.282087","276936.257761","277703.16343","276945.49833","Mapping"
"Blocked","Male","done","22","M_greet.wav","None","720.057889819","309","271586.520419","278469.981292","264636.379854","265402.850515","266169.803177","266936.549003","267702.738007","268470.293557","272335.819601","273103.126576","273869.591672","274635.964016","275402.587718","276170.282087","276936.257761","277703.16343","277713.250205","Mapping"
"Blocked","Male","done","22","M_park.wav","None","718.572003301","309","271586.520419","278469.981292","279219.213383","265402.850515","266169.803177","266936.549003","267702.738007","268470.293557","272335.819601","273103.126576","273869.591672","274635.964016","275402.587718","276170.282087","276936.257761","277703.16343","278480.031895","Mapping"
"Blocked","Male","done","22","M_done.wav","None","735.208922531","309","271586.520419","278469.981292","279219.213383","279985.837704","266169.803177","266936.549003","267702.738007","268470.293557","272335.819601","273103.126576","273869.591672","274635.964016","275402.587718","276170.282087","276936.257761","277703.16343","279228.566181","Mapping"
"Blocked","Male","done","22","M_priest.wav","space","411.108840257","309","271586.520419","278469.981292","279219.213383","279985.837704","280752.934749","266936.549003","267702.738007","268470.293557","272335.819601","273103.126576","273869.591672","274635.964016","275402.587718","276170.282087","276936.257761","277703.16343","279995.388991","Mapping"
"Blocked","Male","done","22","M_greet.wav","None","730.144665111","309","271586.520419","278469.981292","279219.213383","279985.837704","280752.934749","281519.559688","267702.738007","268470.293557","272335.819601","273103.126576","273869.591672","274635.964016","275402.587718","276170.282087","276936.257761","277703.16343","280762.512935","Mapping"
