Condition,Talker,Target,Trial,current_stimulus,response_response,response_time_response,subject_nr,time_Audio1,time_Audio10,time_Audio11,time_Audio12,time_Audio13,time_Audio14,time_Audio15,time_Audio16,time_Audio2,time_Audio3,time_Audio4,time_Audio5,time_Audio6,time_Audio7,time_Audio8,time_Audio9,time_response
Mixed,both,done,37,F_lash.wav,NA,NA,3320,58275.35159,NA,NA,NA,NA,NA,NA,NA,NA,NA,NA,NA,NA,NA,NA,NA,NA
Mixed,both,done,37,M_jolt.wav,None,716.4677884,3320,58275.35159,NA,NA,NA,NA,NA,NA,NA,59041.23733,NA,NA,NA,NA,NA,NA,NA,58289.63831
Mixed,both,done,37,M_done.wav,None,722.7312527,3320,58275.35159,NA,NA,NA,NA,NA,NA,NA,59041.23733,59791.20023,NA,NA,NA,NA,NA,NA,59050.2926
Mixed,both,done,37,F_knife.wav,None,737.3503312,3320,58275.35159,NA,NA,NA,NA,NA,NA,NA,59041.23733,59791.20023,60558.38573,NA,NA,NA,NA,NA,59800.28394
Mixed,both,done,37,M_depth.wav,space,49.96085912,3320,58275.35159,NA,NA,NA,NA,NA,NA,NA,59041.23733,59791.20023,60558.38573,61324.80355,NA,NA,NA,NA,60567.9536
Mixed,both,done,37,M_gnash.wav,None,732.0264326,3320,58275.35159,NA,NA,NA,NA,NA,NA,NA,59041.23733,59791.20023,60558.38573,61324.80355,62091.32743,NA,NA,NA,61334.39028
Mixed,both,done,37,M_cling.wav,None,731.1626133,3320,58275.35159,NA,NA,NA,NA,NA,NA,NA,59041.23733,59791.20023,60558.38573,61324.80355,62091.32743,62858.32371,NA,NA,62100.40742
Mixed,both,done,37,M_bluff.wav,None,727.9716749,3320,58275.35159,NA,NA,NA,NA,NA,NA,NA,59041.23733,59791.20023,60558.38573,61324.80355,62091.32743,62858.32371,63624.88561,NA,62868.24341
Mixed,both,done,37,F_done.wav,None,726.0208158,3320,58275.35159,NA,NA,NA,NA,NA,NA,NA,59041.23733,59791.20023,60558.38573,61324.80355,62091.32743,62858.32371,63624.88561,64391.74369,63634.48501
Mixed,both,done,37,F_priest.wav,space,408.7551227,3320,58275.35159,65158.17636,NA,NA,NA,NA,NA,NA,59041.23733,59791.20023,60558.38573,61324.80355,62091.32743,62858.32371,63624.88561,64391.74369,64401.00888
Mixed,both,done,37,F_done.wav,None,723.122661,3320,58275.35159,65158.17636,65925.51458,NA,NA,NA,NA,NA,59041.23733,59791.20023,60558.38573,61324.80355,62091.32743,62858.32371,63624.88561,64391.74369,65167.17845
Mixed,both,done,37,F_reek.wav,space,498.4451868,3320,58275.35159,65158.17636,65925.51458,66674.59759,NA,NA,NA,NA,59041.23733,59791.20023,60558.38573,61324.80355,62091.32743,62858.32371,63624.88561,64391.74369,65935.2967
Mixed,both,done,37,F_greet.wav,None,735.9031085,3320,58275.35159,65158.17636,65925.51458,66674.59759,67441.47917,NA,NA,NA,59041.23733,59791.20023,60558.38573,61324.80355,62091.32743,62858.32371,63624.88561,64391.74369,66683.43921
Mixed,both,done,37,M_done.wav,None,732.858717,3320,58275.35159,65158.17636,65925.51458,66674.59759,67441.47917,68208.43,NA,NA,59041.23733,59791.20023,60558.38573,61324.80355,62091.32743,62858.32371,63624.88561,64391.74369,67450.77496
Mixed,both,done,37,M_depth.wav,space,503.7329122,3320,58275.35159,65158.17636,65925.51458,66674.59759,67441.47917,68208.43,68974.52444,NA,59041.23733,59791.20023,60558.38573,61324.80355,62091.32743,62858.32371,63624.88561,64391.74369,68217.94438
Mixed,both,done,37,F_lash.wav,None,728.8855803,3320,58275.35159,65158.17636,65925.51458,66674.59759,67441.47917,68208.43,68974.52444,69742.09237,59041.23733,59791.20023,60558.38573,61324.80355,62091.32743,62858.32371,63624.88561,64391.74369,68983.88052
Mixed,both,cave,16,F_lash.wav,None,726.2072451,3320,72891.95547,65158.17636,65925.51458,66674.59759,67441.47917,68208.43,68974.52444,69742.09237,59041.23733,59791.20023,60558.38573,61324.80355,62091.32743,62858.32371,63624.88561,64391.74369,69751.38106
Mixed,both,cave,16,M_cave.wav,None,720.5132707,3320,72891.95547,65158.17636,65925.51458,66674.59759,67441.47917,68208.43,68974.52444,69742.09237,73658.6092,59791.20023,60558.38573,61324.80355,62091.32743,62858.32371,63624.88561,64391.74369,72901.75491
Mixed,both,cave,16,F_jaw.wav,space,636.8708713,3320,72891.95547,65158.17636,65925.51458,66674.59759,67441.47917,68208.43,68974.52444,69742.09237,73658.6092,74408.10308,60558.38573,61324.80355,62091.32743,62858.32371,63624.88561,64391.74369,73668.62783
Mixed,both,cave,16,F_cave.wav,None,734.7424864,3320,72891.95547,65158.17636,65925.51458,66674.59759,67441.47917,68208.43,68974.52444,69742.09237,73658.6092,74408.10308,75175.38009,61324.80355,62091.32743,62858.32371,63624.88561,64391.74369,74417.57233
Mixed,both,cave,16,M_priest.wav,space,681.0811781,3320,72891.95547,65158.17636,65925.51458,66674.59759,67441.47917,68208.43,68974.52444,69742.09237,73658.6092,74408.10308,75175.38009,75941.32922,62091.32743,62858.32371,63624.88561,64391.74369,75184.39949
Mixed,both,cave,16,F_cave.wav,None,731.2918459,3320,72891.95547,65158.17636,65925.51458,66674.59759,67441.47917,68208.43,68974.52444,69742.09237,73658.6092,74408.10308,75175.38009,75941.32922,76707.99314,62858.32371,63624.88561,64391.74369,75950.53319
Mixed,both,cave,16,F_jolt.wav,space,588.4994525,3320,72891.95547,65158.17636,65925.51458,66674.59759,67441.47917,68208.43,68974.52444,69742.09237,73658.6092,74408.10308,75175.38009,75941.32922,76707.99314,77474.87565,63624.88561,64391.74369,76716.91732
Mixed,both,cave,16,M_gnash.wav,None,727.599435,3320,72891.95547,65158.17636,65925.51458,66674.59759,67441.47917,68208.43,68974.52444,69742.09237,73658.6092,74408.10308,75175.38009,75941.32922,76707.99314,77474.87565,78241.44806,64391.74369,77484.29079
Mixed,both,cave,16,M_depth.wav,None,725.8721055,3320,72891.95547,65158.17636,65925.51458,66674.59759,67441.47917,68208.43,68974.52444,69742.09237,73658.6092,74408.10308,75175.38009,75941.32922,76707.99314,77474.87565,78241.44806,79008.09808,78250.806
Mixed,both,cave,16,M_cave.wav,None,723.8105633,3320,72891.95547,79774.54095,65925.51458,66674.59759,67441.47917,68208.43,68974.52444,69742.09237,73658.6092,74408.10308,75175.38009,75941.32922,76707.99314,77474.87565,78241.44806,79008.09808,79017.37532
Mixed,both,cave,16,M_gnash.wav,space,601.5389836,3320,72891.95547,79774.54095,80541.79909,66674.59759,67441.47917,68208.43,68974.52444,69742.09237,73658.6092,74408.10308,75175.38009,75941.32922,76707.99314,77474.87565,78241.44806,79008.09808,79783.81016
Mixed,both,cave,16,F_greet.wav,None,718.8069643,3320,72891.95547,79774.54095,80541.79909,81291.35667,67441.47917,68208.43,68974.52444,69742.09237,73658.6092,74408.10308,75175.38009,75941.32922,76707.99314,77474.87565,78241.44806,79008.09808,80551.41736
Mixed,both,cave,16,F_bluff.wav,None,734.3189246,3320,72891.95547,79774.54095,80541.79909,81291.35667,82058.02276,68208.43,68974.52444,69742.09237,73658.6092,74408.10308,75175.38009,75941.32922,76707.99314,77474.87565,78241.44806,79008.09808,81300.33928
Mixed,both,cave,16,M_dime.wav,None,731.7812615,3320,72891.95547,79774.54095,80541.79909,81291.35667,82058.02276,82824.25818,68974.52444,69742.09237,73658.6092,74408.10308,75175.38009,75941.32922,76707.99314,77474.87565,78241.44806,79008.09808,82067.72605
Mixed,both,cave,16,M_depth.wav,None,730.5170675,3320,72891.95547,79774.54095,80541.79909,81291.35667,82058.02276,82824.25818,83591.26992,69742.09237,73658.6092,74408.10308,75175.38009,75941.32922,76707.99314,77474.87565,78241.44806,79008.09808,82833.37961
Mixed,both,cave,16,F_reek.wav,None,727.9503425,3320,72891.95547,79774.54095,80541.79909,81291.35667,82058.02276,82824.25818,83591.26992,84357.9289,73658.6092,74408.10308,75175.38009,75941.32922,76707.99314,77474.87565,78241.44806,79008.09808,83600.42814
Mixed,both,ball,1,F_greet.wav,None,725.4225728,3320,87491.58874,79774.54095,80541.79909,81291.35667,82058.02276,82824.25818,83591.26992,84357.9289,73658.6092,74408.10308,75175.38009,75941.32922,76707.99314,77474.87565,78241.44806,79008.09808,84367.44483
Mixed,both,ball,1,F_priest.wav,None,721.0153616,3320,87491.58874,79774.54095,80541.79909,81291.35667,82058.02276,82824.25818,83591.26992,84357.9289,88258.43693,74408.10308,75175.38009,75941.32922,76707.99314,77474.87565,78241.44806,79008.09808,87501.15073
Mixed,both,ball,1,F_dime.wav,None,719.0623386,3320,87491.58874,79774.54095,80541.79909,81291.35667,82058.02276,82824.25818,83591.26992,84357.9289,88258.43693,89007.34587,75175.38009,75941.32922,76707.99314,77474.87565,78241.44806,79008.09808,88267.94729
Mixed,both,ball,1,M_ball.wav,None,735.0399075,3320,87491.58874,79774.54095,80541.79909,81291.35667,82058.02276,82824.25818,83591.26992,84357.9289,88258.43693,89007.34587,89774.04813,75941.32922,76707.99314,77474.87565,78241.44806,79008.09808,89016.44287
Mixed,both,ball,1,F_reek.wav,space,441.7753504,3320,87491.58874,79774.54095,80541.79909,81291.35667,82058.02276,82824.25818,83591.26992,84357.9289,88258.43693,89007.34587,89774.04813,90541.39285,76707.99314,77474.87565,78241.44806,79008.09808,89783.25241
Mixed,both,ball,1,F_ball.wav,None,735.675869,3320,87491.58874,79774.54095,80541.79909,81291.35667,82058.02276,82824.25818,83591.26992,84357.9289,88258.43693,89007.34587,89774.04813,90541.39285,91307.44152,77474.87565,78241.44806,79008.09808,90550.37051
Mixed,both,ball,1,F_gnash.wav,space,700.3878839,3320,87491.58874,79774.54095,80541.79909,81291.35667,82058.02276,82824.25818,83591.26992,84357.9289,88258.43693,89007.34587,89774.04813,90541.39285,91307.44152,92074.47583,78241.44806,79008.09808,91316.58274
Mixed,both,ball,1,M_romp.wav,None,732.3368387,3320,87491.58874,79774.54095,80541.79909,81291.35667,82058.02276,82824.25818,83591.26992,84357.9289,88258.43693,89007.34587,89774.04813,90541.39285,91307.44152,92074.47583,92840.9793,79008.09808,92083.52677
Mixed,both,ball,1,M_depth.wav,None,731.3045221,3320,87491.58874,79774.54095,80541.79909,81291.35667,82058.02276,82824.25818,83591.26992,84357.9289,88258.43693,89007.34587,89774.04813,90541.39285,91307.44152,92074.47583,92840.9793,93607.62622,92850.06363
Mixed,both,ball,1,F_ball.wav,None,729.0726276,3320,87491.58874,94373.93398,80541.79909,81291.35667,82058.02276,82824.25818,83591.26992,84357.9289,88258.43693,89007.34587,89774.04813,90541.39285,91307.44152,92074.47583,92840.9793,93607.62622,93617.09732
Mixed,both,ball,1,F_gnash.wav,space,433.9499613,3320,87491.58874,94373.93398,95140.92501,81291.35667,82058.02276,82824.25818,83591.26992,84357.9289,88258.43693,89007.34587,89774.04813,90541.39285,91307.44152,92074.47583,92840.9793,93607.62622,94382.94287
Mixed,both,ball,1,M_greet.wav,None,725.3709417,3320,87491.58874,94373.93398,95140.92501,95907.92222,82058.02276,82824.25818,83591.26992,84357.9289,88258.43693,89007.34587,89774.04813,90541.39285,91307.44152,92074.47583,92840.9793,93607.62622,95150.30181
Mixed,both,ball,1,M_ball.wav,None,723.3168194,3320,87491.58874,94373.93398,95140.92501,95907.92222,96674.861,82824.25818,83591.26992,84357.9289,88258.43693,89007.34587,89774.04813,90541.39285,91307.44152,92074.47583,92840.9793,93607.62622,95917.7164
Mixed,both,ball,1,M_bluff.wav,space,444.720808,3320,87491.58874,94373.93398,95140.92501,95907.92222,96674.861,97441.15794,83591.26992,84357.9289,88258.43693,89007.34587,89774.04813,90541.39285,91307.44152,92074.47583,92840.9793,93607.62622,96684.11258
Mixed,both,ball,1,M_gnash.wav,None,719.6500693,3320,87491.58874,94373.93398,95140.92501,95907.92222,96674.861,97441.15794,98190.75942,84357.9289,88258.43693,89007.34587,89774.04813,90541.39285,91307.44152,92074.47583,92840.9793,93607.62622,97450.65934
Mixed,both,ball,1,M_dime.wav,None,735.2516884,3320,87491.58874,94373.93398,95140.92501,95907.92222,96674.861,97441.15794,98190.75942,98957.21991,88258.43693,89007.34587,89774.04813,90541.39285,91307.44152,92074.47583,92840.9793,93607.62622,98199.93031
Mixed,both,ball,6,F_park.wav,None,733.8347649,3320,102091.039,94373.93398,95140.92501,95907.92222,96674.861,97441.15794,98190.75942,98957.21991,88258.43693,89007.34587,89774.04813,90541.39285,91307.44152,92074.47583,92840.9793,93607.62622,98966.32155
Mixed,both,ball,6,M_bluff.wav,None,720.4873008,3320,102091.039,94373.93398,95140.92501,95907.92222,96674.861,97441.15794,98190.75942,98957.21991,102857.4364,89007.34587,89774.04813,90541.39285,91307.44152,92074.47583,92840.9793,93607.62622,102100.8801
Mixed,both,ball,6,M_ball.wav,None,719.7217969,3320,102091.039,94373.93398,95140.92501,95907.92222,96674.861,97441.15794,98190.75942,98957.21991,102857.4364,103607.2487,89774.04813,90541.39285,91307.44152,92074.47583,92840.9793,93607.62622,102866.6348
Mixed,both,ball,6,M_dime.wav,space,319.5758071,3320,102091.039,94373.93398,95140.92501,95907.92222,96674.861,97441.15794,98190.75942,98957.21991,102857.4364,103607.2487,104374.1281,90541.39285,91307.44152,92074.47583,92840.9793,93607.62622,103617.0472
Mixed,both,ball,6,F_ball.wav,None,732.5371807,3320,102091.039,94373.93398,95140.92501,95907.92222,96674.861,97441.15794,98190.75942,98957.21991,102857.4364,103607.2487,104374.1281,105140.6301,91307.44152,92074.47583,92840.9793,93607.62622,104383.2641
Mixed,both,ball,6,F_priest.wav,space,538.3367054,3320,102091.039,94373.93398,95140.92501,95907.92222,96674.861,97441.15794,98190.75942,98957.21991,102857.4364,103607.2487,104374.1281,105140.6301,105906.9687,92074.47583,92840.9793,93607.62622,105150.2295
Mixed,both,ball,6,M_depth.wav,None,728.9171154,3320,102091.039,94373.93398,95140.92501,95907.92222,96674.861,97441.15794,98190.75942,98957.21991,102857.4364,103607.2487,104374.1281,105140.6301,105906.9687,106673.5399,92840.9793,93607.62622,105916.1715
Mixed,both,ball,6,F_reek.wav,None,727.8903634,3320,102091.039,94373.93398,95140.92501,95907.92222,96674.861,97441.15794,98190.75942,98957.21991,102857.4364,103607.2487,104374.1281,105140.6301,105906.9687,106673.5399,107440.2994,93607.62622,106682.453
Mixed,both,ball,6,F_ball.wav,None,725.7957403,3320,102091.039,94373.93398,95140.92501,95907.92222,96674.861,97441.15794,98190.75942,98957.21991,102857.4364,103607.2487,104374.1281,105140.6301,105906.9687,106673.5399,107440.2994,108207.5306,107449.146
Mixed,both,ball,6,M_jolt.wav,space,486.7091137,3320,102091.039,108974.0378,95140.92501,95907.92222,96674.861,97441.15794,98190.75942,98957.21991,102857.4364,103607.2487,104374.1281,105140.6301,105906.9687,106673.5399,107440.2994,108207.5306,108217.7601
Mixed,both,ball,6,M_ball.wav,None,720.959093,3320,102091.039,108974.0378,109740.4615,95907.92222,96674.861,97441.15794,98190.75942,98957.21991,102857.4364,103607.2487,104374.1281,105140.6301,105906.9687,106673.5399,107440.2994,108207.5306,108983.5794
Mixed,both,ball,6,F_depth.wav,space,570.3527499,3320,102091.039,108974.0378,109740.4615,110490.3808,96674.861,97441.15794,98190.75942,98957.21991,102857.4364,103607.2487,104374.1281,105140.6301,105906.9687,106673.5399,107440.2994,108207.5306,109750.0637
Mixed,both,ball,6,F_dime.wav,None,733.8650636,3320,102091.039,108974.0378,109740.4615,110490.3808,111257.1706,97441.15794,98190.75942,98957.21991,102857.4364,103607.2487,104374.1281,105140.6301,105906.9687,106673.5399,107440.2994,108207.5306,110500.0275
Mixed,both,ball,6,F_romp.wav,None,731.4176778,3320,102091.039,108974.0378,109740.4615,110490.3808,111257.1706,112023.7767,98190.75942,98957.21991,102857.4364,103607.2487,104374.1281,105140.6301,105906.9687,106673.5399,107440.2994,108207.5306,111267.4882
Mixed,both,ball,6,M_gnash.wav,None,730.8370578,3320,102091.039,108974.0378,109740.4615,110490.3808,111257.1706,112023.7767,112790.3537,98957.21991,102857.4364,103607.2487,104374.1281,105140.6301,105906.9687,106673.5399,107440.2994,108207.5306,112032.7973
Mixed,both,ball,6,M_reek.wav,None,729.3833429,3320,102091.039,108974.0378,109740.4615,110490.3808,111257.1706,112023.7767,112790.3537,113557.0526,102857.4364,103607.2487,104374.1281,105140.6301,105906.9687,106673.5399,107440.2994,108207.5306,112799.5673
Mixed,both,cave,20,M_bluff.wav,None,727.0181966,3320,116690.594,108974.0378,109740.4615,110490.3808,111257.1706,112023.7767,112790.3537,113557.0526,102857.4364,103607.2487,104374.1281,105140.6301,105906.9687,106673.5399,107440.2994,108207.5306,113566.5246
Mixed,both,cave,20,F_cave.wav,None,721.2011726,3320,116690.594,108974.0378,109740.4615,110490.3808,111257.1706,112023.7767,112790.3537,113557.0526,117457.3052,103607.2487,104374.1281,105140.6301,105906.9687,106673.5399,107440.2994,108207.5306,116700.387
Mixed,both,cave,20,M_bluff.wav,space,653.4411181,3320,116690.594,108974.0378,109740.4615,110490.3808,111257.1706,112023.7767,112790.3537,113557.0526,117457.3052,118206.7868,104374.1281,105140.6301,105906.9687,106673.5399,107440.2994,108207.5306,117466.7627
Mixed,both,cave,20,M_gnash.wav,None,734.3745749,3320,116690.594,108974.0378,109740.4615,110490.3808,111257.1706,112023.7767,112790.3537,113557.0526,117457.3052,118206.7868,118972.9971,105140.6301,105906.9687,106673.5399,107440.2994,108207.5306,118215.9654
Mixed,both,cave,20,M_cave.wav,None,732.8417124,3320,116690.594,108974.0378,109740.4615,110490.3808,111257.1706,112023.7767,112790.3537,113557.0526,117457.3052,118206.7868,118972.9971,119740.1981,105906.9687,106673.5399,107440.2994,108207.5306,118982.0447
Mixed,both,cave,20,F_jolt.wav,space,642.5246531,3320,116690.594,108974.0378,109740.4615,110490.3808,111257.1706,112023.7767,112790.3537,113557.0526,117457.3052,118206.7868,118972.9971,119740.1981,120506.8506,106673.5399,107440.2994,108207.5306,119749.5854
Mixed,both,cave,20,F_park.wav,None,727.869031,3320,116690.594,108974.0378,109740.4615,110490.3808,111257.1706,112023.7767,112790.3537,113557.0526,117457.3052,118206.7868,118972.9971,119740.1981,120506.8506,121273.3964,107440.2994,108207.5306,120516.2567
Mixed,both,cave,20,F_priest.wav,None,725.6597057,3320,116690.594,108974.0378,109740.4615,110490.3808,111257.1706,112023.7767,112790.3537,113557.0526,117457.3052,118206.7868,118972.9971,119740.1981,120506.8506,121273.3964,122040.6045,108207.5306,121283.1247
Mixed,both,cave,20,M_cling.wav,None,723.6698908,3320,116690.594,108974.0378,109740.4615,110490.3808,111257.1706,112023.7767,112790.3537,113557.0526,117457.3052,118206.7868,118972.9971,119740.1981,120506.8506,121273.3964,122040.6045,122806.228,122050.1495
Mixed,both,cave,20,M_lash.wav,None,725.7444183,3320,116690.594,123573.2398,109740.4615,110490.3808,111257.1706,112023.7767,112790.3537,113557.0526,117457.3052,118206.7868,118972.9971,119740.1981,120506.8506,121273.3964,122040.6045,122806.228,122815.1497
Mixed,both,cave,20,F_cad.wav,None,723.5898161,3320,116690.594,123573.2398,124339.9649,110490.3808,111257.1706,112023.7767,112790.3537,113557.0526,117457.3052,118206.7868,118972.9971,119740.1981,120506.8506,121273.3964,122040.6045,122806.228,123582.4314
Mixed,both,cave,20,F_knife.wav,None,721.985227,3320,116690.594,123573.2398,124339.9649,125107.0209,111257.1706,112023.7767,112790.3537,113557.0526,117457.3052,118206.7868,118972.9971,119740.1981,120506.8506,121273.3964,122040.6045,122806.228,124349.2273
Mixed,both,cave,20,M_cave.wav,None,719.7183962,3320,116690.594,123573.2398,124339.9649,125107.0209,125856.4934,112023.7767,112790.3537,113557.0526,117457.3052,118206.7868,118972.9971,119740.1981,120506.8506,121273.3964,122040.6045,122806.228,125116.3643
Mixed,both,cave,20,M_jolt.wav,space,469.9069895,3320,116690.594,123573.2398,124339.9649,125107.0209,125856.4934,126623.4248,112790.3537,113557.0526,117457.3052,118206.7868,118972.9971,119740.1981,120506.8506,121273.3964,122040.6045,122806.228,125866.0468
Mixed,both,cave,20,F_cave.wav,None,732.4796752,3320,116690.594,123573.2398,124339.9649,125107.0209,125856.4934,126623.4248,127389.9619,113557.0526,117457.3052,118206.7868,118972.9971,119740.1981,120506.8506,121273.3964,122040.6045,122806.228,126632.9911
Mixed,both,cave,20,F_dime.wav,space,568.8338005,3320,116690.594,123573.2398,124339.9649,125107.0209,125856.4934,126623.4248,127389.9619,128156.565,117457.3052,118206.7868,118972.9971,119740.1981,120506.8506,121273.3964,122040.6045,122806.228,127399.067
Mixed,both,done,48,F_romp.wav,None,729.9454128,3320,131290.0866,123573.2398,124339.9649,125107.0209,125856.4934,126623.4248,127389.9619,128156.565,117457.3052,118206.7868,118972.9971,119740.1981,120506.8506,121273.3964,122040.6045,122806.228,128166.0503
Mixed,both,done,48,M_cling.wav,None,721.0224727,3320,131290.0866,123573.2398,124339.9649,125107.0209,125856.4934,126623.4248,127389.9619,128156.565,132056.8853,118206.7868,118972.9971,119740.1981,120506.8506,121273.3964,122040.6045,122806.228,131299.9723
Mixed,both,done,48,F_bluff.wav,None,719.5025957,3320,131290.0866,123573.2398,124339.9649,125107.0209,125856.4934,126623.4248,127389.9619,128156.565,132056.8853,132806.2729,118972.9971,119740.1981,120506.8506,121273.3964,122040.6045,122806.228,132066.5503
Mixed,both,done,48,F_done.wav,None,735.4102926,3320,131290.0866,123573.2398,124339.9649,125107.0209,125856.4934,126623.4248,127389.9619,128156.565,132056.8853,132806.2729,133573.0128,119740.1981,120506.8506,121273.3964,122040.6045,122806.228,132815.654
Mixed,both,done,48,F_cling.wav,space,496.9614823,3320,131290.0866,123573.2398,124339.9649,125107.0209,125856.4934,126623.4248,127389.9619,128156.565,132056.8853,132806.2729,133573.0128,134339.768,120506.8506,121273.3964,122040.6045,122806.228,133582.7668
Mixed,both,done,48,M_done.wav,None,731.7769327,3320,131290.0866,123573.2398,124339.9649,125107.0209,125856.4934,126623.4248,127389.9619,128156.565,132056.8853,132806.2729,133573.0128,134339.768,135106.4548,121273.3964,122040.6045,122806.228,134348.8406
Mixed,both,done,48,F_depth.wav,space,563.8385494,3320,131290.0866,123573.2398,124339.9649,125107.0209,125856.4934,126623.4248,127389.9619,128156.565,132056.8853,132806.2729,133573.0128,134339.768,135106.4548,135872.6998,122040.6045,122806.228,135115.8307
Mixed,both,done,48,M_park.wav,None,727.9290096,3320,131290.0866,123573.2398,124339.9649,125107.0209,125856.4934,126623.4248,127389.9619,128156.565,132056.8853,132806.2729,133573.0128,134339.768,135106.4548,135872.6998,136639.3059,122806.228,135881.8886
Mixed,both,done,48,M_jaw.wav,None,726.2344519,3320,131290.0866,123573.2398,124339.9649,125107.0209,125856.4934,126623.4248,127389.9619,128156.565,132056.8853,132806.2729,133573.0128,134339.768,135106.4548,135872.6998,136639.3059,137406.6862,136648.3961
Mixed,both,done,48,M_cad.wav,None,723.1322452,3320,131290.0866,138173.1,124339.9649,125107.0209,125856.4934,126623.4248,127389.9619,128156.565,132056.8853,132806.2729,133573.0128,134339.768,135106.4548,135872.6998,136639.3059,137406.6862,137416.681
Mixed,both,done,48,F_done.wav,None,722.2229782,3320,131290.0866,138173.1,138939.9305,125107.0209,125856.4934,126623.4248,127389.9619,128156.565,132056.8853,132806.2729,133573.0128,134339.768,135106.4548,135872.6998,136639.3059,137406.6862,138182.5819
Mixed,both,done,48,F_park.wav,space,369.8368697,3320,131290.0866,138173.1,138939.9305,139689.5846,125856.4934,126623.4248,127389.9619,128156.565,132056.8853,132806.2729,133573.0128,134339.768,135106.4548,135872.6998,136639.3059,137406.6862,138949.7195
Mixed,both,done,48,M_cad.wav,None,735.9878211,3320,131290.0866,138173.1,138939.9305,139689.5846,140456.0568,126623.4248,127389.9619,128156.565,132056.8853,132806.2729,133573.0128,134339.768,135106.4548,135872.6998,136639.3059,137406.6862,139698.6315
Mixed,both,done,48,M_cad.wav,space,590.3566331,3320,131290.0866,138173.1,138939.9305,139689.5846,140456.0568,141222.973,127389.9619,128156.565,132056.8853,132806.2729,133573.0128,134339.768,135106.4548,135872.6998,136639.3059,137406.6862,140465.1198
Mixed,both,done,48,M_done.wav,None,731.7243745,3320,131290.0866,138173.1,138939.9305,139689.5846,140456.0568,141222.973,141989.5529,128156.565,132056.8853,132806.2729,133573.0128,134339.768,135106.4548,135872.6998,136639.3059,137406.6862,141232.2224
Mixed,both,done,48,F_knife.wav,None,730.3541349,3320,131290.0866,138173.1,138939.9305,139689.5846,140456.0568,141222.973,141989.5529,142756.1611,132056.8853,132806.2729,133573.0128,134339.768,135106.4548,135872.6998,136639.3059,137406.6862,141998.9442
Mixed,both,cave,17,M_priest.wav,space,57.48078832,3320,145889.71,138173.1,138939.9305,139689.5846,140456.0568,141222.973,141989.5529,142756.1611,132056.8853,132806.2729,133573.0128,134339.768,135106.4548,135872.6998,136639.3059,137406.6862,142765.9773
Mixed,both,cave,17,F_cave.wav,None,720.4900831,3320,145889.71,138173.1,138939.9305,139689.5846,140456.0568,141222.973,141989.5529,142756.1611,146656.0162,132806.2729,133573.0128,134339.768,135106.4548,135872.6998,136639.3059,137406.6862,145899.5728
Mixed,both,cave,17,M_reek.wav,None,719.4280857,3320,145889.71,138173.1,138939.9305,139689.5846,140456.0568,141222.973,141989.5529,142756.1611,146656.0162,147405.9114,133573.0128,134339.768,135106.4548,135872.6998,136639.3059,137406.6862,146665.8073
Mixed,both,cave,17,M_jolt.wav,space,134.0150726,3320,145889.71,138173.1,138939.9305,139689.5846,140456.0568,141222.973,141989.5529,142756.1611,146656.0162,147405.9114,148172.55,134339.768,135106.4548,135872.6998,136639.3059,137406.6862,147417.2724
Mixed,both,cave,17,M_reek.wav,None,733.1876731,3320,145889.71,138173.1,138939.9305,139689.5846,140456.0568,141222.973,141989.5529,142756.1611,146656.0162,147405.9114,148172.55,148939.0392,135106.4548,135872.6998,136639.3059,137406.6862,148181.2855
Mixed,both,cave,17,F_park.wav,None,731.4411751,3320,145889.71,138173.1,138939.9305,139689.5846,140456.0568,141222.973,141989.5529,142756.1611,146656.0162,147405.9114,148172.55,148939.0392,149705.7028,135872.6998,136639.3059,137406.6862,148948.2398
Mixed,both,cave,17,M_knife.wav,None,729.5651347,3320,145889.71,138173.1,138939.9305,139689.5846,140456.0568,141222.973,141989.5529,142756.1611,146656.0162,147405.9114,148172.55,148939.0392,149705.7028,150472.2959,136639.3059,137406.6862,149714.8811
Mixed,both,cave,17,F_cave.wav,None,728.8967101,3320,145889.71,138173.1,138939.9305,139689.5846,140456.0568,141222.973,141989.5529,142756.1611,146656.0162,147405.9114,148172.55,148939.0392,149705.7028,150472.2959,151238.9076,137406.6862,150481.2585
Mixed,both,cave,17,F_knife.wav,space,607.3723934,3320,145889.71,138173.1,138939.9305,139689.5846,140456.0568,141222.973,141989.5529,142756.1611,146656.0162,147405.9114,148172.55,148939.0392,149705.7028,150472.2959,151238.9076,152005.4049,151247.8231
Mixed,both,cave,17,F_jolt.wav,None,726.749219,3320,145889.71,152773.1522,138939.9305,139689.5846,140456.0568,141222.973,141989.5529,142756.1611,146656.0162,147405.9114,148172.55,148939.0392,149705.7028,150472.2959,151238.9076,152005.4049,152014.2407
Mixed,both,cave,17,M_cave.wav,None,723.3947306,3320,145889.71,152773.1522,153539.2874,139689.5846,140456.0568,141222.973,141989.5529,142756.1611,146656.0162,147405.9114,148172.55,148939.0392,149705.7028,150472.2959,151238.9076,152005.4049,152782.9414
Mixed,both,cave,17,F_bluff.wav,space,674.7939079,3320,145889.71,152773.1522,153539.2874,154305.3636,140456.0568,141222.973,141989.5529,142756.1611,146656.0162,147405.9114,148172.55,148939.0392,149705.7028,150472.2959,151238.9076,152005.4049,153548.3223
Mixed,both,cave,17,M_cave.wav,None,724.4020044,3320,145889.71,152773.1522,153539.2874,154305.3636,155073.0954,141222.973,141989.5529,142756.1611,146656.0162,147405.9114,148172.55,148939.0392,149705.7028,150472.2959,151238.9076,152005.4049,154314.1595
Mixed,both,cave,17,F_priest.wav,space,628.4528049,3320,145889.71,152773.1522,153539.2874,154305.3636,155073.0954,155839.4347,141989.5529,142756.1611,146656.0162,147405.9114,148172.55,148939.0392,149705.7028,150472.2959,151238.9076,152005.4049,155082.6104
Mixed,both,cave,17,F_bluff.wav,None,718.4829549,3320,145889.71,152773.1522,153539.2874,154305.3636,155073.0954,155839.4347,156588.9654,142756.1611,146656.0162,147405.9114,148172.55,148939.0392,149705.7028,150472.2959,151238.9076,152005.4049,155849.5745
Mixed,both,cave,17,M_jolt.wav,None,734.6129445,3320,145889.71,152773.1522,153539.2874,154305.3636,155073.0954,155839.4347,156588.9654,157355.4874,146656.0162,147405.9114,148172.55,148939.0392,149705.7028,150472.2959,151238.9076,152005.4049,156598.639
Mixed,both,tile,35,F_cad.wav,None,733.4708725,3320,160489.3055,152773.1522,153539.2874,154305.3636,155073.0954,155839.4347,156588.9654,157355.4874,146656.0162,147405.9114,148172.55,148939.0392,149705.7028,150472.2959,151238.9076,152005.4049,157364.6335
Mixed,both,tile,35,F_tile.wav,None,721.0957459,3320,160489.3055,152773.1522,153539.2874,154305.3636,155073.0954,155839.4347,156588.9654,157355.4874,161256.0594,147405.9114,148172.55,148939.0392,149705.7028,150472.2959,151238.9076,152005.4049,160499.1334
Mixed,both,tile,35,M_cad.wav,space,573.2539962,3320,160489.3055,152773.1522,153539.2874,154305.3636,155073.0954,155839.4347,156588.9654,157355.4874,161256.0594,162005.4105,148172.55,148939.0392,149705.7028,150472.2959,151238.9076,152005.4049,161265.6362
Mixed,both,tile,35,M_tile.wav,None,735.4118386,3320,160489.3055,152773.1522,153539.2874,154305.3636,155073.0954,155839.4347,156588.9654,157355.4874,161256.0594,162005.4105,162771.8509,148939.0392,149705.7028,150472.2959,151238.9076,152005.4049,162014.6154
Mixed,both,tile,35,M_jolt.wav,space,561.7451626,3320,160489.3055,152773.1522,153539.2874,154305.3636,155073.0954,155839.4347,156588.9654,157355.4874,161256.0594,162005.4105,162771.8509,163538.9149,149705.7028,150472.2959,151238.9076,152005.4049,162781.0681
Mixed,both,tile,35,F_tile.wav,None,731.632242,3320,160489.3055,152773.1522,153539.2874,154305.3636,155073.0954,155839.4347,156588.9654,157355.4874,161256.0594,162005.4105,162771.8509,163538.9149,164305.4625,150472.2959,151238.9076,152005.4049,163548.2947
Mixed,both,tile,35,M_jolt.wav,space,595.6038577,3320,160489.3055,152773.1522,153539.2874,154305.3636,155073.0954,155839.4347,156588.9654,157355.4874,161256.0594,162005.4105,162771.8509,163538.9149,164305.4625,165072.1753,151238.9076,152005.4049,164315.1871
Mixed,both,tile,35,M_tile.wav,None,727.5777929,3320,160489.3055,152773.1522,153539.2874,154305.3636,155073.0954,155839.4347,156588.9654,157355.4874,161256.0594,162005.4105,162771.8509,163538.9149,164305.4625,165072.1753,165838.8377,152005.4049,165081.7531
Mixed,both,tile,35,F_knife.wav,space,526.5867193,3320,160489.3055,152773.1522,153539.2874,154305.3636,155073.0954,155839.4347,156588.9654,157355.4874,161256.0594,162005.4105,162771.8509,163538.9149,164305.4625,165072.1753,165838.8377,166605.8884,165848.1755
Mixed,both,tile,35,M_cling.wav,None,723.3035252,3320,160489.3055,167372.5415,153539.2874,154305.3636,155073.0954,155839.4347,156588.9654,157355.4874,161256.0594,162005.4105,162771.8509,163538.9149,164305.4625,165072.1753,165838.8377,166605.8884,166615.5403
Mixed,both,tile,35,M_cad.wav,None,721.9744059,3320,160489.3055,167372.5415,168139.0626,154305.3636,155073.0954,155839.4347,156588.9654,157355.4874,161256.0594,162005.4105,162771.8509,163538.9149,164305.4625,165072.1753,165838.8377,166605.8884,167382.2278
Mixed,both,tile,35,M_cad.wav,None,720.8131654,3320,160489.3055,167372.5415,168139.0626,168905.8087,155073.0954,155839.4347,156588.9654,157355.4874,161256.0594,162005.4105,162771.8509,163538.9149,164305.4625,165072.1753,165838.8377,166605.8884,168148.7952
Mixed,both,tile,35,F_bluff.wav,None,719.1346842,3320,160489.3055,167372.5415,168139.0626,168905.8087,169655.1125,155839.4347,156588.9654,157355.4874,161256.0594,162005.4105,162771.8509,163538.9149,164305.4625,165072.1753,165838.8377,166605.8884,168915.5058
Mixed,both,tile,35,F_knife.wav,None,735.0760805,3320,160489.3055,167372.5415,168139.0626,168905.8087,169655.1125,170421.6175,156588.9654,157355.4874,161256.0594,162005.4105,162771.8509,163538.9149,164305.4625,165072.1753,165838.8377,166605.8884,169664.6825
Mixed,both,tile,35,F_jolt.wav,None,734.794118,3320,160489.3055,167372.5415,168139.0626,168905.8087,169655.1125,170421.6175,171188.231,157355.4874,161256.0594,162005.4105,162771.8509,163538.9149,164305.4625,165072.1753,165838.8377,166605.8884,170430.4242
Mixed,both,tile,35,F_priest.wav,None,738.9323516,3320,160489.3055,167372.5415,168139.0626,168905.8087,169655.1125,170421.6175,171188.231,171955.0186,161256.0594,162005.4105,162771.8509,163538.9149,164305.4625,165072.1753,165838.8377,166605.8884,171191.6452
Mixed,both,cave,13,M_romp.wav,None,737.3766107,3320,175088.8612,167372.5415,168139.0626,168905.8087,169655.1125,170421.6175,171188.231,171955.0186,161256.0594,162005.4105,162771.8509,163538.9149,164305.4625,165072.1753,165838.8377,166605.8884,171958.5636
Mixed,both,cave,13,M_cling.wav,None,721.2203415,3320,175088.8612,167372.5415,168139.0626,168905.8087,169655.1125,170421.6175,171188.231,171955.0186,175855.62,162005.4105,162771.8509,163538.9149,164305.4625,165072.1753,165838.8377,166605.8884,175098.3301
Mixed,both,cave,13,F_cave.wav,None,719.2438208,3320,175088.8612,167372.5415,168139.0626,168905.8087,169655.1125,170421.6175,171188.231,171955.0186,175855.62,176604.9859,162771.8509,163538.9149,164305.4625,165072.1753,165838.8377,166605.8884,175865.8133
Mixed,both,cave,13,M_lash.wav,space,399.9413196,3320,175088.8612,167372.5415,168139.0626,168905.8087,169655.1125,170421.6175,171188.231,171955.0186,175855.62,176604.9859,177371.7021,163538.9149,164305.4625,165072.1753,165838.8377,166605.8884,176614.5022
Mixed,both,cave,13,F_cling.wav,None,733.3425675,3320,175088.8612,167372.5415,168139.0626,168905.8087,169655.1125,170421.6175,171188.231,171955.0186,175855.62,176604.9859,177371.7021,178138.4504,164305.4625,165072.1753,165838.8377,166605.8884,177381.1713
Mixed,both,cave,13,M_greet.wav,None,731.8217624,3320,175088.8612,167372.5415,168139.0626,168905.8087,169655.1125,170421.6175,171188.231,171955.0186,175855.62,176604.9859,177371.7021,178138.4504,178904.8302,165072.1753,165838.8377,166605.8884,178148.078
Mixed,both,cave,13,F_dime.wav,None,731.3935626,3320,175088.8612,167372.5415,168139.0626,168905.8087,169655.1125,170421.6175,171188.231,171955.0186,175855.62,176604.9859,177371.7021,178138.4504,178904.8302,179671.8704,165838.8377,166605.8884,178913.9884
Mixed,both,cave,13,M_cave.wav,None,729.9862234,3320,175088.8612,167372.5415,168139.0626,168905.8087,169655.1125,170421.6175,171188.231,171955.0186,175855.62,176604.9859,177371.7021,178138.4504,178904.8302,179671.8704,180438.3819,166605.8884,179680.8552
Mixed,both,cave,13,F_reek.wav,space,606.8693744,3320,175088.8612,167372.5415,168139.0626,168905.8087,169655.1125,170421.6175,171188.231,171955.0186,175855.62,176604.9859,177371.7021,178138.4504,178904.8302,179671.8704,180438.3819,181204.9256,180447.4424
Mixed,both,cave,13,M_jaw.wav,None,725.8841628,3320,175088.8612,181971.1724,168139.0626,168905.8087,169655.1125,170421.6175,171188.231,171955.0186,175855.62,176604.9859,177371.7021,178138.4504,178904.8302,179671.8704,180438.3819,181204.9256,181214.5039
Mixed,both,cave,13,F_cave.wav,None,724.8336049,3320,175088.8612,181971.1724,182738.2488,168905.8087,169655.1125,170421.6175,171188.231,171955.0186,175855.62,176604.9859,177371.7021,178138.4504,178904.8302,179671.8704,180438.3819,181204.9256,181980.4994
Mixed,both,cave,13,F_bluff.wav,space,482.5050272,3320,175088.8612,181971.1724,182738.2488,183505.3038,169655.1125,170421.6175,171188.231,171955.0186,175855.62,176604.9859,177371.7021,178138.4504,178904.8302,179671.8704,180438.3819,181204.9256,182747.7214
Mixed,both,cave,13,F_reek.wav,None,720.04828,3320,175088.8612,181971.1724,182738.2488,183505.3038,184272.0939,170421.6175,171188.231,171955.0186,175855.62,176604.9859,177371.7021,178138.4504,178904.8302,179671.8704,180438.3819,181204.9256,183515.345
Mixed,both,cave,13,F_dime.wav,None,718.7401839,3320,175088.8612,181971.1724,182738.2488,183505.3038,184272.0939,185021.2798,171188.231,171955.0186,175855.62,176604.9859,177371.7021,178138.4504,178904.8302,179671.8704,180438.3819,181204.9256,184281.7792
Mixed,both,cave,13,M_cave.wav,None,735.3707189,3320,175088.8612,181971.1724,182738.2488,183505.3038,184272.0939,185021.2798,185788.2882,171955.0186,175855.62,176604.9859,177371.7021,178138.4504,178904.8302,179671.8704,180438.3819,181204.9256,185030.699
Mixed,both,cave,13,M_reek.wav,space,528.3276527,3320,175088.8612,181971.1724,182738.2488,183505.3038,184272.0939,185021.2798,185788.2882,186554.6819,175855.62,176604.9859,177371.7021,178138.4504,178904.8302,179671.8704,180438.3819,181204.9256,185797.8205
Mixed,both,tile,36,F_jaw.wav,None,734.8194695,3320,189688.492,181971.1724,182738.2488,183505.3038,184272.0939,185021.2798,185788.2882,186554.6819,175855.62,176604.9859,177371.7021,178138.4504,178904.8302,179671.8704,180438.3819,181204.9256,186563.6348
Mixed,both,tile,36,M_lash.wav,None,721.541259,3320,189688.492,181971.1724,182738.2488,183505.3038,184272.0939,185021.2798,185788.2882,186554.6819,190455.3875,176604.9859,177371.7021,178138.4504,178904.8302,179671.8704,180438.3819,181204.9256,189698.0447
Mixed,both,tile,36,F_tile.wav,None,720.072086,3320,189688.492,181971.1724,182738.2488,183505.3038,184272.0939,185021.2798,185788.2882,186554.6819,190455.3875,191221.9862,177371.7021,178138.4504,178904.8302,179671.8704,180438.3819,181204.9256,190465.0873
Mixed,both,tile,36,F_knife.wav,space,582.2106358,3320,189688.492,181971.1724,182738.2488,183505.3038,184272.0939,185021.2798,185788.2882,186554.6819,190455.3875,191221.9862,191970.7792,178138.4504,178904.8302,179671.8704,180438.3819,181204.9256,191231.7636
Mixed,both,tile,36,F_jolt.wav,None,735.0133192,3320,189688.492,181971.1724,182738.2488,183505.3038,184272.0939,185021.2798,185788.2882,186554.6819,190455.3875,191221.9862,191970.7792,192737.9869,178904.8302,179671.8704,180438.3819,181204.9256,191980.142
Mixed,both,tile,36,F_tile.wav,None,733.9964607,3320,189688.492,181971.1724,182738.2488,183505.3038,184272.0939,185021.2798,185788.2882,186554.6819,190455.3875,191221.9862,191970.7792,192737.9869,193504.5541,179671.8704,180438.3819,181204.9256,192747.0694
Mixed,both,tile,36,F_lash.wav,space,547.8820032,3320,189688.492,181971.1724,182738.2488,183505.3038,184272.0939,185021.2798,185788.2882,186554.6819,190455.3875,191221.9862,191970.7792,192737.9869,193504.5541,194271.294,180438.3819,181204.9256,193514.0199
Mixed,both,tile,36,M_tile.wav,None,729.9596346,3320,189688.492,181971.1724,182738.2488,183505.3038,184272.0939,185021.2798,185788.2882,186554.6819,190455.3875,191221.9862,191970.7792,192737.9869,193504.5541,194271.294,195037.5304,181204.9256,194281.1176
Mixed,both,tile,36,M_knife.wav,space,679.4459806,3320,189688.492,181971.1724,182738.2488,183505.3038,184272.0939,185021.2798,185788.2882,186554.6819,190455.3875,191221.9862,191970.7792,192737.9869,193504.5541,194271.294,195037.5304,195804.5931,195046.3726
Mixed,both,tile,36,M_tile.wav,None,727.3310758,3320,189688.492,196570.8913,182738.2488,183505.3038,184272.0939,185021.2798,185788.2882,186554.6819,190455.3875,191221.9862,191970.7792,192737.9869,193504.5541,194271.294,195037.5304,195804.5931,195813.9941
Mixed,both,tile,36,M_priest.wav,space,658.1157604,3320,189688.492,196570.8913,197338.3362,183505.3038,184272.0939,185021.2798,185788.2882,186554.6819,190455.3875,191221.9862,191970.7792,192737.9869,193504.5541,194271.294,195037.5304,195804.5931,196579.7002
Mixed,both,tile,36,F_depth.wav,None,723.3635043,3320,189688.492,196570.8913,197338.3362,198104.8836,184272.0939,185021.2798,185788.2882,186554.6819,190455.3875,191221.9862,191970.7792,192737.9869,193504.5541,194271.294,195037.5304,195804.5931,197347.6589
Mixed,both,tile,36,M_cling.wav,None,721.4296493,3320,189688.492,196570.8913,197338.3362,198104.8836,198871.5484,185021.2798,185788.2882,186554.6819,190455.3875,191221.9862,191970.7792,192737.9869,193504.5541,194271.294,195037.5304,195804.5931,198114.7854
Mixed,both,tile,36,F_greet.wav,None,719.5301116,3320,189688.492,196570.8913,197338.3362,198104.8836,198871.5484,199621.3298,185788.2882,186554.6819,190455.3875,191221.9862,191970.7792,192737.9869,193504.5541,194271.294,195037.5304,195804.5931,198881.888
Mixed,both,tile,36,M_jaw.wav,None,736.1974381,3320,189688.492,196570.8913,197338.3362,198104.8836,198871.5484,199621.3298,200387.6512,186554.6819,190455.3875,191221.9862,191970.7792,192737.9869,193504.5541,194271.294,195037.5304,195804.5931,199630.3996
Mixed,both,tile,36,M_greet.wav,None,734.9134572,3320,189688.492,196570.8913,197338.3362,198104.8836,198871.5484,199621.3298,200387.6512,201154.1643,190455.3875,191221.9862,191970.7792,192737.9869,193504.5541,194271.294,195037.5304,195804.5931,200397.2568
Mixed,both,cave,15,M_jolt.wav,None,734.6982751,3320,204288.0891,196570.8913,197338.3362,198104.8836,198871.5484,199621.3298,200387.6512,201154.1643,190455.3875,191221.9862,191970.7792,192737.9869,193504.5541,194271.294,195037.5304,195804.5931,201163.0721
Mixed,both,cave,15,F_cave.wav,None,720.8505748,3320,204288.0891,196570.8913,197338.3362,198104.8836,198871.5484,199621.3298,200387.6512,201154.1643,205054.6253,191221.9862,191970.7792,192737.9869,193504.5541,194271.294,195037.5304,195804.5931,204297.7253
Mixed,both,cave,15,F_bluff.wav,space,620.5884609,3320,204288.0891,196570.8913,197338.3362,198104.8836,198871.5484,199621.3298,200387.6512,201154.1643,205054.6253,205804.0972,191970.7792,192737.9869,193504.5541,194271.294,195037.5304,195804.5931,205064.955
Mixed,both,cave,15,M_romp.wav,None,735.324034,3320,204288.0891,196570.8913,197338.3362,198104.8836,198871.5484,199621.3298,200387.6512,201154.1643,205054.6253,205804.0972,206570.8647,192737.9869,193504.5541,194271.294,195037.5304,195804.5931,205813.3921
Mixed,both,cave,15,F_gnash.wav,None,733.7744767,3320,204288.0891,196570.8913,197338.3362,198104.8836,198871.5484,199621.3298,200387.6512,201154.1643,205054.6253,205804.0972,206570.8647,207337.5859,193504.5541,194271.294,195037.5304,195804.5931,206580.4808
Mixed,both,cave,15,F_lash.wav,None,733.1950935,3320,204288.0891,196570.8913,197338.3362,198104.8836,198871.5484,199621.3298,200387.6512,201154.1643,205054.6253,205804.0972,206570.8647,207337.5859,208104.1904,194271.294,195037.5304,195804.5931,207346.5938
Mixed,both,cave,15,M_park.wav,None,731.9652173,3320,204288.0891,196570.8913,197338.3362,198104.8836,198871.5484,199621.3298,200387.6512,201154.1643,205054.6253,205804.0972,206570.8647,207337.5859,208104.1904,208870.5279,195037.5304,195804.5931,208113.707
Mixed,both,cave,15,M_cave.wav,None,731.0599694,3320,204288.0891,196570.8913,197338.3362,198104.8836,198871.5484,199621.3298,200387.6512,201154.1643,205054.6253,205804.0972,206570.8647,207337.5859,208104.1904,208870.5279,209637.5053,195804.5931,208879.6502
Mixed,both,cave,15,M_gnash.wav,space,542.4560793,3320,204288.0891,196570.8913,197338.3362,198104.8836,198871.5484,199621.3298,200387.6512,201154.1643,205054.6253,205804.0972,206570.8647,207337.5859,208104.1904,208870.5279,209637.5053,210404.1915,209646.9795
Mixed,both,cave,15,F_park.wav,None,726.6997518,3320,204288.0891,211170.8452,197338.3362,198104.8836,198871.5484,199621.3298,200387.6512,201154.1643,205054.6253,205804.0972,206570.8647,207337.5859,208104.1904,208870.5279,209637.5053,210404.1915,210413.6292
Mixed,both,cave,15,F_knife.wav,None,726.1389187,3320,204288.0891,211170.8452,211937.4281,198104.8836,198871.5484,199621.3298,200387.6512,201154.1643,205054.6253,205804.0972,206570.8647,207337.5859,208104.1904,208870.5279,209637.5053,210404.1915,211179.8903
Mixed,both,cave,15,M_lash.wav,None,724.6091482,3320,204288.0891,211170.8452,211937.4281,212704.3663,198871.5484,199621.3298,200387.6512,201154.1643,205054.6253,205804.0972,206570.8647,207337.5859,208104.1904,208870.5279,209637.5053,210404.1915,211946.9131
Mixed,both,cave,15,F_cave.wav,None,722.808545,3320,204288.0891,211170.8452,211937.4281,212704.3663,213470.9068,199621.3298,200387.6512,201154.1643,205054.6253,205804.0972,206570.8647,207337.5859,208104.1904,208870.5279,209637.5053,210404.1915,212714.0034
Mixed,both,cave,15,M_romp.wav,space,596.7641706,3320,204288.0891,211170.8452,211937.4281,212704.3663,213470.9068,214237.8141,200387.6512,201154.1643,205054.6253,205804.0972,206570.8647,207337.5859,208104.1904,208870.5279,209637.5053,210404.1915,213480.5891
Mixed,both,cave,15,M_cave.wav,None,719.6460501,3320,204288.0891,211170.8452,211937.4281,212704.3663,213470.9068,214237.8141,214986.9676,201154.1643,205054.6253,205804.0972,206570.8647,207337.5859,208104.1904,208870.5279,209637.5053,210404.1915,214247.2419
Mixed,both,cave,15,F_jaw.wav,None,736.408601,3320,204288.0891,211170.8452,211937.4281,212704.3663,213470.9068,214237.8141,214986.9676,215754.3905,205054.6253,205804.0972,206570.8647,207337.5859,208104.1904,208870.5279,209637.5053,210404.1915,214996.0788
Mixed,both,done,47,F_depth.wav,None,733.6514276,3320,218887.5656,211170.8452,211937.4281,212704.3663,213470.9068,214237.8141,214986.9676,215754.3905,205054.6253,205804.0972,206570.8647,207337.5859,208104.1904,208870.5279,209637.5053,210404.1915,215764.048
Mixed,both,done,47,F_cling.wav,None,720.7989437,3320,218887.5656,211170.8452,211937.4281,212704.3663,213470.9068,214237.8141,214986.9676,215754.3905,219654.1769,205804.0972,206570.8647,207337.5859,208104.1904,208870.5279,209637.5053,210404.1915,218897.3802
Mixed,both,done,47,M_cling.wav,None,720.0297294,3320,218887.5656,211170.8452,211937.4281,212704.3663,213470.9068,214237.8141,214986.9676,215754.3905,219654.1769,220421.0023,206570.8647,207337.5859,208104.1904,208870.5279,209637.5053,210404.1915,219663.8975
Mixed,both,done,47,F_greet.wav,None,718.973916,3320,218887.5656,211170.8452,211937.4281,212704.3663,213470.9068,214237.8141,214986.9676,215754.3905,219654.1769,220421.0023,221170.562,207337.5859,208104.1904,208870.5279,209637.5053,210404.1915,220430.6585
Mixed,both,done,47,M_cad.wav,None,740.7119307,3320,218887.5656,211170.8452,211937.4281,212704.3663,213470.9068,214237.8141,214986.9676,215754.3905,219654.1769,220421.0023,221170.562,221937.0488,208104.1904,208870.5279,209637.5053,210404.1915,221174.8159
Mixed,both,done,47,F_done.wav,None,734.6330406,3320,218887.5656,211170.8452,211937.4281,212704.3663,213470.9068,214237.8141,214986.9676,215754.3905,219654.1769,220421.0023,221170.562,221937.0488,222703.803,208870.5279,209637.5053,210404.1915,221946.5508
Mixed,both,done,47,F_greet.wav,space,443.9522126,3320,218887.5656,211170.8452,211937.4281,212704.3663,213470.9068,214237.8141,214986.9676,215754.3905,219654.1769,220421.0023,221170.562,221937.0488,222703.803,223470.5581,209637.5053,210404.1915,222713.1065
Mixed,both,done,47,F_done.wav,None,731.7231377,3320,218887.5656,211170.8452,211937.4281,212704.3663,213470.9068,214237.8141,214986.9676,215754.3905,219654.1769,220421.0023,221170.562,221937.0488,222703.803,223470.5581,224237.0767,210404.1915,223479.4869
Mixed,both,done,47,M_greet.wav,space,526.2775505,3320,218887.5656,211170.8452,211937.4281,212704.3663,213470.9068,214237.8141,214986.9676,215754.3905,219654.1769,220421.0023,221170.562,221937.0488,222703.803,223470.5581,224237.0767,225003.6151,224246.6699
Mixed,both,done,47,F_jolt.wav,None,729.0534591,3320,218887.5656,225770.0252,211937.4281,212704.3663,213470.9068,214237.8141,214986.9676,215754.3905,219654.1769,220421.0023,221170.562,221937.0488,222703.803,223470.5581,224237.0767,225003.6151,225012.7591
Mixed,both,done,47,M_dime.wav,None,728.3569002,3320,218887.5656,225770.0252,226536.6016,212704.3663,213470.9068,214237.8141,214986.9676,215754.3905,219654.1769,220421.0023,221170.562,221937.0488,222703.803,223470.5581,224237.0767,225003.6151,225779.1327
Mixed,both,done,47,M_done.wav,None,727.3422061,3320,218887.5656,225770.0252,226536.6016,227303.3865,213470.9068,214237.8141,214986.9676,215754.3905,219654.1769,220421.0023,221170.562,221937.0488,222703.803,223470.5581,224237.0767,225003.6151,226545.4538
Mixed,both,done,47,F_romp.wav,space,628.7313662,3320,218887.5656,225770.0252,226536.6016,227303.3865,228070.8063,214237.8141,214986.9676,215754.3905,219654.1769,220421.0023,221170.562,221937.0488,222703.803,223470.5581,224237.0767,225003.6151,227312.1458
Mixed,both,done,47,M_done.wav,None,722.671892,3320,218887.5656,225770.0252,226536.6016,227303.3865,228070.8063,228836.8995,214986.9676,215754.3905,219654.1769,220421.0023,221170.562,221937.0488,222703.803,223470.5581,224237.0767,225003.6151,228080.3334
Mixed,both,done,47,M_jolt.wav,None,722.6193328,3320,218887.5656,225770.0252,226536.6016,227303.3865,228070.8063,228836.8995,229603.6701,215754.3905,219654.1769,220421.0023,221170.562,221937.0488,222703.803,223470.5581,224237.0767,225003.6151,228846.14
Mixed,both,done,47,M_cling.wav,space,0.027515925,3320,218887.5656,225770.0252,226536.6016,227303.3865,228070.8063,228836.8995,229603.6701,230353.0109,219654.1769,220421.0023,221170.562,221937.0488,222703.803,223470.5581,224237.0767,225003.6151,229612.721
Mixed,both,cave,23,F_knife.wav,None,736.0227574,3320,233487.2495,225770.0252,226536.6016,227303.3865,228070.8063,228836.8995,229603.6701,230353.0109,219654.1769,220421.0023,221170.562,221937.0488,222703.803,223470.5581,224237.0767,225003.6151,230362.3633
Mixed,both,cave,23,M_cave.wav,None,720.4981213,3320,233487.2495,225770.0252,226536.6016,227303.3865,228070.8063,228836.8995,229603.6701,230353.0109,234253.8195,220421.0023,221170.562,221937.0488,222703.803,223470.5581,224237.0767,225003.6151,233496.9494
Mixed,both,cave,23,F_reek.wav,space,525.4267161,3320,233487.2495,225770.0252,226536.6016,227303.3865,228070.8063,228836.8995,229603.6701,230353.0109,234253.8195,235003.1557,221170.562,221937.0488,222703.803,223470.5581,224237.0767,225003.6151,234263.2433
Mixed,both,cave,23,M_cad.wav,None,734.8843953,3320,233487.2495,225770.0252,226536.6016,227303.3865,228070.8063,228836.8995,229603.6701,230353.0109,234253.8195,235003.1557,235769.8567,221937.0488,222703.803,223470.5581,224237.0767,225003.6151,235012.321
Mixed,both,cave,23,M_romp.wav,None,733.5308515,3320,233487.2495,225770.0252,226536.6016,227303.3865,228070.8063,228836.8995,229603.6701,230353.0109,234253.8195,235003.1557,235769.8567,236536.7086,222703.803,223470.5581,224237.0767,225003.6151,235779.3025
Mixed,both,cave,23,F_cave.wav,None,732.3309644,3320,233487.2495,225770.0252,226536.6016,227303.3865,228070.8063,228836.8995,229603.6701,230353.0109,234253.8195,235003.1557,235769.8567,236536.7086,237303.0909,223470.5581,224237.0767,225003.6151,236546.0913
Mixed,both,cave,23,M_greet.wav,space,708.4228895,3320,233487.2495,225770.0252,226536.6016,227303.3865,228070.8063,228836.8995,229603.6701,230353.0109,234253.8195,235003.1557,235769.8567,236536.7086,237303.0909,238069.5798,224237.0767,225003.6151,237312.153
Mixed,both,cave,23,M_cave.wav,None,729.8563723,3320,233487.2495,225770.0252,226536.6016,227303.3865,228070.8063,228836.8995,229603.6701,230353.0109,234253.8195,235003.1557,235769.8567,236536.7086,237303.0909,238069.5798,238836.1986,225003.6151,238078.6886
Mixed,both,cave,23,F_bluff.wav,None,728.7582024,3320,233487.2495,225770.0252,226536.6016,227303.3865,228070.8063,228836.8995,229603.6701,230353.0109,234253.8195,235003.1557,235769.8567,236536.7086,237303.0909,238069.5798,238836.1986,239602.9837,238845.7417
Mixed,both,cave,23,M_dime.wav,space,0.027515925,3320,233487.2495,240370.0103,226536.6016,227303.3865,228070.8063,228836.8995,229603.6701,230353.0109,234253.8195,235003.1557,235769.8567,236536.7086,237303.0909,238069.5798,238836.1986,239602.9837,239611.9871
Mixed,both,cave,23,M_reek.wav,None,724.7918672,3320,233487.2495,240370.0103,241136.8863,227303.3865,228070.8063,228836.8995,229603.6701,230353.0109,234253.8195,235003.1557,235769.8567,236536.7086,237303.0909,238069.5798,238836.1986,239602.9837,240379.5405
Mixed,both,cave,23,F_cave.wav,None,723.5335475,3320,233487.2495,240370.0103,241136.8863,241903.149,228070.8063,228836.8995,229603.6701,230353.0109,234253.8195,235003.1557,235769.8567,236536.7086,237303.0909,238069.5798,238836.1986,239602.9837,241146.6261
Mixed,both,cave,23,F_park.wav,space,659.9395513,3320,233487.2495,240370.0103,241136.8863,241903.149,242670.3712,228836.8995,229603.6701,230353.0109,234253.8195,235003.1557,235769.8567,236536.7086,237303.0909,238069.5798,238836.1986,239602.9837,241912.5304
Mixed,both,cave,23,F_bluff.wav,None,719.7156139,3320,233487.2495,240370.0103,241136.8863,241903.149,242670.3712,243436.8184,229603.6701,230353.0109,234253.8195,235003.1557,235769.8567,236536.7086,237303.0909,238069.5798,238836.1986,239602.9837,242680.2239
Mixed,both,cave,23,F_lash.wav,None,719.6271913,3320,233487.2495,240370.0103,241136.8863,241903.149,242670.3712,243436.8184,244202.9744,230353.0109,234253.8195,235003.1557,235769.8567,236536.7086,237303.0909,238069.5798,238836.1986,239602.9837,243446.6185
Mixed,both,cave,23,M_gnash.wav,None,719.8281512,3320,233487.2495,240370.0103,241136.8863,241903.149,242670.3712,243436.8184,244202.9744,244952.5181,234253.8195,235003.1557,235769.8567,236536.7086,237303.0909,238069.5798,238836.1986,239602.9837,244212.4616
Mixed,both,cave,14,M_lash.wav,None,735.2155158,3320,248086.1603,240370.0103,241136.8863,241903.149,242670.3712,243436.8184,244202.9744,244952.5181,234253.8195,235003.1557,235769.8567,236536.7086,237303.0909,238069.5798,238836.1986,239602.9837,244962.4835
Mixed,both,cave,14,F_knife.wav,None,722.0359305,3320,248086.1603,240370.0103,241136.8863,241903.149,242670.3712,243436.8184,244202.9744,244952.5181,248853.326,235003.1557,235769.8567,236536.7086,237303.0909,238069.5798,238836.1986,239602.9837,248095.3806
Mixed,both,cave,14,M_cave.wav,None,720.1490696,3320,248086.1603,240370.0103,241136.8863,241903.149,242670.3712,243436.8184,244202.9744,244952.5181,248853.326,249620.2858,235769.8567,236536.7086,237303.0909,238069.5798,238836.1986,239602.9837,248863.3013
Mixed,both,cave,14,M_depth.wav,space,662.0304645,3320,248086.1603,240370.0103,241136.8863,241903.149,242670.3712,243436.8184,244202.9744,244952.5181,248853.326,249620.2858,250386.1384,236536.7086,237303.0909,238069.5798,238836.1986,239602.9837,249630.1582
Mixed,both,cave,14,M_greet.wav,None,721.7864306,3320,248086.1603,240370.0103,241136.8863,241903.149,242670.3712,243436.8184,244202.9744,244952.5181,248853.326,249620.2858,250386.1384,251153.2071,237303.0909,238069.5798,238836.1986,239602.9837,250395.1084
Mixed,both,cave,14,F_lash.wav,None,719.6482145,3320,248086.1603,240370.0103,241136.8863,241903.149,242670.3712,243436.8184,244202.9744,244952.5181,248853.326,249620.2858,250386.1384,251153.2071,251920.1047,238069.5798,238836.1986,239602.9837,251162.6145
Mixed,both,cave,14,F_cad.wav,None,717.8386459,3320,248086.1603,240370.0103,241136.8863,241903.149,242670.3712,243436.8184,244202.9744,244952.5181,248853.326,249620.2858,250386.1384,251153.2071,251920.1047,252668.9351,238836.1986,239602.9837,251930.2096
Mixed,both,cave,14,F_knife.wav,None,736.6531538,3320,248086.1603,240370.0103,241136.8863,241903.149,242670.3712,243436.8184,244202.9744,244952.5181,248853.326,249620.2858,250386.1384,251153.2071,251920.1047,252668.9351,253436.022,239602.9837,252677.7125
Mixed,both,cave,14,M_jolt.wav,None,734.5164837,3320,248086.1603,240370.0103,241136.8863,241903.149,242670.3712,243436.8184,244202.9744,244952.5181,248853.326,249620.2858,250386.1384,251153.2071,251920.1047,252668.9351,253436.022,254202.6723,253445.5893
Mixed,both,cave,14,M_dime.wav,None,734.0313969,3320,248086.1603,254968.9368,241136.8863,241903.149,242670.3712,243436.8184,244202.9744,244952.5181,248853.326,249620.2858,250386.1384,251153.2071,251920.1047,252668.9351,253436.022,254202.6723,254212.4947
Mixed,both,cave,14,M_cave.wav,None,733.9136028,3320,248086.1603,254968.9368,255736.3245,241903.149,242670.3712,243436.8184,244202.9744,244952.5181,248853.326,249620.2858,250386.1384,251153.2071,251920.1047,252668.9351,253436.022,254202.6723,254978.0023
Mixed,both,cave,14,F_jolt.wav,space,650.4696901,3320,248086.1603,254968.9368,255736.3245,256502.5049,242670.3712,243436.8184,244202.9744,244952.5181,248853.326,249620.2858,250386.1384,251153.2071,251920.1047,252668.9351,253436.022,254202.6723,255745.5755
Mixed,both,cave,14,F_cave.wav,None,730.9647449,3320,248086.1603,254968.9368,255736.3245,256502.5049,257269.039,243436.8184,244202.9744,244952.5181,248853.326,249620.2858,250386.1384,251153.2071,251920.1047,252668.9351,253436.022,254202.6723,256511.4068
Mixed,both,cave,14,M_jaw.wav,None,730.0594966,3320,248086.1603,254968.9368,255736.3245,256502.5049,257269.039,258035.6908,244202.9744,244952.5181,248853.326,249620.2858,250386.1384,251153.2071,251920.1047,252668.9351,253436.022,254202.6723,257277.8302
Mixed,both,cave,14,F_cave.wav,space,31.33772686,3320,248086.1603,254968.9368,255736.3245,256502.5049,257269.039,258035.6908,258802.4494,244952.5181,248853.326,249620.2858,250386.1384,251153.2071,251920.1047,252668.9351,253436.022,254202.6723,258044.6685
Mixed,both,cave,14,F_gnash.wav,space,504.3868055,3320,248086.1603,254968.9368,255736.3245,256502.5049,257269.039,258035.6908,258802.4494,259569.7224,248853.326,249620.2858,250386.1384,251153.2071,251920.1047,252668.9351,253436.022,254202.6723,258811.5631
Mixed,both,cave,24,F_lash.wav,None,723.0682471,3320,262702.8931,254968.9368,255736.3245,256502.5049,257269.039,258035.6908,258802.4494,259569.7224,248853.326,249620.2858,250386.1384,251153.2071,251920.1047,252668.9351,253436.022,254202.6723,259579.4733
Mixed,both,cave,24,F_cave.wav,None,721.2327081,3320,262702.8931,254968.9368,255736.3245,256502.5049,257269.039,258035.6908,258802.4494,259569.7224,263469.2213,249620.2858,250386.1384,251153.2071,251920.1047,252668.9351,253436.022,254202.6723,262712.6931
Mixed,both,cave,24,F_gnash.wav,space,581.0988625,3320,262702.8931,254968.9368,255736.3245,256502.5049,257269.039,258035.6908,258802.4494,259569.7224,263469.2213,264236.1953,250386.1384,251153.2071,251920.1047,252668.9351,253436.022,254202.6723,263478.7196
Mixed,both,cave,24,M_gnash.wav,None,718.0581563,3320,262702.8931,254968.9368,255736.3245,256502.5049,257269.039,258035.6908,258802.4494,259569.7224,263469.2213,264236.1953,264985.5435,251153.2071,251920.1047,252668.9351,253436.022,254202.6723,264246.524
Mixed,both,cave,24,F_greet.wav,None,734.9344809,3320,262702.8931,254968.9368,255736.3245,256502.5049,257269.039,258035.6908,258802.4494,259569.7224,263469.2213,264236.1953,264985.5435,265751.9135,251920.1047,252668.9351,253436.022,254202.6723,264995.3878
Mixed,both,cave,24,M_priest.wav,None,735.0640227,3320,262702.8931,254968.9368,255736.3245,256502.5049,257269.039,258035.6908,258802.4494,259569.7224,263469.2213,264236.1953,264985.5435,265751.9135,266518.7669,252668.9351,253436.022,254202.6723,265761.1122
Mixed,both,cave,24,F_reek.wav,None,734.099105,3320,262702.8931,254968.9368,255736.3245,256502.5049,257269.039,258035.6908,258802.4494,259569.7224,263469.2213,264236.1953,264985.5435,265751.9135,266518.7669,267285.7811,253436.022,254202.6723,266527.9155
Mixed,both,cave,24,M_cave.wav,None,732.3927986,3320,262702.8931,254968.9368,255736.3245,256502.5049,257269.039,258035.6908,258802.4494,259569.7224,263469.2213,264236.1953,264985.5435,265751.9135,266518.7669,267285.7811,268052.3532,254202.6723,267295.1959
Mixed,both,cave,24,M_depth.wav,space,525.5618226,3320,262702.8931,254968.9368,255736.3245,256502.5049,257269.039,258035.6908,258802.4494,259569.7224,263469.2213,264236.1953,264985.5435,265751.9135,266518.7669,267285.7811,268052.3532,268819.1801,268062.1465
Mixed,both,cave,24,F_cave.wav,None,728.9474141,3320,262702.8931,269585.712,255736.3245,256502.5049,257269.039,258035.6908,258802.4494,259569.7224,263469.2213,264236.1953,264985.5435,265751.9135,266518.7669,267285.7811,268052.3532,268819.1801,268828.6017
Mixed,both,cave,24,F_knife.wav,space,720.7136126,3320,262702.8931,269585.712,270352.2408,256502.5049,257269.039,258035.6908,258802.4494,259569.7224,263469.2213,264236.1953,264985.5435,265751.9135,266518.7669,267285.7811,268052.3532,268819.1801,269594.9228
Mixed,both,cave,24,M_bluff.wav,None,726.1379911,3320,262702.8931,269585.712,270352.2408,271118.6252,257269.039,258035.6908,258802.4494,259569.7224,263469.2213,264236.1953,264985.5435,265751.9135,266518.7669,267285.7811,268052.3532,268819.1801,270361.7008
Mixed,both,cave,24,F_bluff.wav,None,726.3896549,3320,262702.8931,269585.712,270352.2408,271118.6252,271885.6914,258035.6908,258802.4494,259569.7224,263469.2213,264236.1953,264985.5435,265751.9135,266518.7669,267285.7811,268052.3532,268819.1801,271127.5531
Mixed,both,cave,24,M_jolt.wav,None,724.4072603,3320,262702.8931,269585.712,270352.2408,271118.6252,271885.6914,272652.6212,258802.4494,259569.7224,263469.2213,264236.1953,264985.5435,265751.9135,266518.7669,267285.7811,268052.3532,268819.1801,271895.518
Mixed,both,cave,24,M_cave.wav,None,723.9688579,3320,262702.8931,269585.712,270352.2408,271118.6252,271885.6914,272652.6212,273418.7496,259569.7224,263469.2213,264236.1953,264985.5435,265751.9135,266518.7669,267285.7811,268052.3532,268819.1801,272662.1458
Mixed,both,cave,24,M_romp.wav,space,567.5495104,3320,262702.8931,269585.712,270352.2408,271118.6252,271885.6914,272652.6212,273418.7496,274185.8829,263469.2213,264236.1953,264985.5435,265751.9135,266518.7669,267285.7811,268052.3532,268819.1801,273427.9604
Mixed,both,done,40,F_gnash.wav,None,721.4200646,3320,277302.6129,269585.712,270352.2408,271118.6252,271885.6914,272652.6212,273418.7496,274185.8829,263469.2213,264236.1953,264985.5435,265751.9135,266518.7669,267285.7811,268052.3532,268819.1801,274195.5457
Mixed,both,done,40,M_dime.wav,None,721.5928906,3320,277302.6129,269585.712,270352.2408,271118.6252,271885.6914,272652.6212,273418.7496,274185.8829,278068.5936,264236.1953,264985.5435,265751.9135,266518.7669,267285.7811,268052.3532,268819.1801,277312.0775
Mixed,both,done,40,F_lash.wav,None,721.6055663,3320,277302.6129,269585.712,270352.2408,271118.6252,271885.6914,272652.6212,273418.7496,274185.8829,278068.5936,278835.8258,264985.5435,265751.9135,266518.7669,267285.7811,268052.3532,268819.1801,278077.7042
Mixed,both,done,40,F_done.wav,None,719.714995,3320,277302.6129,269585.712,270352.2408,271118.6252,271885.6914,272652.6212,273418.7496,274185.8829,278068.5936,278835.8258,279602.4047,265751.9135,266518.7669,267285.7811,268052.3532,268819.1801,278845.7699
Mixed,both,done,40,M_dime.wav,None,719.2020831,3320,277302.6129,269585.712,270352.2408,271118.6252,271885.6914,272652.6212,273418.7496,274185.8829,278068.5936,278835.8258,279602.4047,280352.2411,266518.7669,267285.7811,268052.3532,268819.1801,279611.8714
Mixed,both,done,40,M_done.wav,space,0.034936238,3320,277302.6129,269585.712,270352.2408,271118.6252,271885.6914,272652.6212,273418.7496,274185.8829,278068.5936,278835.8258,279602.4047,280352.2411,281118.3451,267285.7811,268052.3532,268819.1801,280361.5332
Mixed,both,done,40,F_cling.wav,None,733.7852982,3320,277302.6129,269585.712,270352.2408,271118.6252,271885.6914,272652.6212,273418.7496,274185.8829,278068.5936,278835.8258,279602.4047,280352.2411,281118.3451,281885.3661,268052.3532,268819.1801,281127.3763
Mixed,both,done,40,M_gnash.wav,space,28.3959792,3320,277302.6129,269585.712,270352.2408,271118.6252,271885.6914,272652.6212,273418.7496,274185.8829,278068.5936,278835.8258,279602.4047,280352.2411,281118.3451,281885.3661,282651.8922,268819.1801,281894.8728
Mixed,both,done,40,M_romp.wav,None,722.3766353,3320,277302.6129,269585.712,270352.2408,271118.6252,271885.6914,272652.6212,273418.7496,274185.8829,278068.5936,278835.8258,279602.4047,280352.2411,281118.3451,281885.3661,282651.8922,283418.2711,282669.1234
Mixed,both,done,40,F_priest.wav,None,729.9160422,3320,277302.6129,284184.9121,270352.2408,271118.6252,271885.6914,272652.6212,273418.7496,274185.8829,278068.5936,278835.8258,279602.4047,280352.2411,281118.3451,281885.3661,282651.8922,283418.2711,283427.8476
Mixed,both,done,40,M_reek.wav,None,729.8526624,3320,277302.6129,284184.9121,284951.8469,271118.6252,271885.6914,272652.6212,273418.7496,274185.8829,278068.5936,278835.8258,279602.4047,280352.2411,281118.3451,281885.3661,282651.8922,283418.2711,284194.3003
Mixed,both,done,40,F_bluff.wav,None,728.4824229,3320,277302.6129,284184.9121,284951.8469,285718.6555,271885.6914,272652.6212,273418.7496,274185.8829,278068.5936,278835.8258,279602.4047,280352.2411,281118.3451,281885.3661,282651.8922,283418.2711,284961.4614
Mixed,both,done,40,F_done.wav,None,727.6050001,3320,277302.6129,284184.9121,284951.8469,285718.6555,286484.9172,272652.6212,273418.7496,274185.8829,278068.5936,278835.8258,279602.4047,280352.2411,281118.3451,281885.3661,282651.8922,283418.2711,285728.4296
Mixed,both,done,40,F_priest.wav,space,492.6318731,3320,277302.6129,284184.9121,284951.8469,285718.6555,286484.9172,287251.616,273418.7496,274185.8829,278068.5936,278835.8258,279602.4047,280352.2411,281118.3451,281885.3661,282651.8922,283418.2711,286494.4847
Mixed,both,done,40,M_done.wav,None,724.6341906,3320,277302.6129,284184.9121,284951.8469,285718.6555,286484.9172,287251.616,288018.7941,274185.8829,278068.5936,278835.8258,279602.4047,280352.2411,281118.3451,281885.3661,282651.8922,283418.2711,287261.6189
Mixed,both,done,40,M_gnash.wav,None,723.2871396,3320,277302.6129,284184.9121,284951.8469,285718.6555,286484.9172,287251.616,288018.7941,288785.587,278068.5936,278835.8258,279602.4047,280352.2411,281118.3451,281885.3661,282651.8922,283418.2711,288028.9064
Mixed,both,ball,9,M_cad.wav,space,71.44102687,3320,291918.7629,284184.9121,284951.8469,285718.6555,286484.9172,287251.616,288018.7941,288785.587,278068.5936,278835.8258,279602.4047,280352.2411,281118.3451,281885.3661,282651.8922,283418.2711,288795.6309
Mixed,both,ball,9,F_ball.wav,None,721.0920365,3320,291918.7629,284184.9121,284951.8469,285718.6555,286484.9172,287251.616,288018.7941,288785.587,292685.2834,278835.8258,279602.4047,280352.2411,281118.3451,281885.3661,282651.8922,283418.2711,291929.0135
Mixed,both,ball,9,M_lash.wav,None,721.2636252,3320,291918.7629,284184.9121,284951.8469,285718.6555,286484.9172,287251.616,288018.7941,288785.587,292685.2834,293452.1903,279602.4047,280352.2411,281118.3451,281885.3661,282651.8922,283418.2711,292695.1549
Mixed,both,ball,9,F_romp.wav,space,516.6929872,3320,291918.7629,284184.9121,284951.8469,285718.6555,286484.9172,287251.616,288018.7941,288785.587,292685.2834,293452.1903,294218.7062,280352.2411,281118.3451,281885.3661,282651.8922,283418.2711,293462.2387
Mixed,both,ball,9,F_romp.wav,None,717.5702867,3320,291918.7629,284184.9121,284951.8469,285718.6555,286484.9172,287251.616,288018.7941,288785.587,292685.2834,293452.1903,294218.7062,294968.0408,281118.3451,281885.3661,282651.8922,283418.2711,294229.4245
Mixed,both,ball,9,F_ball.wav,None,735.4749087,3320,291918.7629,284184.9121,284951.8469,285718.6555,286484.9172,287251.616,288018.7941,288785.587,292685.2834,293452.1903,294218.7062,294968.0408,295734.757,281885.3661,282651.8922,283418.2711,294978.1968
Mixed,both,ball,9,M_reek.wav,space,530.3069558,3320,291918.7629,284184.9121,284951.8469,285718.6555,286484.9172,287251.616,288018.7941,288785.587,292685.2834,293452.1903,294218.7062,294968.0408,295734.757,296501.1838,282651.8922,283418.2711,295744.5166
Mixed,both,ball,9,F_gnash.wav,None,733.6226748,3320,291918.7629,284184.9121,284951.8469,285718.6555,286484.9172,287251.616,288018.7941,288785.587,292685.2834,293452.1903,294218.7062,294968.0408,295734.757,296501.1838,297267.8511,283418.2711,296510.5368
Mixed,both,ball,9,M_bluff.wav,None,734.0273773,3320,291918.7629,284184.9121,284951.8469,285718.6555,286484.9172,287251.616,288018.7941,288785.587,292685.2834,293452.1903,294218.7062,294968.0408,295734.757,296501.1838,297267.8511,298034.8669,297276.9667
Mixed,both,ball,9,M_jolt.wav,None,732.3009749,3320,291918.7629,298801.2659,284951.8469,285718.6555,286484.9172,287251.616,288018.7941,288785.587,292685.2834,293452.1903,294218.7062,294968.0408,295734.757,296501.1838,297267.8511,298034.8669,298045.0701
Mixed,both,ball,9,M_ball.wav,None,732.9740371,3320,291918.7629,298801.2659,299568.1815,285718.6555,286484.9172,287251.616,288018.7941,288785.587,292685.2834,293452.1903,294218.7062,294968.0408,295734.757,296501.1838,297267.8511,298034.8669,298810.7091
Mixed,both,ball,9,M_priest.wav,space,496.9958002,3320,291918.7629,298801.2659,299568.1815,300334.9016,286484.9172,287251.616,288018.7941,288785.587,292685.2834,293452.1903,294218.7062,294968.0408,295734.757,296501.1838,297267.8511,298034.8669,299577.715
Mixed,both,ball,9,M_ball.wav,None,729.8062867,3320,291918.7629,298801.2659,299568.1815,300334.9016,301101.3841,287251.616,288018.7941,288785.587,292685.2834,293452.1903,294218.7062,294968.0408,295734.757,296501.1838,297267.8511,298034.8669,300344.3935
Mixed,both,ball,9,F_reek.wav,space,651.5520923,3320,291918.7629,298801.2659,299568.1815,300334.9016,301101.3841,301868.1429,288018.7941,288785.587,292685.2834,293452.1903,294218.7062,294968.0408,295734.757,296501.1838,297267.8511,298034.8669,301111.1372
Mixed,both,ball,9,F_depth.wav,None,726.743036,3320,291918.7629,298801.2659,299568.1815,300334.9016,301101.3841,301868.1429,302634.7546,288785.587,292685.2834,293452.1903,294218.7062,294968.0408,295734.757,296501.1838,297267.8511,298034.8669,301877.8873
Mixed,both,ball,9,F_park.wav,None,726.4805511,3320,291918.7629,298801.2659,299568.1815,300334.9016,301101.3841,301868.1429,302634.7546,303401.3215,292685.2834,293452.1903,294218.7062,294968.0408,295734.757,296501.1838,297267.8511,298034.8669,302644.324
Mixed,both,cave,18,F_jaw.wav,None,725.4571998,3320,306534.9423,298801.2659,299568.1815,300334.9016,301101.3841,301868.1429,302634.7546,303401.3215,292685.2834,293452.1903,294218.7062,294968.0408,295734.757,296501.1838,297267.8511,298034.8669,303411.2041
Mixed,both,cave,18,F_gnash.wav,None,720.0009772,3320,306534.9423,298801.2659,299568.1815,300334.9016,301101.3841,301868.1429,302634.7546,303401.3215,307301.6548,293452.1903,294218.7062,294968.0408,295734.757,296501.1838,297267.8511,298034.8669,306545.1993
Mixed,both,cave,18,F_cave.wav,None,719.476935,3320,306534.9423,298801.2659,299568.1815,300334.9016,301101.3841,301868.1429,302634.7546,303401.3215,307301.6548,308067.8182,294218.7062,294968.0408,295734.757,296501.1838,297267.8511,298034.8669,307311.4842
Mixed,both,cave,18,M_bluff.wav,space,637.3083461,3320,306534.9423,298801.2659,299568.1815,300334.9016,301101.3841,301868.1429,302634.7546,303401.3215,307301.6548,308067.8182,308817.4277,294968.0408,295734.757,296501.1838,297267.8511,298034.8669,308077.1724
Mixed,both,cave,18,M_knife.wav,None,734.5888293,3320,306534.9423,298801.2659,299568.1815,300334.9016,301101.3841,301868.1429,302634.7546,303401.3215,307301.6548,308067.8182,308817.4277,309584.4299,295734.757,296501.1838,297267.8511,298034.8669,308827.0803
Mixed,both,cave,18,F_cave.wav,None,734.2199902,3320,306534.9423,298801.2659,299568.1815,300334.9016,301101.3841,301868.1429,302634.7546,303401.3215,307301.6548,308067.8182,308817.4277,309584.4299,310351.0542,296501.1838,297267.8511,298034.8669,309593.6493
Mixed,both,cave,18,M_park.wav,space,497.5844589,3320,306534.9423,298801.2659,299568.1815,300334.9016,301101.3841,301868.1429,302634.7546,303401.3215,307301.6548,308067.8182,308817.4277,309584.4299,310351.0542,311117.4312,297267.8511,298034.8669,310360.8437
Mixed,both,cave,18,M_romp.wav,None,731.4587976,3320,306534.9423,298801.2659,299568.1815,300334.9016,301101.3841,301868.1429,302634.7546,303401.3215,307301.6548,308067.8182,308817.4277,309584.4299,310351.0542,311117.4312,311884.0506,298034.8669,311126.7641
Mixed,both,cave,18,F_greet.wav,None,730.8132518,3320,306534.9423,298801.2659,299568.1815,300334.9016,301101.3841,301868.1429,302634.7546,303401.3215,307301.6548,308067.8182,308817.4277,309584.4299,310351.0542,311117.4312,311884.0506,312650.811,311893.7898
Mixed,both,cave,18,F_jolt.wav,None,731.0318346,3320,306534.9423,313417.5878,299568.1815,300334.9016,301101.3841,301868.1429,302634.7546,303401.3215,307301.6548,308067.8182,308817.4277,309584.4299,310351.0542,311117.4312,311884.0506,312650.811,312659.8737
Mixed,both,cave,18,F_dime.wav,None,730.5943598,3320,306534.9423,313417.5878,314183.7821,300334.9016,301101.3841,301868.1429,302634.7546,303401.3215,307301.6548,308067.8182,308817.4277,309584.4299,310351.0542,311117.4312,311884.0506,312650.811,313426.801
Mixed,both,cave,18,M_cave.wav,None,733.7556174,3320,306534.9423,313417.5878,314183.7821,314951.1253,301101.3841,301868.1429,302634.7546,303401.3215,307301.6548,308067.8182,308817.4277,309584.4299,310351.0542,311117.4312,311884.0506,312650.811,314192.8689
Mixed,both,cave,18,F_cling.wav,space,497.223658,3320,306534.9423,313417.5878,314183.7821,314951.1253,315717.2246,301868.1429,302634.7546,303401.3215,307301.6548,308067.8182,308817.4277,309584.4299,310351.0542,311117.4312,311884.0506,312650.811,314961.0876
Mixed,both,cave,18,M_cave.wav,None,730.7662577,3320,306534.9423,313417.5878,314183.7821,314951.1253,315717.2246,316484.3245,302634.7546,303401.3215,307301.6548,308067.8182,308817.4277,309584.4299,310351.0542,311117.4312,311884.0506,312650.811,315726.3739
Mixed,both,cave,18,M_priest.wav,space,491.9201648,3320,306534.9423,313417.5878,314183.7821,314951.1253,315717.2246,316484.3245,317250.7559,303401.3215,307301.6548,308067.8182,308817.4277,309584.4299,310351.0542,311117.4312,311884.0506,312650.811,316494.3351
Mixed,both,cave,18,M_gnash.wav,None,727.7169195,3320,306534.9423,313417.5878,314183.7821,314951.1253,315717.2246,316484.3245,317250.7559,318017.1994,307301.6548,308067.8182,308817.4277,309584.4299,310351.0542,311117.4312,311884.0506,312650.811,317259.8971
Mixed,both,tile,29,F_dime.wav,None,727.3969292,3320,321151.2018,313417.5878,314183.7821,314951.1253,315717.2246,316484.3245,317250.7559,318017.1994,307301.6548,308067.8182,308817.4277,309584.4299,310351.0542,311117.4312,311884.0506,312650.811,318026.6198
Mixed,both,tile,29,M_park.wav,None,721.4015145,3320,321151.2018,313417.5878,314183.7821,314951.1253,315717.2246,316484.3245,317250.7559,318017.1994,321917.9461,308067.8182,308817.4277,309584.4299,310351.0542,311117.4312,311884.0506,312650.811,321160.9484
Mixed,both,tile,29,F_lash.wav,None,719.6587264,3320,321151.2018,313417.5878,314183.7821,314951.1253,315717.2246,316484.3245,317250.7559,318017.1994,321917.9461,322684.636,308817.4277,309584.4299,310351.0542,311117.4312,311884.0506,312650.811,321928.5219
Mixed,both,tile,29,M_park.wav,None,720.5256373,3320,321151.2018,313417.5878,314183.7821,314951.1253,315717.2246,316484.3245,317250.7559,318017.1994,321917.9461,322684.636,323451.0823,309584.4299,310351.0542,311117.4312,311884.0506,312650.811,322694.3309
Mixed,both,tile,29,M_priest.wav,None,719.976862,3320,321151.2018,313417.5878,314183.7821,314951.1253,315717.2246,316484.3245,317250.7559,318017.1994,321917.9461,322684.636,323451.0823,324217.9067,310351.0542,311117.4312,311884.0506,312650.811,323461.2261
Mixed,both,tile,29,M_tile.wav,None,718.9590759,3320,321151.2018,313417.5878,314183.7821,314951.1253,315717.2246,316484.3245,317250.7559,318017.1994,321917.9461,322684.636,323451.0823,324217.9067,324984.4837,311117.4312,311884.0506,312650.811,324228.2784
Mixed,both,tile,29,M_priest.wav,space,471.7882858,3320,321151.2018,313417.5878,314183.7821,314951.1253,315717.2246,316484.3245,317250.7559,318017.1994,321917.9461,322684.636,323451.0823,324217.9067,324984.4837,325733.6415,311884.0506,312650.811,324994.1975
Mixed,both,tile,29,M_tile.wav,None,735.8038654,3320,321151.2018,313417.5878,314183.7821,314951.1253,315717.2246,316484.3245,317250.7559,318017.1994,321917.9461,322684.636,323451.0823,324217.9067,324984.4837,325733.6415,326500.341,312650.811,325743.0743
Mixed,both,tile,29,M_knife.wav,space,548.3077299,3320,321151.2018,313417.5878,314183.7821,314951.1253,315717.2246,316484.3245,317250.7559,318017.1994,321917.9461,322684.636,323451.0823,324217.9067,324984.4837,325733.6415,326500.341,327267.2415,326509.6195
Mixed,both,tile,29,F_tile.wav,None,732.5789188,3320,321151.2018,328033.4957,314183.7821,314951.1253,315717.2246,316484.3245,317250.7559,318017.1994,321917.9461,322684.636,323451.0823,324217.9067,324984.4837,325733.6415,326500.341,327267.2415,327276.9287
Mixed,both,tile,29,F_cling.wav,space,574.9813262,3320,321151.2018,328033.4957,328800.3241,314951.1253,315717.2246,316484.3245,317250.7559,318017.1994,321917.9461,322684.636,323451.0823,324217.9067,324984.4837,325733.6415,326500.341,327267.2415,328042.8905
Mixed,both,tile,29,F_jolt.wav,None,731.3564625,3320,321151.2018,328033.4957,328800.3241,329567.2802,315717.2246,316484.3245,317250.7559,318017.1994,321917.9461,322684.636,323451.0823,324217.9067,324984.4837,325733.6415,326500.341,327267.2415,328809.9857
Mixed,both,tile,29,F_tile.wav,None,730.0159037,3320,321151.2018,328033.4957,328800.3241,329567.2802,330333.8968,316484.3245,317250.7559,318017.1994,321917.9461,322684.636,323451.0823,324217.9067,324984.4837,325733.6415,326500.341,327267.2415,329577.4516
Mixed,both,tile,29,M_cad.wav,space,530.4327877,3320,321151.2018,328033.4957,328800.3241,329567.2802,330333.8968,331100.4587,317250.7559,318017.1994,321917.9461,322684.636,323451.0823,324217.9067,324984.4837,325733.6415,326500.341,327267.2415,330343.3924
Mixed,both,tile,29,F_bluff.wav,None,728.553223,3320,321151.2018,328033.4957,328800.3241,329567.2802,330333.8968,331100.4587,331867.0584,318017.1994,321917.9461,322684.636,323451.0823,324217.9067,324984.4837,325733.6415,326500.341,327267.2415,331110.004
Mixed,both,tile,29,F_priest.wav,None,727.9988821,3320,321151.2018,328033.4957,328800.3241,329567.2802,330333.8968,331100.4587,331867.0584,332633.8398,321917.9461,322684.636,323451.0823,324217.9067,324984.4837,325733.6415,326500.341,327267.2415,331876.9886
Mixed,both,done,45,M_lash.wav,None,728.3794694,3320,335767.4396,328033.4957,328800.3241,329567.2802,330333.8968,331100.4587,331867.0584,332633.8398,321917.9461,322684.636,323451.0823,324217.9067,324984.4837,325733.6415,326500.341,327267.2415,332643.2954
Mixed,both,done,45,F_greet.wav,None,720.9130269,3320,335767.4396,328033.4957,328800.3241,329567.2802,330333.8968,331100.4587,331867.0584,332633.8398,336534.1342,322684.636,323451.0823,324217.9067,324984.4837,325733.6415,326500.341,327267.2415,335777.943
Mixed,both,done,45,M_park.wav,None,721.5625918,3320,335767.4396,328033.4957,328800.3241,329567.2802,330333.8968,331100.4587,331867.0584,332633.8398,336534.1342,337300.6348,323451.0823,324217.9067,324984.4837,325733.6415,326500.341,327267.2415,336543.7237
Mixed,both,done,45,M_cling.wav,None,721.1108953,3320,335767.4396,328033.4957,328800.3241,329567.2802,330333.8968,331100.4587,331867.0584,332633.8398,336534.1342,337300.6348,338067.4583,324217.9067,324984.4837,325733.6415,326500.341,327267.2415,337310.1016
Mixed,both,done,45,M_park.wav,None,719.7823944,3320,335767.4396,328033.4957,328800.3241,329567.2802,330333.8968,331100.4587,331867.0584,332633.8398,336534.1342,337300.6348,338067.4583,338833.2838,324984.4837,325733.6415,326500.341,327267.2415,338078.0183
Mixed,both,done,45,F_done.wav,None,720.9151913,3320,335767.4396,328033.4957,328800.3241,329567.2802,330333.8968,331100.4587,331867.0584,332633.8398,336534.1342,337300.6348,338067.4583,338833.2838,339600.5605,325733.6415,326500.341,327267.2415,338843.0495
Mixed,both,done,45,M_priest.wav,space,462.3617083,3320,335767.4396,328033.4957,328800.3241,329567.2802,330333.8968,331100.4587,331867.0584,332633.8398,336534.1342,337300.6348,338067.4583,338833.2838,339600.5605,340349.969,326500.341,327267.2415,339611.1897
Mixed,both,done,45,M_knife.wav,None,735.1270937,3320,335767.4396,328033.4957,328800.3241,329567.2802,330333.8968,331100.4587,331867.0584,332633.8398,336534.1342,337300.6348,338067.4583,338833.2838,339600.5605,340349.969,341116.3355,327267.2415,340359.6417
Mixed,both,done,45,F_done.wav,None,734.8126681,3320,335767.4396,328033.4957,328800.3241,329567.2802,330333.8968,331100.4587,331867.0584,332633.8398,336534.1342,337300.6348,338067.4583,338833.2838,339600.5605,340349.969,341116.3355,341883.406,341126.0985
Mixed,both,done,45,F_greet.wav,space,452.2778369,3320,335767.4396,342650.1679,328800.3241,329567.2802,330333.8968,331100.4587,331867.0584,332633.8398,336534.1342,337300.6348,338067.4583,338833.2838,339600.5605,340349.969,341116.3355,341883.406,341893.1869
Mixed,both,done,45,M_done.wav,None,731.9927332,3320,335767.4396,342650.1679,343416.3817,329567.2802,330333.8968,331100.4587,331867.0584,332633.8398,336534.1342,337300.6348,338067.4583,338833.2838,339600.5605,340349.969,341116.3355,341883.406,342659.9952
Mixed,both,done,45,F_romp.wav,None,732.7792607,3320,335767.4396,342650.1679,343416.3817,344183.5208,330333.8968,331100.4587,331867.0584,332633.8398,336534.1342,337300.6348,338067.4583,338833.2838,339600.5605,340349.969,341116.3355,341883.406,343425.6556
Mixed,both,done,45,F_jolt.wav,space,0.036481768,3320,335767.4396,342650.1679,343416.3817,344183.5208,344950.2846,331100.4587,331867.0584,332633.8398,336534.1342,337300.6348,338067.4583,338833.2838,339600.5605,340349.969,341116.3355,341883.406,344193.4551
Mixed,both,done,45,F_priest.wav,None,729.2139181,3320,335767.4396,342650.1679,343416.3817,344183.5208,344950.2846,345715.9131,331867.0584,332633.8398,336534.1342,337300.6348,338067.4583,338833.2838,339600.5605,340349.969,341116.3355,341883.406,344960.1635
Mixed,both,done,45,M_done.wav,None,733.3601899,3320,335767.4396,342650.1679,343416.3817,344183.5208,344950.2846,345715.9131,346483.3549,332633.8398,336534.1342,337300.6348,338067.4583,338833.2838,339600.5605,340349.969,341116.3355,341883.406,345725.0945
Mixed,both,done,45,F_romp.wav,space,484.646644,3320,335767.4396,342650.1679,343416.3817,344183.5208,344950.2846,345715.9131,346483.3549,347250.0977,336534.1342,337300.6348,338067.4583,338833.2838,339600.5605,340349.969,341116.3355,341883.406,346492.6742
Mixed,both,done,38,F_cad.wav,None,729.4433219,3320,350383.4845,342650.1679,343416.3817,344183.5208,344950.2846,345715.9131,346483.3549,347250.0977,336534.1342,337300.6348,338067.4583,338833.2838,339600.5605,340349.969,341116.3355,341883.406,347260.116
Mixed,both,done,38,F_jolt.wav,None,720.2405832,3320,350383.4845,342650.1679,343416.3817,344183.5208,344950.2846,345715.9131,346483.3549,347250.0977,351149.8112,337300.6348,338067.4583,338833.2838,339600.5605,340349.969,341116.3355,341883.406,350393.7601
Mixed,both,done,38,M_priest.wav,None,720.7729733,3320,350383.4845,342650.1679,343416.3817,344183.5208,344950.2846,345715.9131,346483.3549,347250.0977,351149.8112,351916.7363,338067.4583,338833.2838,339600.5605,340349.969,341116.3355,341883.406,351159.7506
Mixed,both,done,38,M_done.wav,None,720.3422999,3320,350383.4845,342650.1679,343416.3817,344183.5208,344950.2846,345715.9131,346483.3549,347250.0977,351149.8112,351916.7363,352683.5827,338833.2838,339600.5605,340349.969,341116.3355,341883.406,351926.7237
Mixed,both,done,38,M_cling.wav,None,719.9935569,3320,350383.4845,342650.1679,343416.3817,344183.5208,344950.2846,345715.9131,346483.3549,347250.0977,351149.8112,351916.7363,352683.5827,353450.045,339600.5605,340349.969,341116.3355,341883.406,352693.6103
Mixed,both,done,38,M_priest.wav,space,0.036791433,3320,350383.4845,342650.1679,343416.3817,344183.5208,344950.2846,345715.9131,346483.3549,347250.0977,351149.8112,351916.7363,352683.5827,353450.045,354199.3939,340349.969,341116.3355,341883.406,353461.1776
Mixed,both,done,38,M_cling.wav,None,735.0498009,3320,350383.4845,342650.1679,343416.3817,344183.5208,344950.2846,345715.9131,346483.3549,347250.0977,351149.8112,351916.7363,352683.5827,353450.045,354199.3939,354966.1429,341116.3355,341883.406,354209.3182
Mixed,both,done,38,F_done.wav,None,736.2237177,3320,350383.4845,342650.1679,343416.3817,344183.5208,344950.2846,345715.9131,346483.3549,347250.0977,351149.8112,351916.7363,352683.5827,353450.045,354199.3939,354966.1429,355732.8377,341883.406,354975.3107
Mixed,both,done,38,M_romp.wav,space,418.4485134,3320,350383.4845,342650.1679,343416.3817,344183.5208,344950.2846,345715.9131,346483.3549,347250.0977,351149.8112,351916.7363,352683.5827,353450.045,354199.3939,354966.1429,355732.8377,356499.685,355742.5917
Mixed,both,done,38,F_romp.wav,None,733.0436003,3320,350383.4845,357266.0598,343416.3817,344183.5208,344950.2846,345715.9131,346483.3549,347250.0977,351149.8112,351916.7363,352683.5827,353450.045,354199.3939,354966.1429,355732.8377,356499.685,356509.4646
Mixed,both,done,38,F_jolt.wav,None,733.8570254,3320,350383.4845,357266.0598,358032.9859,344183.5208,344950.2846,345715.9131,346483.3549,347250.0977,351149.8112,351916.7363,352683.5827,353450.045,354199.3939,354966.1429,355732.8377,356499.685,357275.3701
Mixed,both,done,38,F_knife.wav,None,732.6732152,3320,350383.4845,357266.0598,358032.9859,358799.2807,344950.2846,345715.9131,346483.3549,347250.0977,351149.8112,351916.7363,352683.5827,353450.045,354199.3939,354966.1429,355732.8377,356499.685,358043.1814
Mixed,both,done,38,F_done.wav,None,733.6350414,3320,350383.4845,357266.0598,358032.9859,358799.2807,359566.2782,345715.9131,346483.3549,347250.0977,351149.8112,351916.7363,352683.5827,353450.045,354199.3939,354966.1429,355732.8377,356499.685,358808.8034
Mixed,both,done,38,M_greet.wav,space,704.9490614,3320,350383.4845,357266.0598,358032.9859,358799.2807,359566.2782,360332.773,346483.3549,347250.0977,351149.8112,351916.7363,352683.5827,353450.045,354199.3939,354966.1429,355732.8377,356499.685,359575.9716
Mixed,both,done,38,M_done.wav,None,731.2439252,3320,350383.4845,357266.0598,358032.9859,358799.2807,359566.2782,360332.773,361099.5826,347250.0977,351149.8112,351916.7363,352683.5827,353450.045,354199.3939,354966.1429,355732.8377,356499.685,360342.3687
Mixed,both,done,38,F_reek.wav,None,731.0550227,3320,350383.4845,357266.0598,358032.9859,358799.2807,359566.2782,360332.773,361099.5826,361865.9083,351149.8112,351916.7363,352683.5827,353450.045,354199.3939,354966.1429,355732.8377,356499.685,361109.2917
Mixed,both,cave,22,M_knife.wav,space,101.7012978,3320,364999.8633,357266.0598,358032.9859,358799.2807,359566.2782,360332.773,361099.5826,361865.9083,351149.8112,351916.7363,352683.5827,353450.045,354199.3939,354966.1429,355732.8377,356499.685,361875.1886
Mixed,both,cave,22,M_knife.wav,None,719.8031088,3320,364999.8633,357266.0598,358032.9859,358799.2807,359566.2782,360332.773,361099.5826,361865.9083,365766.6228,351916.7363,352683.5827,353450.045,354199.3939,354966.1429,355732.8377,356499.685,365009.5054
Mixed,both,cave,22,M_cave.wav,None,718.893223,3320,364999.8633,357266.0598,358032.9859,358799.2807,359566.2782,360332.773,361099.5826,361865.9083,365766.6228,366532.8088,352683.5827,353450.045,354199.3939,354966.1429,355732.8377,356499.685,365776.7218
Mixed,both,cave,22,M_gnash.wav,space,674.4692796,3320,364999.8633,357266.0598,358032.9859,358799.2807,359566.2782,360332.773,361099.5826,361865.9083,365766.6228,366532.8088,367282.2612,353450.045,354199.3939,354966.1429,355732.8377,356499.685,366542.2492
Mixed,both,cave,22,F_priest.wav,None,735.2946629,3320,364999.8633,357266.0598,358032.9859,358799.2807,359566.2782,360332.773,361099.5826,361865.9083,365766.6228,366532.8088,367282.2612,368049.2093,354199.3939,354966.1429,355732.8377,356499.685,367291.5125
Mixed,both,cave,22,F_priest.wav,None,734.9904403,3320,364999.8633,357266.0598,358032.9859,358799.2807,359566.2782,360332.773,361099.5826,361865.9083,365766.6228,366532.8088,367282.2612,368049.2093,368815.846,354966.1429,355732.8377,356499.685,368058.4485
Mixed,both,cave,22,F_greet.wav,None,733.2272469,3320,364999.8633,357266.0598,358032.9859,358799.2807,359566.2782,360332.773,361099.5826,361865.9083,365766.6228,366532.8088,367282.2612,368049.2093,368815.846,369582.7211,355732.8377,356499.685,368826.1692
Mixed,both,cave,22,M_cave.wav,None,733.6124722,3320,364999.8633,357266.0598,358032.9859,358799.2807,359566.2782,360332.773,361099.5826,361865.9083,365766.6228,366532.8088,367282.2612,368049.2093,368815.846,369582.7211,370349.1664,356499.685,369592.3264
Mixed,both,cave,22,M_cad.wav,space,529.774257,3320,364999.8633,357266.0598,358032.9859,358799.2807,359566.2782,360332.773,361099.5826,361865.9083,365766.6228,366532.8088,367282.2612,368049.2093,368815.846,369582.7211,370349.1664,371115.9982,370358.8301
Mixed,both,cave,22,F_cave.wav,None,731.0519307,3320,364999.8633,371882.199,358032.9859,358799.2807,359566.2782,360332.773,361099.5826,361865.9083,365766.6228,366532.8088,367282.2612,368049.2093,368815.846,369582.7211,370349.1664,371115.9982,371125.8137
Mixed,both,cave,22,M_reek.wav,None,731.9281166,3320,364999.8633,371882.199,372649.2244,358799.2807,359566.2782,360332.773,361099.5826,361865.9083,365766.6228,366532.8088,367282.2612,368049.2093,368815.846,369582.7211,370349.1664,371115.9982,371891.629
Mixed,both,cave,22,F_reek.wav,space,0.058433041,3320,364999.8633,371882.199,372649.2244,373415.802,359566.2782,360332.773,361099.5826,361865.9083,365766.6228,366532.8088,367282.2612,368049.2093,368815.846,369582.7211,370349.1664,371115.9982,372658.8463
Mixed,both,cave,22,F_dime.wav,None,728.8416778,3320,364999.8633,371882.199,372649.2244,373415.802,374182.6632,360332.773,361099.5826,361865.9083,365766.6228,366532.8088,367282.2612,368049.2093,368815.846,369582.7211,370349.1664,371115.9982,373425.8086
Mixed,both,cave,22,M_gnash.wav,None,728.743671,3320,364999.8633,371882.199,372649.2244,373415.802,374182.6632,374949.3182,361099.5826,361865.9083,365766.6228,366532.8088,367282.2612,368049.2093,368815.846,369582.7211,370349.1664,371115.9982,374192.5668
Mixed,both,cave,22,F_cave.wav,None,728.2601302,3320,364999.8633,371882.199,372649.2244,373415.802,374182.6632,374949.3182,375715.9351,361865.9083,365766.6228,366532.8088,367282.2612,368049.2093,368815.846,369582.7211,370349.1664,371115.9982,374959.2397
Mixed,both,cave,22,F_gnash.wav,None,729.1653785,3320,364999.8633,371882.199,372649.2244,373415.802,374182.6632,374949.3182,375715.9351,376482.0592,365766.6228,366532.8088,367282.2612,368049.2093,368815.846,369582.7211,370349.1664,371115.9982,375725.1236
Mixed,both,tile,33,F_park.wav,space,0.037100166,3320,379616.1135,371882.199,372649.2244,373415.802,374182.6632,374949.3182,375715.9351,376482.0592,365766.6228,366532.8088,367282.2612,368049.2093,368815.846,369582.7211,370349.1664,371115.9982,376491.3868
Mixed,both,tile,33,F_gnash.wav,None,721.7082107,3320,379616.1135,371882.199,372649.2244,373415.802,374182.6632,374949.3182,375715.9351,376482.0592,380382.0927,366532.8088,367282.2612,368049.2093,368815.846,369582.7211,370349.1664,371115.9982,379625.8818
Mixed,both,tile,33,F_tile.wav,None,722.9804434,3320,379616.1135,371882.199,372649.2244,373415.802,374182.6632,374949.3182,375715.9351,376482.0592,380382.0927,381149.3224,367282.2612,368049.2093,368815.846,369582.7211,370349.1664,371115.9982,380391.4172
Mixed,both,tile,33,M_park.wav,space,673.1349044,3320,379616.1135,371882.199,372649.2244,373415.802,374182.6632,374949.3182,375715.9351,376482.0592,380382.0927,381149.3224,381915.7547,368049.2093,368815.846,369582.7211,370349.1664,371115.9982,381159.1524
Mixed,both,tile,33,M_jaw.wav,None,720.0906361,3320,379616.1135,371882.199,372649.2244,373415.802,374182.6632,374949.3182,375715.9351,376482.0592,380382.0927,381149.3224,381915.7547,382682.1509,368815.846,369582.7211,370349.1664,371115.9982,381925.8615
Mixed,both,tile,33,F_bluff.wav,None,721.2129212,3320,379616.1135,371882.199,372649.2244,373415.802,374182.6632,374949.3182,375715.9351,376482.0592,380382.0927,381149.3224,381915.7547,382682.1509,383448.8618,369582.7211,370349.1664,371115.9982,382691.9377
Mixed,both,tile,33,M_tile.wav,None,721.5366219,3320,379616.1135,371882.199,372649.2244,373415.802,374182.6632,374949.3182,375715.9351,376482.0592,380382.0927,381149.3224,381915.7547,382682.1509,383448.8618,384216.1568,370349.1664,371115.9982,383458.4192
Mixed,both,tile,33,M_dime.wav,space,573.8633694,3320,379616.1135,371882.199,372649.2244,373415.802,374182.6632,374949.3182,375715.9351,376482.0592,380382.0927,381149.3224,381915.7547,382682.1509,383448.8618,384216.1568,384982.1705,371115.9982,384226.3312
Mixed,both,tile,33,F_cad.wav,None,720.0210728,3320,379616.1135,371882.199,372649.2244,373415.802,374182.6632,374949.3182,375715.9351,376482.0592,380382.0927,381149.3224,381915.7547,382682.1509,383448.8618,384216.1568,384982.1705,385749.1764,384991.7294
Mixed,both,tile,33,M_bluff.wav,None,719.3031814,3320,379616.1135,386515.9522,372649.2244,373415.802,374182.6632,374949.3182,375715.9351,376482.0592,380382.0927,381149.3224,381915.7547,382682.1509,383448.8618,384216.1568,384982.1705,385749.1764,385759.3196
Mixed,both,tile,33,F_cling.wav,None,719.0351314,3320,379616.1135,386515.9522,387282.6944,373415.802,374182.6632,374949.3182,375715.9351,376482.0592,380382.0927,381149.3224,381915.7547,382682.1509,383448.8618,384216.1568,384982.1705,385749.1764,386525.9217
Mixed,both,tile,33,F_tile.wav,None,719.5220734,3320,379616.1135,386515.9522,387282.6944,388049.1641,374182.6632,374949.3182,375715.9351,376482.0592,380382.0927,381149.3224,381915.7547,382682.1509,383448.8618,384216.1568,384982.1705,385749.1764,387292.248
Mixed,both,tile,33,M_depth.wav,space,557.0411491,3320,379616.1135,386515.9522,387282.6944,388049.1641,388798.5217,374949.3182,375715.9351,376482.0592,380382.0927,381149.3224,381915.7547,382682.1509,383448.8618,384216.1568,384982.1705,385749.1764,388059.0554
Mixed,both,tile,33,F_jolt.wav,None,735.5756983,3320,379616.1135,386515.9522,387282.6944,388049.1641,388798.5217,389565.3386,375715.9351,376482.0592,380382.0927,381149.3224,381915.7547,382682.1509,383448.8618,384216.1568,384982.1705,385749.1764,388808.0704
Mixed,both,tile,33,M_tile.wav,None,734.8649176,3320,379616.1135,386515.9522,387282.6944,388049.1641,388798.5217,389565.3386,390331.8563,376482.0592,380382.0927,381149.3224,381915.7547,382682.1509,383448.8618,384216.1568,384982.1705,385749.1764,389575.2583
Mixed,both,tile,33,M_greet.wav,space,634.3486663,3320,379616.1135,386515.9522,387282.6944,388049.1641,388798.5217,389565.3386,390331.8563,391098.7064,380382.0927,381149.3224,381915.7547,382682.1509,383448.8618,384216.1568,384982.1705,385749.1764,390341.6718
Mixed,both,tile,26,F_bluff.wav,None,732.7727675,3320,394232.3031,386515.9522,387282.6944,388049.1641,388798.5217,389565.3386,390331.8563,391098.7064,380382.0927,381149.3224,381915.7547,382682.1509,383448.8618,384216.1568,384982.1705,385749.1764,391108.6827
Mixed,both,tile,26,F_tile.wav,None,720.7565871,3320,394232.3031,386515.9522,387282.6944,388049.1641,388798.5217,389565.3386,390331.8563,391098.7064,394998.8088,381149.3224,381915.7547,382682.1509,383448.8618,384216.1568,384982.1705,385749.1764,394242.0342
Mixed,both,tile,26,F_dime.wav,space,397.7088067,3320,394232.3031,386515.9522,387282.6944,388049.1641,388798.5217,389565.3386,390331.8563,391098.7064,394998.8088,395765.5413,381915.7547,382682.1509,383448.8618,384216.1568,384982.1705,385749.1764,395010.1655
Mixed,both,tile,26,M_cad.wav,None,718.0324947,3320,394232.3031,386515.9522,387282.6944,388049.1641,388798.5217,389565.3386,390331.8563,391098.7064,394998.8088,395765.5413,396532.345,382682.1509,383448.8618,384216.1568,384982.1705,385749.1764,395776.0723
Mixed,both,tile,26,M_dime.wav,None,718.9028068,3320,394232.3031,386515.9522,387282.6944,388049.1641,388798.5217,389565.3386,390331.8563,391098.7064,394998.8088,395765.5413,396532.345,397298.8843,383448.8618,384216.1568,384982.1705,385749.1764,396542.1206
Mixed,both,tile,26,M_bluff.wav,None,719.2209424,3320,394232.3031,386515.9522,387282.6944,388049.1641,388798.5217,389565.3386,390331.8563,391098.7064,394998.8088,395765.5413,396532.345,397298.8843,398065.5442,384216.1568,384982.1705,385749.1764,397308.6297
Mixed,both,tile,26,M_romp.wav,None,718.3101289,3320,394232.3031,386515.9522,387282.6944,388049.1641,388798.5217,389565.3386,390331.8563,391098.7064,394998.8088,395765.5413,396532.345,397298.8843,398065.5442,398831.4649,384982.1705,385749.1764,398076.9037
Mixed,both,tile,26,F_tile.wav,None,720.7426745,3320,394232.3031,386515.9522,387282.6944,388049.1641,388798.5217,389565.3386,390331.8563,391098.7064,394998.8088,395765.5413,396532.345,397298.8843,398065.5442,398831.4649,399598.8127,385749.1764,398841.1861
Mixed,both,tile,26,F_cad.wav,space,526.9209319,3320,394232.3031,386515.9522,387282.6944,388049.1641,388798.5217,389565.3386,390331.8563,391098.7064,394998.8088,395765.5413,396532.345,397298.8843,398065.5442,398831.4649,399598.8127,400348.1619,399608.8212
Mixed,both,tile,26,M_tile.wav,None,735.1638847,3320,394232.3031,401114.8101,387282.6944,388049.1641,388798.5217,389565.3386,390331.8563,391098.7064,394998.8088,395765.5413,396532.345,397298.8843,398065.5442,398831.4649,399598.8127,400348.1619,400357.4741
Mixed,both,tile,26,F_knife.wav,None,734.660557,3320,394232.3031,401114.8101,401881.142,388049.1641,388798.5217,389565.3386,390331.8563,391098.7064,394998.8088,395765.5413,396532.345,397298.8843,398065.5442,398831.4649,399598.8127,400348.1619,401124.4305
Mixed,both,tile,26,M_cad.wav,space,157.175885,3320,394232.3031,401114.8101,401881.142,402648.3401,388798.5217,389565.3386,390331.8563,391098.7064,394998.8088,395765.5413,396532.345,397298.8843,398065.5442,398831.4649,399598.8127,400348.1619,401890.4677
Mixed,both,tile,26,F_jolt.wav,None,732.9360093,3320,394232.3031,401114.8101,401881.142,402648.3401,403414.9181,389565.3386,390331.8563,391098.7064,394998.8088,395765.5413,396532.345,397298.8843,398065.5442,398831.4649,399598.8127,400348.1619,402657.8598
Mixed,both,tile,26,F_romp.wav,None,732.7545271,3320,394232.3031,401114.8101,401881.142,402648.3401,403414.9181,404181.2061,390331.8563,391098.7064,394998.8088,395765.5413,396532.345,397298.8843,398065.5442,398831.4649,399598.8127,400348.1619,403424.6653
Mixed,both,tile,26,M_tile.wav,None,734.2036045,3320,394232.3031,401114.8101,401881.142,402648.3401,403414.9181,404181.2061,404947.7442,391098.7064,394998.8088,395765.5413,396532.345,397298.8843,398065.5442,398831.4649,399598.8127,400348.1619,404190.4499
Mixed,both,tile,26,M_cling.wav,space,554.3748718,3320,394232.3031,401114.8101,401881.142,402648.3401,403414.9181,404181.2061,404947.7442,405715.0623,394998.8088,395765.5413,396532.345,397298.8843,398065.5442,398831.4649,399598.8127,400348.1619,404957.1884
Mixed,both,ball,2,M_jolt.wav,None,732.0004622,3320,429431.22,401114.8101,401881.142,402648.3401,403414.9181,404181.2061,404947.7442,405715.0623,394998.8088,395765.5413,396532.345,397298.8843,398065.5442,398831.4649,399598.8127,400348.1619,405724.215
Mixed,both,ball,2,F_ball.wav,space,0.076673925,3320,429431.22,401114.8101,401881.142,402648.3401,403414.9181,404181.2061,404947.7442,405715.0623,430181.0054,395765.5413,396532.345,397298.8843,398065.5442,398831.4649,399598.8127,400348.1619,429441.2402
Mixed,both,ball,2,M_park.wav,space,528.094539,3320,429431.22,401114.8101,401881.142,402648.3401,403414.9181,404181.2061,404947.7442,405715.0623,430181.0054,430947.3651,396532.345,397298.8843,398065.5442,398831.4649,399598.8127,400348.1619,430190.6661
Mixed,both,ball,2,F_romp.wav,None,733.2702214,3320,429431.22,401114.8101,401881.142,402648.3401,403414.9181,404181.2061,404947.7442,405715.0623,430181.0054,430947.3651,431713.9382,397298.8843,398065.5442,398831.4649,399598.8127,400348.1619,430957.5442
Mixed,both,ball,2,M_greet.wav,None,733.935554,3320,429431.22,401114.8101,401881.142,402648.3401,403414.9181,404181.2061,404947.7442,405715.0623,430181.0054,430947.3651,431713.9382,432480.7928,398065.5442,398831.4649,399598.8127,400348.1619,431724.0641
Mixed,both,ball,2,M_bluff.wav,None,734.4156941,3320,429431.22,401114.8101,401881.142,402648.3401,403414.9181,404181.2061,404947.7442,405715.0623,430181.0054,430947.3651,431713.9382,432480.7928,433246.8128,398831.4649,399598.8127,400348.1619,432490.4235
Mixed,both,ball,2,M_reek.wav,None,736.3000819,3320,429431.22,401114.8101,401881.142,402648.3401,403414.9181,404181.2061,404947.7442,405715.0623,430181.0054,430947.3651,431713.9382,432480.7928,433246.8128,434013.8372,399598.8127,400348.1619,433255.928
Mixed,both,ball,2,F_jaw.wav,None,735.2482877,3320,429431.22,401114.8101,401881.142,402648.3401,403414.9181,404181.2061,404947.7442,405715.0623,430181.0054,430947.3651,431713.9382,432480.7928,433246.8128,434013.8372,434797.7243,400348.1619,434023.6564
Mixed,both,ball,2,F_ball.wav,None,718.5497354,3320,429431.22,401114.8101,401881.142,402648.3401,403414.9181,404181.2061,404947.7442,405715.0623,430181.0054,430947.3651,431713.9382,432480.7928,433246.8128,434013.8372,434797.7243,435564.57,434807.7337
Mixed,both,ball,2,F_bluff.wav,space,464.3824403,3320,429431.22,436313.8024,401881.142,402648.3401,403414.9181,404181.2061,404947.7442,405715.0623,430181.0054,430947.3651,431713.9382,432480.7928,433246.8128,434013.8372,434797.7243,435564.57,435574.3114
