"Condition","Talker","Target","Trial","current_stimulus","response_response","response_time_response","subject_nr","time_Audio1","time_Audio10","time_Audio11","time_Audio12","time_Audio13","time_Audio14","time_Audio15","time_Audio16","time_Audio2","time_Audio3","time_Audio4","time_Audio5","time_Audio6","time_Audio7","time_Audio8","time_Audio9","time_response","title"
"Mixed","Female","cave","21","F_priest.wav","NA","NA","415","74132.0653124","NA","NA","NA","NA","NA","NA","NA","NA","NA","NA","NA","NA","NA","NA","NA","NA","Mapping"
"Mixed","Female","cave","21","M_greet.wav","None","719.967633437","415","74132.0653124","NA","NA","NA","NA","NA","NA","NA","74899.4049504","NA","NA","NA","NA","NA","NA","NA","74143.2175344","Mapping"
"Mixed","Female","cave","21","F_cave.wav","None","725.551256173","415","74132.0653124","NA","NA","NA","NA","NA","NA","NA","74899.4049504","75666.1754994","NA","NA","NA","NA","NA","NA","74903.1127427","Mapping"
"Mixed","Female","cave","21","M_gnash.wav","space","471.391107187","415","74132.0653124","NA","NA","NA","NA","NA","NA","NA","74899.4049504","75666.1754994","76416.1483069","NA","NA","NA","NA","NA","75669.9016203","Mapping"
"Mixed","Female","cave","21","M_greet.wav","None","741.377279586","415","74132.0653124","NA","NA","NA","NA","NA","NA","NA","74899.4049504","75666.1754994","76416.1483069","77183.3578416","NA","NA","NA","NA","76419.2272168","Mapping"
"Mixed","Female","cave","21","F_romp.wav","None","740.456340896","415","74132.0653124","NA","NA","NA","NA","NA","NA","NA","74899.4049504","75666.1754994","76416.1483069","77183.3578416","77950.5965219","NA","NA","NA","77186.1086389","Mapping"
"Mixed","Female","cave","21","F_cad.wav","None","738.809167682","415","74132.0653124","NA","NA","NA","NA","NA","NA","NA","74899.4049504","75666.1754994","76416.1483069","77183.3578416","77950.5965219","78717.8129674","NA","NA","77953.5558449","Mapping"
"Mixed","Female","cave","21","F_cave.wav","None","737.478088269","415","74132.0653124","NA","NA","NA","NA","NA","NA","NA","74899.4049504","75666.1754994","76416.1483069","77183.3578416","77950.5965219","78717.8129674","79485.0895068","NA","78720.9363468","Mapping"
"Mixed","Female","cave","21","M_cad.wav","space","563.545070108","415","74132.0653124","NA","NA","NA","NA","NA","NA","NA","74899.4049504","75666.1754994","76416.1483069","77183.3578416","77950.5965219","78717.8129674","79485.0895068","80252.6716236","79487.7534685","Mapping"
"Mixed","Female","cave","21","M_gnash.wav","None","734.393769948","415","74132.0653124","81019.801534","NA","NA","NA","NA","NA","NA","74899.4049504","75666.1754994","76416.1483069","77183.3578416","77950.5965219","78717.8129674","79485.0895068","80252.6716236","80255.848787","Mapping"
"Mixed","Female","cave","21","F_cave.wav","None","733.287441641","415","74132.0653124","81019.801534","81786.7286275","NA","NA","NA","NA","NA","74899.4049504","75666.1754994","76416.1483069","77183.3578416","77950.5965219","78717.8129674","79485.0895068","80252.6716236","81022.9768945","Mapping"
"Mixed","Female","cave","21","F_jolt.wav","space","576.863976905","415","74132.0653124","81019.801534","81786.7286275","82553.890688","NA","NA","NA","NA","74899.4049504","75666.1754994","76416.1483069","77183.3578416","77950.5965219","78717.8129674","79485.0895068","80252.6716236","81789.4650022","Mapping"
"Mixed","Female","cave","21","M_park.wav","None","731.668813021","415","74132.0653124","81019.801534","81786.7286275","82553.890688","83321.2781006","NA","NA","NA","74899.4049504","75666.1754994","76416.1483069","77183.3578416","77950.5965219","78717.8129674","79485.0895068","80252.6716236","82556.5543492","Mapping"
"Mixed","Female","cave","21","M_greet.wav","None","729.443536693","415","74132.0653124","81019.801534","81786.7286275","82553.890688","83321.2781006","84088.6093255","NA","NA","74899.4049504","75666.1754994","76416.1483069","77183.3578416","77950.5965219","78717.8129674","79485.0895068","80252.6716236","83324.6737053","Mapping"
"Mixed","Female","cave","21","F_cave.wav","None","728.763574456","415","74132.0653124","81019.801534","81786.7286275","82553.890688","83321.2781006","84088.6093255","84855.8483062","NA","74899.4049504","75666.1754994","76416.1483069","77183.3578416","77950.5965219","78717.8129674","79485.0895068","80252.6716236","84091.6605922","Mapping"
"Mixed","Female","cave","21","M_priest.wav","space","485.657694451","415","74132.0653124","81019.801534","81786.7286275","82553.890688","83321.2781006","84088.6093255","84855.8483062","85623.1227423","74899.4049504","75666.1754994","76416.1483069","77183.3578416","77950.5965219","78717.8129674","79485.0895068","80252.6716236","84858.6919486","Mapping"
"Mixed","Male","cave","14","F_jolt.wav","None","726.32015735","415","88759.2236592","81019.801534","81786.7286275","82553.890688","83321.2781006","84088.6093255","84855.8483062","85623.1227423","74899.4049504","75666.1754994","76416.1483069","77183.3578416","77950.5965219","78717.8129674","79485.0895068","80252.6716236","85626.1860278","Mapping"
"Mixed","Male","cave","14","F_depth.wav","None","728.684250535","415","88759.2236592","81019.801534","81786.7286275","82553.890688","83321.2781006","84088.6093255","84855.8483062","85623.1227423","89526.0086307","75666.1754994","76416.1483069","77183.3578416","77950.5965219","78717.8129674","79485.0895068","80252.6716236","88762.474738","Mapping"
"Mixed","Male","cave","14","F_cad.wav","None","728.389490061","415","88759.2236592","81019.801534","81786.7286275","82553.890688","83321.2781006","84088.6093255","84855.8483062","85623.1227423","89526.0086307","90293.114203","76416.1483069","77183.3578416","77950.5965219","78717.8129674","79485.0895068","80252.6716236","89528.8892308","Mapping"
"Mixed","Male","cave","14","F_knife.wav","None","727.184607795","415","88759.2236592","81019.801534","81786.7286275","82553.890688","83321.2781006","84088.6093255","84855.8483062","85623.1227423","89526.0086307","90293.114203","91060.3688082","77183.3578416","77950.5965219","78717.8129674","79485.0895068","80252.6716236","90296.1853007","Mapping"
"Mixed","Male","cave","14","M_cave.wav","None","725.815669237","415","88759.2236592","81019.801534","81786.7286275","82553.890688","83321.2781006","84088.6093255","84855.8483062","85623.1227423","89526.0086307","90293.114203","91060.3688082","91810.6420851","77950.5965219","78717.8129674","79485.0895068","80252.6716236","91063.6174832","Mapping"
"Mixed","Male","cave","14","F_park.wav","space","319.02488067","415","88759.2236592","81019.801534","81786.7286275","82553.890688","83321.2781006","84088.6093255","84855.8483062","85623.1227423","89526.0086307","90293.114203","91060.3688082","91810.6420851","92577.8915822","78717.8129674","79485.0895068","80252.6716236","91813.3006383","Mapping"
"Mixed","Male","cave","14","M_park.wav","None","740.816303229","415","88759.2236592","81019.801534","81786.7286275","82553.890688","83321.2781006","84088.6093255","84855.8483062","85623.1227423","89526.0086307","90293.114203","91060.3688082","91810.6420851","92577.8915822","93345.0458306","79485.0895068","80252.6716236","92580.6102293","Mapping"
"Mixed","Male","cave","14","F_gnash.wav","None","739.996923192","415","88759.2236592","81019.801534","81786.7286275","82553.890688","83321.2781006","84088.6093255","84855.8483062","85623.1227423","89526.0086307","90293.114203","91060.3688082","91810.6420851","92577.8915822","93345.0458306","94112.3010367","80252.6716236","93347.6854542","Mapping"
"Mixed","Male","cave","14","M_cave.wav","None","738.458820369","415","88759.2236592","81019.801534","81786.7286275","82553.890688","83321.2781006","84088.6093255","84855.8483062","85623.1227423","89526.0086307","90293.114203","91060.3688082","91810.6420851","92577.8915822","93345.0458306","94112.3010367","94879.5304024","94115.2654677","Mapping"
"Mixed","Male","cave","14","M_cling.wav","space","467.004554515","415","88759.2236592","95646.775693","81786.7286275","82553.890688","83321.2781006","84088.6093255","84855.8483062","85623.1227423","89526.0086307","90293.114203","91060.3688082","91810.6420851","92577.8915822","93345.0458306","94112.3010367","94879.5304024","94882.302533","Mapping"
"Mixed","Male","cave","14","F_cad.wav","None","735.762708502","415","88759.2236592","95646.775693","96413.9452653","82553.890688","83321.2781006","84088.6093255","84855.8483062","85623.1227423","89526.0086307","90293.114203","91060.3688082","91810.6420851","92577.8915822","93345.0458306","94112.3010367","94879.5304024","95649.6755231","Mapping"
"Mixed","Male","cave","14","M_cave.wav","None","734.881732242","415","88759.2236592","95646.775693","96413.9452653","97181.2070817","83321.2781006","84088.6093255","84855.8483062","85623.1227423","89526.0086307","90293.114203","91060.3688082","91810.6420851","92577.8915822","93345.0458306","94112.3010367","94879.5304024","96416.7321189","Mapping"
"Mixed","Male","cave","14","M_cad.wav","space","513.394625084","415","88759.2236592","95646.775693","96413.9452653","97181.2070817","97948.7110764","84088.6093255","84855.8483062","85623.1227423","89526.0086307","90293.114203","91060.3688082","91810.6420851","92577.8915822","93345.0458306","94112.3010367","94879.5304024","97183.8878696","Mapping"
"Mixed","Male","cave","14","M_cave.wav","None","731.758352898","415","88759.2236592","95646.775693","96413.9452653","97181.2070817","97948.7110764","98716.3559913","84855.8483062","85623.1227423","89526.0086307","90293.114203","91060.3688082","91810.6420851","92577.8915822","93345.0458306","94112.3010367","94879.5304024","97951.8092164","Mapping"
"Mixed","Male","cave","14","M_jolt.wav","space","618.958236557","415","88759.2236592","95646.775693","96413.9452653","97181.2070817","97948.7110764","98716.3559913","99482.9973384","85623.1227423","89526.0086307","90293.114203","91060.3688082","91810.6420851","92577.8915822","93345.0458306","94112.3010367","94879.5304024","98720.3290981","Mapping"
"Mixed","Male","cave","14","F_bluff.wav","None","729.254240974","415","88759.2236592","95646.775693","96413.9452653","97181.2070817","97948.7110764","98716.3559913","99482.9973384","100250.355305","89526.0086307","90293.114203","91060.3688082","91810.6420851","92577.8915822","93345.0458306","94112.3010367","94879.5304024","99486.4250933","Mapping"
"Mixed","Female","cave","19","M_gnash.wav","None","728.127180282","415","103369.652171","95646.775693","96413.9452653","97181.2070817","97948.7110764","98716.3559913","99482.9973384","100250.355305","89526.0086307","90293.114203","91060.3688082","91810.6420851","92577.8915822","93345.0458306","94112.3010367","94879.5304024","100253.689614","Mapping"
"Mixed","Female","cave","19","M_priest.wav","None","728.694766965","415","103369.652171","95646.775693","96413.9452653","97181.2070817","97948.7110764","98716.3559913","99482.9973384","100250.355305","104136.614419","90293.114203","91060.3688082","91810.6420851","92577.8915822","93345.0458306","94112.3010367","94879.5304024","103373.209127","Mapping"
"Mixed","Female","cave","19","F_cave.wav","None","728.740438313","415","103369.652171","95646.775693","96413.9452653","97181.2070817","97948.7110764","98716.3559913","99482.9973384","100250.355305","104136.614419","104903.729306","91060.3688082","91810.6420851","92577.8915822","93345.0458306","94112.3010367","94879.5304024","104139.290099","Mapping"
"Mixed","Female","cave","19","M_park.wav","space","314.743191815","415","103369.652171","95646.775693","96413.9452653","97181.2070817","97948.7110764","98716.3559913","99482.9973384","100250.355305","104136.614419","104903.729306","105670.977","91810.6420851","92577.8915822","93345.0458306","94112.3010367","94879.5304024","104906.551014","Mapping"
"Mixed","Female","cave","19","M_bluff.wav","None","726.323762983","415","103369.652171","95646.775693","96413.9452653","97181.2070817","97948.7110764","98716.3559913","99482.9973384","100250.355305","104136.614419","104903.729306","105670.977","106421.276118","92577.8915822","93345.0458306","94112.3010367","94879.5304024","105673.920699","Mapping"
"Mixed","Female","cave","19","F_cave.wav","None","742.362518728","415","103369.652171","95646.775693","96413.9452653","97181.2070817","97948.7110764","98716.3559913","99482.9973384","100250.355305","104136.614419","104903.729306","105670.977","106421.276118","107188.419549","93345.0458306","94112.3010367","94879.5304024","106424.134783","Mapping"
"Mixed","Female","cave","19","M_romp.wav","space","410.974824872","415","103369.652171","95646.775693","96413.9452653","97181.2070817","97948.7110764","98716.3559913","99482.9973384","100250.355305","104136.614419","104903.729306","105670.977","106421.276118","107188.419549","107955.716821","94112.3010367","94879.5304024","107191.335604","Mapping"
"Mixed","Female","cave","19","M_gnash.wav","None","740.348171914","415","103369.652171","95646.775693","96413.9452653","97181.2070817","97948.7110764","98716.3559913","99482.9973384","100250.355305","104136.614419","104903.729306","105670.977","106421.276118","107188.419549","107955.716821","108722.832008","94879.5304024","107958.280125","Mapping"
"Mixed","Female","cave","19","M_jolt.wav","None","738.698294475","415","103369.652171","95646.775693","96413.9452653","97181.2070817","97948.7110764","98716.3559913","99482.9973384","100250.355305","104136.614419","104903.729306","105670.977","106421.276118","107188.419549","107955.716821","108722.832008","109490.14881","108726.063256","Mapping"
"Mixed","Female","cave","19","F_lash.wav","None","737.233806653","415","103369.652171","110257.277819","96413.9452653","97181.2070817","97948.7110764","98716.3559913","99482.9973384","100250.355305","104136.614419","104903.729306","105670.977","106421.276118","107188.419549","107955.716821","108722.832008","109490.14881","109493.286312","Mapping"
"Mixed","Female","cave","19","F_cave.wav","None","736.367553392","415","103369.652171","110257.277819","111024.603636","97181.2070817","97948.7110764","98716.3559913","99482.9973384","100250.355305","104136.614419","104903.729306","105670.977","106421.276118","107188.419549","107955.716821","108722.832008","109490.14881","110260.495246","Mapping"
"Mixed","Female","cave","19","F_reek.wav","space","426.233862541","415","103369.652171","110257.277819","111024.603636","111791.798147","97948.7110764","98716.3559913","99482.9973384","100250.355305","104136.614419","104903.729306","105670.977","106421.276118","107188.419549","107955.716821","108722.832008","109490.14881","111028.096592","Mapping"
"Mixed","Female","cave","19","F_cave.wav","None","734.225206617","415","103369.652171","110257.277819","111024.603636","111791.798147","112559.021203","98716.3559913","99482.9973384","100250.355305","104136.614419","104903.729306","105670.977","106421.276118","107188.419549","107955.716821","108722.832008","109490.14881","111794.416137","Mapping"
"Mixed","Female","cave","19","F_cling.wav","space","632.750983586","415","103369.652171","110257.277819","111024.603636","111791.798147","112559.021203","113326.275508","99482.9973384","100250.355305","104136.614419","104903.729306","105670.977","106421.276118","107188.419549","107955.716821","108722.832008","109490.14881","112561.540939","Mapping"
"Mixed","Female","cave","19","F_gnash.wav","None","731.968381006","415","103369.652171","110257.277819","111024.603636","111791.798147","112559.021203","113326.275508","114093.533718","100250.355305","104136.614419","104903.729306","105670.977","106421.276118","107188.419549","107955.716821","108722.832008","109490.14881","113328.796746","Mapping"
"Mixed","Female","cave","19","M_reek.wav","None","730.502691304","415","103369.652171","110257.277819","111024.603636","111791.798147","112559.021203","113326.275508","114093.533718","114860.932248","104136.614419","104903.729306","105670.977","106421.276118","107188.419549","107955.716821","108722.832008","109490.14881","114096.657098","Mapping"
"Mixed","Male","tile","30","F_gnash.wav","None","729.515949817","415","117997.273541","110257.277819","111024.603636","111791.798147","112559.021203","113326.275508","114093.533718","114860.932248","104136.614419","104903.729306","105670.977","106421.276118","107188.419549","107955.716821","108722.832008","109490.14881","114863.844398","Mapping"
"Mixed","Male","tile","30","M_tile.wav","None","727.389527921","415","117997.273541","110257.277819","111024.603636","111791.798147","112559.021203","113326.275508","114093.533718","114860.932248","118763.708165","104903.729306","105670.977","106421.276118","107188.419549","107955.716821","108722.832008","109490.14881","118001.039925","Mapping"
"Mixed","Male","tile","30","M_jaw.wav","space","345.311145071","415","117997.273541","110257.277819","111024.603636","111791.798147","112559.021203","113326.275508","114093.533718","114860.932248","118763.708165","119530.959164","105670.977","106421.276118","107188.419549","107955.716821","108722.832008","109490.14881","118767.029253","Mapping"
"Mixed","Male","tile","30","F_gnash.wav","None","725.711706827","415","117997.273541","110257.277819","111024.603636","111791.798147","112559.021203","113326.275508","114093.533718","114860.932248","118763.708165","119530.959164","120281.245962","106421.276118","107188.419549","107955.716821","108722.832008","109490.14881","119534.614375","Mapping"
"Mixed","Male","tile","30","F_dime.wav","None","742.274781664","415","117997.273541","110257.277819","111024.603636","111791.798147","112559.021203","113326.275508","114093.533718","114860.932248","118763.708165","119530.959164","120281.245962","121048.521","107188.419549","107955.716821","108722.832008","109490.14881","120284.568253","Mapping"
"Mixed","Male","tile","30","M_depth.wav","None","741.449392241","415","117997.273541","110257.277819","111024.603636","111791.798147","112559.021203","113326.275508","114093.533718","114860.932248","118763.708165","119530.959164","120281.245962","121048.521","121815.755473","107955.716821","108722.832008","109490.14881","121051.73482","Mapping"
"Mixed","Male","tile","30","F_reek.wav","None","741.020321948","415","117997.273541","110257.277819","111024.603636","111791.798147","112559.021203","113326.275508","114093.533718","114860.932248","118763.708165","119530.959164","120281.245962","121048.521","121815.755473","122582.901008","108722.832008","109490.14881","121818.437763","Mapping"
"Mixed","Male","tile","30","M_tile.wav","None","740.193730646","415","117997.273541","110257.277819","111024.603636","111791.798147","112559.021203","113326.275508","114093.533718","114860.932248","118763.708165","119530.959164","120281.245962","121048.521","121815.755473","122582.901008","123350.155613","109490.14881","122585.503073","Mapping"
"Mixed","Male","tile","30","F_reek.wav","space","499.655662075","415","117997.273541","110257.277819","111024.603636","111791.798147","112559.021203","113326.275508","114093.533718","114860.932248","118763.708165","119530.959164","120281.245962","121048.521","121815.755473","122582.901008","123350.155613","124117.381974","123352.628777","Mapping"
"Mixed","Male","tile","30","F_knife.wav","None","737.465168084","415","117997.273541","124884.56026","111024.603636","111791.798147","112559.021203","113326.275508","114093.533718","114860.932248","118763.708165","119530.959164","120281.245962","121048.521","121815.755473","122582.901008","123350.155613","124117.381974","124120.529091","Mapping"
"Mixed","Male","tile","30","M_tile.wav","None","736.461600312","415","117997.273541","124884.56026","125651.79233","111791.798147","112559.021203","113326.275508","114093.533718","114860.932248","118763.708165","119530.959164","120281.245962","121048.521","121815.755473","122582.901008","123350.155613","124117.381974","124887.807433","Mapping"
"Mixed","Male","tile","30","F_cling.wav","space","554.825748786","415","117997.273541","124884.56026","125651.79233","126419.049038","112559.021203","113326.275508","114093.533718","114860.932248","118763.708165","119530.959164","120281.245962","121048.521","121815.755473","122582.901008","123350.155613","124117.381974","125654.452386","Mapping"
"Mixed","Male","tile","30","F_jolt.wav","None","734.102615104","415","117997.273541","124884.56026","125651.79233","126419.049038","127186.338798","113326.275508","114093.533718","114860.932248","118763.708165","119530.959164","120281.245962","121048.521","121815.755473","122582.901008","123350.155613","124117.381974","126422.032099","Mapping"
"Mixed","Male","tile","30","M_dime.wav","None","733.068098983","415","117997.273541","124884.56026","125651.79233","126419.049038","127186.338798","127953.489742","114093.533718","114860.932248","118763.708165","119530.959164","120281.245962","121048.521","121815.755473","122582.901008","123350.155613","124117.381974","127189.627436","Mapping"
"Mixed","Male","tile","30","M_tile.wav","None","732.226183745","415","117997.273541","124884.56026","125651.79233","126419.049038","127186.338798","127953.489742","128720.723314","114860.932248","118763.708165","119530.959164","120281.245962","121048.521","121815.755473","122582.901008","123350.155613","124117.381974","127956.690041","Mapping"
"Mixed","Male","tile","30","M_gnash.wav","space","317.809481972","415","117997.273541","124884.56026","125651.79233","126419.049038","127186.338798","127953.489742","128720.723314","129488.058144","118763.708165","119530.959164","120281.245962","121048.521","121815.755473","122582.901008","123350.155613","124117.381974","128723.446468","Mapping"
"Mixed","Female","cave","20","F_depth.wav","None","729.398466283","415","132607.77747","124884.56026","125651.79233","126419.049038","127186.338798","127953.489742","128720.723314","129488.058144","118763.708165","119530.959164","120281.245962","121048.521","121815.755473","122582.901008","123350.155613","124117.381974","129491.549899","Mapping"
"Mixed","Female","cave","20","F_cave.wav","None","726.655781662","415","132607.77747","124884.56026","125651.79233","126419.049038","127186.338798","127953.489742","128720.723314","129488.058144","133374.714779","119530.959164","120281.245962","121048.521","121815.755473","122582.901008","123350.155613","124117.381974","132611.507797","Mapping"
"Mixed","Female","cave","20","M_bluff.wav","space","358.442859435","415","132607.77747","124884.56026","125651.79233","126419.049038","127186.338798","127953.489742","128720.723314","129488.058144","133374.714779","134124.884995","120281.245962","121048.521","121815.755473","122582.901008","123350.155613","124117.381974","133378.845032","Mapping"
"Mixed","Female","cave","20","M_jolt.wav","None","742.069861537","415","132607.77747","124884.56026","125651.79233","126419.049038","127186.338798","127953.489742","128720.723314","129488.058144","133374.714779","134124.884995","134891.788652","121048.521","121815.755473","122582.901008","123350.155613","124117.381974","134127.910121","Mapping"
"Mixed","Female","cave","20","M_lash.wav","None","741.971608046","415","132607.77747","124884.56026","125651.79233","126419.049038","127186.338798","127953.489742","128720.723314","129488.058144","133374.714779","134124.884995","134891.788652","135659.061886","121815.755473","122582.901008","123350.155613","124117.381974","134894.580313","Mapping"
"Mixed","Female","cave","20","M_jolt.wav","None","741.240866482","415","132607.77747","124884.56026","125651.79233","126419.049038","127186.338798","127953.489742","128720.723314","129488.058144","133374.714779","134124.884995","134891.788652","135659.061886","136426.381393","122582.901008","123350.155613","124117.381974","135661.664252","Mapping"
"Mixed","Female","cave","20","F_priest.wav","None","739.952453723","415","132607.77747","124884.56026","125651.79233","126419.049038","127186.338798","127953.489742","128720.723314","129488.058144","133374.714779","134124.884995","134891.788652","135659.061886","136426.381393","137193.565087","123350.155613","124117.381974","136429.332603","Mapping"
"Mixed","Female","cave","20","F_cave.wav","None","738.786632477","415","132607.77747","124884.56026","125651.79233","126419.049038","127186.338798","127953.489742","128720.723314","129488.058144","133374.714779","134124.884995","134891.788652","135659.061886","136426.381393","137193.565087","137960.783937","124117.381974","137196.450495","Mapping"
"Mixed","Female","cave","20","M_lash.wav","space","403.778582902","415","132607.77747","124884.56026","125651.79233","126419.049038","127186.338798","127953.489742","128720.723314","129488.058144","133374.714779","134124.884995","134891.788652","135659.061886","136426.381393","137193.565087","137960.783937","138728.430053","137963.509495","Mapping"
"Mixed","Female","cave","20","F_cave.wav","None","736.133487733","415","132607.77747","139495.572583","125651.79233","126419.049038","127186.338798","127953.489742","128720.723314","129488.058144","133374.714779","134124.884995","134891.788652","135659.061886","136426.381393","137193.565087","137960.783937","138728.430053","138731.42333","Mapping"
"Mixed","Female","cave","20","F_greet.wav","space","568.886214043","415","132607.77747","139495.572583","140262.503583","126419.049038","127186.338798","127953.489742","128720.723314","129488.058144","133374.714779","134124.884995","134891.788652","135659.061886","136426.381393","137193.565087","137960.783937","138728.430053","139498.386479","Mapping"
"Mixed","Female","cave","20","F_bluff.wav","None","733.71831475","415","132607.77747","139495.572583","140262.503583","141029.705005","127186.338798","127953.489742","128720.723314","129488.058144","133374.714779","134124.884995","134891.788652","135659.061886","136426.381393","137193.565087","137960.783937","138728.430053","140265.951169","Mapping"
"Mixed","Female","cave","20","M_greet.wav","None","733.386897011","415","132607.77747","139495.572583","140262.503583","141029.705005","141796.792549","127953.489742","128720.723314","129488.058144","133374.714779","134124.884995","134891.788652","135659.061886","136426.381393","137193.565087","137960.783937","138728.430053","141032.61445","Mapping"
"Mixed","Female","cave","20","M_romp.wav","None","732.958728124","415","132607.77747","139495.572583","140262.503583","141029.705005","141796.792549","142564.373164","128720.723314","129488.058144","133374.714779","134124.884995","134891.788652","135659.061886","136426.381393","137193.565087","137960.783937","138728.430053","141799.451703","Mapping"
"Mixed","Female","cave","20","F_cave.wav","None","730.998766272","415","132607.77747","139495.572583","140262.503583","141029.705005","141796.792549","142564.373164","143332.319149","129488.058144","133374.714779","134124.884995","134891.788652","135659.061886","136426.381393","137193.565087","137960.783937","138728.430053","142567.824656","Mapping"
"Mixed","Female","cave","20","M_depth.wav","space","514.364540284","415","132607.77747","139495.572583","140262.503583","141029.705005","141796.792549","142564.373164","143332.319149","144098.663632","133374.714779","134124.884995","134891.788652","135659.061886","136426.381393","137193.565087","137960.783937","138728.430053","143335.926284","Mapping"
"Mixed","Male","ball","4","F_reek.wav","None","729.527067184","415","147235.025357","139495.572583","140262.503583","141029.705005","141796.792549","142564.373164","143332.319149","144098.663632","133374.714779","134124.884995","134891.788652","135659.061886","136426.381393","137193.565087","137960.783937","138728.430053","144101.816157","Mapping"
"Mixed","Male","ball","4","F_cling.wav","None","727.145246303","415","147235.025357","139495.572583","140262.503583","141029.705005","141796.792549","142564.373164","143332.319149","144098.663632","148001.588281","134124.884995","134891.788652","135659.061886","136426.381393","137193.565087","137960.783937","138728.430053","147238.431778","Mapping"
"Mixed","Male","ball","4","F_depth.wav","None","727.557189841","415","147235.025357","139495.572583","140262.503583","141029.705005","141796.792549","142564.373164","143332.319149","144098.663632","148001.588281","148768.712182","134891.788652","135659.061886","136426.381393","137193.565087","137960.783937","138728.430053","148004.427116","Mapping"
"Mixed","Male","ball","4","F_park.wav","None","726.768758155","415","147235.025357","139495.572583","140262.503583","141029.705005","141796.792549","142564.373164","143332.319149","144098.663632","148001.588281","148768.712182","149519.082511","135659.061886","136426.381393","137193.565087","137960.783937","138728.430053","148771.688632","Mapping"
"Mixed","Male","ball","4","M_ball.wav","None","742.70745759","415","147235.025357","139495.572583","140262.503583","141029.705005","141796.792549","142564.373164","143332.319149","144098.663632","148001.588281","148768.712182","149519.082511","150286.402318","136426.381393","137193.565087","137960.783937","138728.430053","149522.190266","Mapping"
"Mixed","Male","ball","4","F_greet.wav","space","495.140808973","415","147235.025357","139495.572583","140262.503583","141029.705005","141796.792549","142564.373164","143332.319149","144098.663632","148001.588281","148768.712182","149519.082511","150286.402318","151053.595627","137193.565087","137960.783937","138728.430053","150289.133284","Mapping"
"Mixed","Male","ball","4","M_jolt.wav","None","740.747195268","415","147235.025357","139495.572583","140262.503583","141029.705005","141796.792549","142564.373164","143332.319149","144098.663632","148001.588281","148768.712182","149519.082511","150286.402318","151053.595627","151820.852936","137960.783937","138728.430053","151056.521598","Mapping"
"Mixed","Male","ball","4","F_reek.wav","None","739.791402129","415","147235.025357","139495.572583","140262.503583","141029.705005","141796.792549","142564.373164","143332.319149","144098.663632","148001.588281","148768.712182","149519.082511","150286.402318","151053.595627","151820.852936","152588.015297","138728.430053","151823.880166","Mapping"
"Mixed","Male","ball","4","M_ball.wav","None","739.077186381","415","147235.025357","139495.572583","140262.503583","141029.705005","141796.792549","142564.373164","143332.319149","144098.663632","148001.588281","148768.712182","149519.082511","150286.402318","151053.595627","151820.852936","152588.015297","153355.226635","152590.786827","Mapping"
"Mixed","Male","ball","4","M_jaw.wav","space","451.282493512","415","147235.025357","154122.377879","140262.503583","141029.705005","141796.792549","142564.373164","143332.319149","144098.663632","148001.588281","148768.712182","149519.082511","150286.402318","151053.595627","151820.852936","152588.015297","153355.226635","153357.985845","Mapping"
"Mixed","Male","ball","4","M_ball.wav","None","738.039064627","415","147235.025357","154122.377879","154889.739751","141029.705005","141796.792549","142564.373164","143332.319149","144098.663632","148001.588281","148768.712182","149519.082511","150286.402318","151053.595627","151820.852936","152588.015297","153355.226635","154125.064075","Mapping"
"Mixed","Male","ball","4","F_cling.wav","space","385.793085958","415","147235.025357","154122.377879","154889.739751","155656.878375","141796.792549","142564.373164","143332.319149","144098.663632","148001.588281","148768.712182","149519.082511","150286.402318","151053.595627","151820.852936","152588.015297","153355.226635","154892.490849","Mapping"
"Mixed","Male","ball","4","M_romp.wav","None","735.732962034","415","147235.025357","154122.377879","154889.739751","155656.878375","156424.178351","142564.373164","143332.319149","144098.663632","148001.588281","148768.712182","149519.082511","150286.402318","151053.595627","151820.852936","152588.015297","153355.226635","155659.701285","Mapping"
"Mixed","Male","ball","4","M_ball.wav","None","734.791290955","415","147235.025357","154122.377879","154889.739751","155656.878375","156424.178351","157191.38368","143332.319149","144098.663632","148001.588281","148768.712182","149519.082511","150286.402318","151053.595627","151820.852936","152588.015297","153355.226635","156426.973919","Mapping"
"Mixed","Male","ball","4","F_cling.wav","space","333.250604093","415","147235.025357","154122.377879","154889.739751","155656.878375","156424.178351","157191.38368","157958.523806","144098.663632","148001.588281","148768.712182","149519.082511","150286.402318","151053.595627","151820.852936","152588.015297","153355.226635","157194.092111","Mapping"
"Mixed","Male","ball","4","M_romp.wav","None","732.990577881","415","147235.025357","154122.377879","154889.739751","155656.878375","156424.178351","157191.38368","157958.523806","158725.846618","148001.588281","148768.712182","149519.082511","150286.402318","151053.595627","151820.852936","152588.015297","153355.226635","157961.144199","Mapping"
"Mixed","Male","done","38","F_park.wav","None","732.035385679","415","161862.477562","154122.377879","154889.739751","155656.878375","156424.178351","157191.38368","157958.523806","158725.846618","148001.588281","148768.712182","149519.082511","150286.402318","151053.595627","151820.852936","152588.015297","153355.226635","158728.408119","Mapping"
"Mixed","Male","done","38","M_cling.wav","None","726.370035269","415","161862.477562","154122.377879","154889.739751","155656.878375","156424.178351","157191.38368","157958.523806","158725.846618","162628.957257","148768.712182","149519.082511","150286.402318","151053.595627","151820.852936","152588.015297","153355.226635","161866.566049","Mapping"
"Mixed","Male","done","38","M_jaw.wav","None","727.209546754","415","161862.477562","154122.377879","154889.739751","155656.878375","156424.178351","157191.38368","157958.523806","158725.846618","162628.957257","163395.921008","149519.082511","150286.402318","151053.595627","151820.852936","152588.015297","153355.226635","162632.118796","Mapping"
"Mixed","Male","done","38","M_done.wav","None","727.051800322","415","161862.477562","154122.377879","154889.739751","155656.878375","156424.178351","157191.38368","157958.523806","158725.846618","162628.957257","163395.921008","164146.377872","150286.402318","151053.595627","151820.852936","152588.015297","153355.226635","163398.894753","Mapping"
"Mixed","Male","done","38","M_dime.wav","space","359.988774462","415","161862.477562","154122.377879","154889.739751","155656.878375","156424.178351","157191.38368","157958.523806","158725.846618","162628.957257","163395.921008","164146.377872","164913.662524","151053.595627","151820.852936","152588.015297","153355.226635","164149.278303","Mapping"
"Mixed","Male","done","38","F_cad.wav","None","740.993880641","415","161862.477562","154122.377879","154889.739751","155656.878375","156424.178351","157191.38368","157958.523806","158725.846618","162628.957257","163395.921008","164146.377872","164913.662524","165680.850425","151820.852936","152588.015297","153355.226635","164916.779593","Mapping"
"Mixed","Male","done","38","M_done.wav","None","740.675383084","415","161862.477562","154122.377879","154889.739751","155656.878375","156424.178351","157191.38368","157958.523806","158725.846618","162628.957257","163395.921008","164146.377872","164913.662524","165680.850425","166448.05425","152588.015297","153355.226635","165683.579889","Mapping"
"Mixed","Male","done","38","F_bluff.wav","space","392.43406049","415","161862.477562","154122.377879","154889.739751","155656.878375","156424.178351","157191.38368","157958.523806","158725.846618","162628.957257","163395.921008","164146.377872","164913.662524","165680.850425","166448.05425","167215.469907","153355.226635","166450.841404","Mapping"
"Mixed","Male","done","38","M_done.wav","None","738.370782838","415","161862.477562","154122.377879","154889.739751","155656.878375","156424.178351","157191.38368","157958.523806","158725.846618","162628.957257","163395.921008","164146.377872","164913.662524","165680.850425","166448.05425","167215.469907","167982.943855","167218.44846","Mapping"
"Mixed","Male","done","38","F_greet.wav","space","379.951059545","415","161862.477562","168749.746855","154889.739751","155656.878375","156424.178351","157191.38368","157958.523806","158725.846618","162628.957257","163395.921008","164146.377872","164913.662524","165680.850425","166448.05425","167215.469907","167982.943855","167986.326239","Mapping"
"Mixed","Male","done","38","M_done.wav","None","736.476323313","415","161862.477562","168749.746855","169516.9633","155656.878375","156424.178351","157191.38368","157958.523806","158725.846618","162628.957257","163395.921008","164146.377872","164913.662524","165680.850425","166448.05425","167215.469907","167982.943855","168752.607924","Mapping"
"Mixed","Male","done","38","F_cad.wav","space","356.558014932","415","161862.477562","168749.746855","169516.9633","170284.16352","156424.178351","157191.38368","157958.523806","158725.846618","162628.957257","163395.921008","164146.377872","164913.662524","165680.850425","166448.05425","167215.469907","167982.943855","169519.699975","Mapping"
"Mixed","Male","done","38","M_park.wav","None","734.405788724","415","161862.477562","168749.746855","169516.9633","170284.16352","171051.423834","157191.38368","157958.523806","158725.846618","162628.957257","163395.921008","164146.377872","164913.662524","165680.850425","166448.05425","167215.469907","167982.943855","170286.880064","Mapping"
"Mixed","Male","done","38","F_depth.wav","None","733.432267889","415","161862.477562","168749.746855","169516.9633","170284.16352","171051.423834","171818.62736","157958.523806","158725.846618","162628.957257","163395.921008","164146.377872","164913.662524","165680.850425","166448.05425","167215.469907","167982.943855","171054.207984","Mapping"
"Mixed","Male","done","38","F_bluff.wav","None","732.816606102","415","161862.477562","168749.746855","169516.9633","170284.16352","171051.423834","171818.62736","172585.828782","158725.846618","162628.957257","163395.921008","164146.377872","164913.662524","165680.850425","166448.05425","167215.469907","167982.943855","171821.327678","Mapping"
"Mixed","Male","done","38","F_jolt.wav","None","731.929319983","415","161862.477562","168749.746855","169516.9633","170284.16352","171051.423834","171818.62736","172585.828782","173353.143781","162628.957257","163395.921008","164146.377872","164913.662524","165680.850425","166448.05425","167215.469907","167982.943855","172588.886959","Mapping"
"Mixed","Female","done","45","M_jolt.wav","None","731.648681569","415","176489.244999","168749.746855","169516.9633","170284.16352","171051.423834","171818.62736","172585.828782","173353.143781","162628.957257","163395.921008","164146.377872","164913.662524","165680.850425","166448.05425","167215.469907","167982.943855","173355.60102","Mapping"
"Mixed","Female","done","45","F_done.wav","None","727.351668778","415","176489.244999","168749.746855","169516.9633","170284.16352","171051.423834","171818.62736","172585.828782","173353.143781","177256.108993","163395.921008","164146.377872","164913.662524","165680.850425","166448.05425","167215.469907","167982.943855","176493.079889","Mapping"
"Mixed","Female","done","45","M_knife.wav","space","334.949758513","415","176489.244999","168749.746855","169516.9633","170284.16352","171051.423834","171818.62736","172585.828782","173353.143781","177256.108993","178023.543279","164146.377872","164913.662524","165680.850425","166448.05425","167215.469907","167982.943855","177259.316805","Mapping"
"Mixed","Female","done","45","M_cling.wav","space","0.0330516322865","415","176489.244999","168749.746855","169516.9633","170284.16352","171051.423834","171818.62736","172585.828782","173353.143781","177256.108993","178023.543279","178773.75496","164913.662524","165680.850425","166448.05425","167215.469907","167982.943855","178026.441607","Mapping"
"Mixed","Female","done","45","F_jolt.wav","None","742.327664279","415","176489.244999","168749.746855","169516.9633","170284.16352","171051.423834","171818.62736","172585.828782","173353.143781","177256.108993","178023.543279","178773.75496","179540.869546","165680.850425","166448.05425","167215.469907","167982.943855","178776.301438","Mapping"
"Mixed","Female","done","45","F_done.wav","None","741.077110662","415","176489.244999","168749.746855","169516.9633","170284.16352","171051.423834","171818.62736","172585.828782","173353.143781","177256.108993","178023.543279","178773.75496","179540.869546","180308.106424","166448.05425","167215.469907","167982.943855","179544.08517","Mapping"
"Mixed","Female","done","45","F_reek.wav","space","459.25695121","415","176489.244999","168749.746855","169516.9633","170284.16352","171051.423834","171818.62736","172585.828782","173353.143781","177256.108993","178023.543279","178773.75496","179540.869546","180308.106424","181075.648278","167215.469907","167982.943855","180311.019475","Mapping"
"Mixed","Female","done","45","M_lash.wav","None","738.504491717","415","176489.244999","168749.746855","169516.9633","170284.16352","171051.423834","171818.62736","172585.828782","173353.143781","177256.108993","178023.543279","178773.75496","179540.869546","180308.106424","181075.648278","181842.982507","167982.943855","181078.72238","Mapping"
"Mixed","Female","done","45","M_priest.wav","None","737.232905245","415","176489.244999","168749.746855","169516.9633","170284.16352","171051.423834","171818.62736","172585.828782","173353.143781","177256.108993","178023.543279","178773.75496","179540.869546","180308.106424","181075.648278","181842.982507","182610.183629","181846.254018","Mapping"
"Mixed","Female","done","45","F_done.wav","None","737.021074323","415","176489.244999","183377.069859","169516.9633","170284.16352","171051.423834","171818.62736","172585.828782","173353.143781","177256.108993","178023.543279","178773.75496","179540.869546","180308.106424","181075.648278","181842.982507","182610.183629","182613.310013","Mapping"
"Mixed","Female","done","45","F_park.wav","space","504.416900081","415","176489.244999","183377.069859","184144.258961","170284.16352","171051.423834","171818.62736","172585.828782","173353.143781","177256.108993","178023.543279","178773.75496","179540.869546","180308.106424","181075.648278","181842.982507","182610.183629","183379.843191","Mapping"
"Mixed","Female","done","45","M_park.wav","None","735.236586595","415","176489.244999","183377.069859","184144.258961","184911.499444","171051.423834","171818.62736","172585.828782","173353.143781","177256.108993","178023.543279","178773.75496","179540.869546","180308.106424","181075.648278","181842.982507","182610.183629","184147.283186","Mapping"
"Mixed","Female","done","45","F_done.wav","None","735.13592935","415","176489.244999","183377.069859","184144.258961","184911.499444","185678.712284","171818.62736","172585.828782","173353.143781","177256.108993","178023.543279","178773.75496","179540.869546","180308.106424","181075.648278","181842.982507","182610.183629","184914.190749","Mapping"
"Mixed","Female","done","45","F_depth.wav","space","428.92787112","415","176489.244999","183377.069859","184144.258961","184911.499444","185678.712284","186445.924523","172585.828782","173353.143781","177256.108993","178023.543279","178773.75496","179540.869546","180308.106424","181075.648278","181842.982507","182610.183629","185681.37234","Mapping"
"Mixed","Female","done","45","M_gnash.wav","None","732.962333757","415","176489.244999","183377.069859","184144.258961","184911.499444","185678.712284","186445.924523","187213.05864","173353.143781","177256.108993","178023.543279","178773.75496","179540.869546","180308.106424","181075.648278","181842.982507","182610.183629","186449.063527","Mapping"
"Mixed","Female","done","45","M_reek.wav","None","732.707235244","415","176489.244999","183377.069859","184144.258961","184911.499444","185678.712284","186445.924523","187213.05864","187980.33518","177256.108993","178023.543279","178773.75496","179540.869546","180308.106424","181075.648278","181842.982507","182610.183629","187216.111109","Mapping"
"Mixed","Male","cave","16","F_cad.wav","None","732.105995987","415","191117.022312","183377.069859","184144.258961","184911.499444","185678.712284","186445.924523","187213.05864","187980.33518","177256.108993","178023.543279","178773.75496","179540.869546","180308.106424","181075.648278","181842.982507","182610.183629","187983.334465","Mapping"
"Mixed","Male","cave","16","F_lash.wav","space","612.706069422","415","191117.022312","183377.069859","184144.258961","184911.499444","185678.712284","186445.924523","187213.05864","187980.33518","191884.070495","178023.543279","178773.75496","179540.869546","180308.106424","181075.648278","181842.982507","182610.183629","191120.558837","Mapping"
"Mixed","Male","cave","16","M_priest.wav","None","726.536795783","415","191117.022312","183377.069859","184144.258961","184911.499444","185678.712284","186445.924523","187213.05864","187980.33518","191884.070495","192651.287842","178773.75496","179540.869546","180308.106424","181075.648278","181842.982507","182610.183629","191887.608823","Mapping"
"Mixed","Male","cave","16","M_reek.wav","None","725.923537751","415","191117.022312","183377.069859","184144.258961","184911.499444","185678.712284","186445.924523","187213.05864","187980.33518","191884.070495","192651.287842","193418.01332","179540.869546","180308.106424","181075.648278","181842.982507","182610.183629","192654.849606","Mapping"
"Mixed","Male","cave","16","F_cad.wav","None","726.704758174","415","191117.022312","183377.069859","184144.258961","184911.499444","185678.712284","186445.924523","187213.05864","187980.33518","191884.070495","192651.287842","193418.01332","194185.173578","180308.106424","181075.648278","181842.982507","182610.183629","193420.97054","Mapping"
"Mixed","Male","cave","16","M_cave.wav","space","590.871259081","415","191117.022312","183377.069859","184144.258961","184911.499444","185678.712284","186445.924523","187213.05864","187980.33518","191884.070495","192651.287842","193418.01332","194185.173578","194935.44355","181075.648278","181842.982507","182610.183629","194188.388601","Mapping"
"Mixed","Male","cave","16","F_cling.wav","None","741.644096408","415","191117.022312","183377.069859","184144.258961","184911.499444","185678.712284","186445.924523","187213.05864","187980.33518","191884.070495","192651.287842","193418.01332","194185.173578","194935.44355","195702.666005","181842.982507","182610.183629","194938.496018","Mapping"
"Mixed","Male","cave","16","F_lash.wav","space","0.0306478778075","415","191117.022312","183377.069859","184144.258961","184911.499444","185678.712284","186445.924523","187213.05864","187980.33518","191884.070495","192651.287842","193418.01332","194185.173578","194935.44355","195702.666005","196469.961474","182610.183629","195705.468783","Mapping"
"Mixed","Male","cave","16","M_cave.wav","None","740.030876235","415","191117.022312","183377.069859","184144.258961","184911.499444","185678.712284","186445.924523","187213.05864","187980.33518","191884.070495","192651.287842","193418.01332","194185.173578","194935.44355","195702.666005","196469.961474","197237.160793","196472.605905","Mapping"
"Mixed","Male","cave","16","F_jolt.wav","space","630.505275341","415","191117.022312","198004.272074","184144.258961","184911.499444","185678.712284","186445.924523","187213.05864","187980.33518","191884.070495","192651.287842","193418.01332","194185.173578","194935.44355","195702.666005","196469.961474","197237.160793","197239.766463","Mapping"
"Mixed","Male","cave","16","M_lash.wav","None","738.095552873","415","191117.022312","198004.272074","198771.529684","184911.499444","185678.712284","186445.924523","187213.05864","187980.33518","191884.070495","192651.287842","193418.01332","194185.173578","194935.44355","195702.666005","196469.961474","197237.160793","198006.876843","Mapping"
"Mixed","Male","cave","16","M_cave.wav","None","737.558914536","415","191117.022312","198004.272074","198771.529684","199538.730204","185678.712284","186445.924523","187213.05864","187980.33518","191884.070495","192651.287842","193418.01332","194185.173578","194935.44355","195702.666005","196469.961474","197237.160793","198774.366415","Mapping"
"Mixed","Male","cave","16","F_bluff.wav","space","594.903858808","415","191117.022312","198004.272074","198771.529684","199538.730204","200305.970687","186445.924523","187213.05864","187980.33518","191884.070495","192651.287842","193418.01332","194185.173578","194935.44355","195702.666005","196469.961474","197237.160793","199541.363819","Mapping"
"Mixed","Male","cave","16","M_cave.wav","None","735.888004241","415","191117.022312","198004.272074","198771.529684","199538.730204","200305.970687","201073.216879","187213.05864","187980.33518","191884.070495","192651.287842","193418.01332","194185.173578","194935.44355","195702.666005","196469.961474","197237.160793","200308.761748","Mapping"
"Mixed","Male","cave","16","F_reek.wav","space","716.113812998","415","191117.022312","198004.272074","198771.529684","199538.730204","200305.970687","201073.216879","201840.442339","187980.33518","191884.070495","192651.287842","193418.01332","194185.173578","194935.44355","195702.666005","196469.961474","197237.160793","201076.153066","Mapping"
"Mixed","Male","cave","16","M_cad.wav","None","733.721619914","415","191117.022312","198004.272074","198771.529684","199538.730204","200305.970687","201073.216879","201840.442339","202607.635949","191884.070495","192651.287842","193418.01332","194185.173578","194935.44355","195702.666005","196469.961474","197237.160793","201842.863221","Mapping"
"Mixed","Female","done","48","M_lash.wav","None","732.383329238","415","205744.154518","198004.272074","198771.529684","199538.730204","200305.970687","201073.216879","201840.442339","202607.635949","191884.070495","192651.287842","193418.01332","194185.173578","194935.44355","195702.666005","196469.961474","197237.160793","202610.924286","Mapping"
"Mixed","Female","done","48","M_bluff.wav","None","726.876927136","415","205744.154518","198004.272074","198771.529684","199538.730204","200305.970687","201073.216879","201840.442339","202607.635949","206510.713837","192651.287842","193418.01332","194185.173578","194935.44355","195702.666005","196469.961474","197237.160793","205748.261334","Mapping"
"Mixed","Female","done","48","F_priest.wav","None","727.700213274","415","205744.154518","198004.272074","198771.529684","199538.730204","200305.970687","201073.216879","201840.442339","202607.635949","206510.713837","207277.953118","193418.01332","194185.173578","194935.44355","195702.666005","196469.961474","197237.160793","206514.180353","Mapping"
"Mixed","Female","done","48","M_romp.wav","None","727.702617029","415","205744.154518","198004.272074","198771.529684","199538.730204","200305.970687","201073.216879","201840.442339","202607.635949","206510.713837","207277.953118","208045.10977","194185.173578","194935.44355","195702.666005","196469.961474","197237.160793","207280.889606","Mapping"
"Mixed","Female","done","48","F_done.wav","None","727.223969287","415","205744.154518","198004.272074","198771.529684","199538.730204","200305.970687","201073.216879","201840.442339","202607.635949","206510.713837","207277.953118","208045.10977","208812.447906","194935.44355","195702.666005","196469.961474","197237.160793","208048.069094","Mapping"
"Mixed","Female","done","48","M_bluff.wav","space","509.127358759","415","205744.154518","198004.272074","198771.529684","199538.730204","200305.970687","201073.216879","201840.442339","202607.635949","206510.713837","207277.953118","208045.10977","208812.447906","209563.160469","195702.666005","196469.961474","197237.160793","208815.134102","Mapping"
"Mixed","Female","done","48","M_reek.wav","None","741.126387642","415","205744.154518","198004.272074","198771.529684","199538.730204","200305.970687","201073.216879","201840.442339","202607.635949","206510.713837","207277.953118","208045.10977","208812.447906","209563.160469","210329.902774","196469.961474","197237.160793","209566.3809","Mapping"
"Mixed","Female","done","48","M_knife.wav","None","742.023589251","415","205744.154518","198004.272074","198771.529684","199538.730204","200305.970687","201073.216879","201840.442339","202607.635949","206510.713837","207277.953118","208045.10977","208812.447906","209563.160469","210329.902774","211097.127332","197237.160793","210332.468182","Mapping"
"Mixed","Female","done","48","F_done.wav","None","741.39560822","415","205744.154518","198004.272074","198771.529684","199538.730204","200305.970687","201073.216879","201840.442339","202607.635949","206510.713837","207277.953118","208045.10977","208812.447906","209563.160469","210329.902774","211097.127332","211864.278576","211099.879932","Mapping"
"Mixed","Female","done","48","F_bluff.wav","space","360.325300184","415","205744.154518","212631.537688","198771.529684","199538.730204","200305.970687","201073.216879","201840.442339","202607.635949","206510.713837","207277.953118","208045.10977","208812.447906","209563.160469","210329.902774","211097.127332","211864.278576","211866.936228","Mapping"
"Mixed","Female","done","48","F_done.wav","None","739.842782396","415","205744.154518","212631.537688","213398.765852","199538.730204","200305.970687","201073.216879","201840.442339","202607.635949","206510.713837","207277.953118","208045.10977","208812.447906","209563.160469","210329.902774","211097.127332","211864.278576","212634.226288","Mapping"
"Mixed","Female","done","48","M_greet.wav","space","672.504887134","415","205744.154518","212631.537688","213398.765852","214166.030974","200305.970687","201073.216879","201840.442339","202607.635949","206510.713837","207277.953118","208045.10977","208812.447906","209563.160469","210329.902774","211097.127332","211864.278576","213401.7414","Mapping"
"Mixed","Female","done","48","M_cad.wav","None","737.737994294","415","205744.154518","212631.537688","213398.765852","214166.030974","214933.290687","201073.216879","201840.442339","202607.635949","206510.713837","207277.953118","208045.10977","208812.447906","209563.160469","210329.902774","211097.127332","211864.278576","214168.914278","Mapping"
"Mixed","Female","done","48","F_romp.wav","None","737.298107104","415","205744.154518","212631.537688","213398.765852","214166.030974","214933.290687","215700.39656","201840.442339","202607.635949","206510.713837","207277.953118","208045.10977","208812.447906","209563.160469","210329.902774","211097.127332","211864.278576","214936.259625","Mapping"
"Mixed","Female","done","48","F_done.wav","None","737.081168201","415","205744.154518","212631.537688","213398.765852","214166.030974","214933.290687","215700.39656","216467.727784","202607.635949","206510.713837","207277.953118","208045.10977","208812.447906","209563.160469","210329.902774","211097.127332","211864.278576","215703.162681","Mapping"
"Mixed","Female","done","48","F_jolt.wav","space","509.670907892","415","205744.154518","212631.537688","213398.765852","214166.030974","214933.290687","215700.39656","216467.727784","217234.9893","206510.713837","207277.953118","208045.10977","208812.447906","209563.160469","210329.902774","211097.127332","211864.278576","216470.641436","Mapping"
"Mixed","Female","ball","10","F_romp.wav","None","735.032868348","415","220371.228433","212631.537688","213398.765852","214166.030974","214933.290687","215700.39656","216467.727784","217234.9893","206510.713837","207277.953118","208045.10977","208812.447906","209563.160469","210329.902774","211097.127332","211864.278576","217237.564623","Mapping"
"Mixed","Female","ball","10","M_park.wav","None","727.012138363","415","220371.228433","212631.537688","213398.765852","214166.030974","214933.290687","215700.39656","216467.727784","217234.9893","221138.424447","207277.953118","208045.10977","208812.447906","209563.160469","210329.902774","211097.127332","211864.278576","220375.025164","Mapping"
"Mixed","Female","ball","10","F_ball.wav","None","726.867011645","415","220371.228433","212631.537688","213398.765852","214166.030974","214933.290687","215700.39656","216467.727784","217234.9893","221138.424447","221905.134","208045.10977","208812.447906","209563.160469","210329.902774","211097.127332","211864.278576","221142.023469","Mapping"
"Mixed","Female","ball","10","M_lash.wav","space","468.792948344","415","220371.228433","212631.537688","213398.765852","214166.030974","214933.290687","215700.39656","216467.727784","217234.9893","221138.424447","221905.134","222672.430371","208812.447906","209563.160469","210329.902774","211097.127332","211864.278576","221908.400704","Mapping"
"Mixed","Female","ball","10","M_priest.wav","None","725.852927444","415","220371.228433","212631.537688","213398.765852","214166.030974","214933.290687","215700.39656","216467.727784","217234.9893","221138.424447","221905.134","222672.430371","223422.811817","209563.160469","210329.902774","211097.127332","211864.278576","222675.691365","Mapping"
"Mixed","Female","ball","10","F_bluff.wav","None","742.555720546","415","220371.228433","212631.537688","213398.765852","214166.030974","214933.290687","215700.39656","216467.727784","217234.9893","221138.424447","221905.134","222672.430371","223422.811817","224189.979286","210329.902774","211097.127332","211864.278576","223425.697224","Mapping"
"Mixed","Female","ball","10","M_bluff.wav","None","742.481805075","415","220371.228433","212631.537688","213398.765852","214166.030974","214933.290687","215700.39656","216467.727784","217234.9893","221138.424447","221905.134","222672.430371","223422.811817","224189.979286","224957.199036","211097.127332","211864.278576","224192.594571","Mapping"
"Mixed","Female","ball","10","F_ball.wav","None","741.869748921","415","220371.228433","212631.537688","213398.765852","214166.030974","214933.290687","215700.39656","216467.727784","217234.9893","221138.424447","221905.134","222672.430371","223422.811817","224189.979286","224957.199036","225724.730073","211864.278576","224960.093758","Mapping"
"Mixed","Female","ball","10","F_knife.wav","space","394.482961283","415","220371.228433","212631.537688","213398.765852","214166.030974","214933.290687","215700.39656","216467.727784","217234.9893","221138.424447","221905.134","222672.430371","223422.811817","224189.979286","224957.199036","225724.730073","226491.972359","225727.754899","Mapping"
"Mixed","Female","ball","10","F_ball.wav","None","738.750576149","415","220371.228433","227259.287659","213398.765852","214166.030974","214933.290687","215700.39656","216467.727784","217234.9893","221138.424447","221905.134","222672.430371","223422.811817","224189.979286","224957.199036","225724.730073","226491.972359","226495.548846","Mapping"
"Mixed","Female","ball","10","M_gnash.wav","None","738.516210024","415","220371.228433","227259.287659","228026.101776","214166.030974","214933.290687","215700.39656","216467.727784","217234.9893","221138.424447","221905.134","222672.430371","223422.811817","224189.979286","224957.199036","225724.730073","226491.972359","227262.766494","Mapping"
"Mixed","Female","ball","10","F_park.wav","space","0.0180281622452","415","220371.228433","227259.287659","228026.101776","228793.308306","214933.290687","215700.39656","216467.727784","217234.9893","221138.424447","221905.134","222672.430371","223422.811817","224189.979286","224957.199036","225724.730073","226491.972359","228028.931897","Mapping"
"Mixed","Female","ball","10","M_priest.wav","None","737.969656197","415","220371.228433","227259.287659","228026.101776","228793.308306","229560.54278","215700.39656","216467.727784","217234.9893","221138.424447","221905.134","222672.430371","223422.811817","224189.979286","224957.199036","225724.730073","226491.972359","228796.047986","Mapping"
"Mixed","Female","ball","10","M_romp.wav","None","737.7791586","415","220371.228433","227259.287659","228026.101776","228793.308306","229560.54278","230327.735188","216467.727784","217234.9893","221138.424447","221905.134","222672.430371","223422.811817","224189.979286","224957.199036","225724.730073","226491.972359","229563.268338","Mapping"
"Mixed","Female","ball","10","F_ball.wav","None","737.329656389","415","220371.228433","227259.287659","228026.101776","228793.308306","229560.54278","230327.735188","231094.85999","217234.9893","221138.424447","221905.134","222672.430371","223422.811817","224189.979286","224957.199036","225724.730073","226491.972359","230330.713741","Mapping"
"Mixed","Female","ball","10","M_reek.wav","space","429.671532869","415","220371.228433","227259.287659","228026.101776","228793.308306","229560.54278","230327.735188","231094.85999","231862.160868","221138.424447","221905.134","222672.430371","223422.811817","224189.979286","224957.199036","225724.730073","226491.972359","231097.581943","Mapping"
"Mixed","Male","done","41","F_knife.wav","None","735.583929214","415","234998.678536","227259.287659","228026.101776","228793.308306","229560.54278","230327.735188","231094.85999","231862.160868","221138.424447","221905.134","222672.430371","223422.811817","224189.979286","224957.199036","225724.730073","226491.972359","231864.913768","Mapping"
"Mixed","Male","done","41","F_knife.wav","None","727.224870694","415","234998.678536","227259.287659","228026.101776","228793.308306","229560.54278","230327.735188","231094.85999","231862.160868","235765.331601","221905.134","222672.430371","223422.811817","224189.979286","224957.199036","225724.730073","226491.972359","235002.492694","Mapping"
"Mixed","Male","done","41","F_bluff.wav","None","728.472119144","415","234998.678536","227259.287659","228026.101776","228793.308306","229560.54278","230327.735188","231094.85999","231862.160868","235765.331601","236532.568178","222672.430371","223422.811817","224189.979286","224957.199036","225724.730073","226491.972359","235768.071581","Mapping"
"Mixed","Male","done","41","M_done.wav","None","726.043425038","415","234998.678536","227259.287659","228026.101776","228793.308306","229560.54278","230327.735188","231094.85999","231862.160868","235765.331601","236532.568178","237299.566783","223422.811817","224189.979286","224957.199036","225724.730073","226491.972359","236537.126599","Mapping"
"Mixed","Male","done","41","F_knife.wav","space","399.956912688","415","234998.678536","227259.287659","228026.101776","228793.308306","229560.54278","230327.735188","231094.85999","231862.160868","235765.331601","236532.568178","237299.566783","238066.866459","224189.979286","224957.199036","225724.730073","226491.972359","237302.27852","Mapping"
"Mixed","Male","done","41","F_lash.wav","None","726.32015735","415","234998.678536","227259.287659","228026.101776","228793.308306","229560.54278","230327.735188","231094.85999","231862.160868","235765.331601","236532.568178","237299.566783","238066.866459","238817.152055","224957.199036","225724.730073","226491.972359","238069.743153","Mapping"
"Mixed","Male","done","41","M_bluff.wav","None","743.105279067","415","234998.678536","227259.287659","228026.101776","228793.308306","229560.54278","230327.735188","231094.85999","231862.160868","235765.331601","236532.568178","237299.566783","238066.866459","238817.152055","239584.437308","225724.730073","226491.972359","238819.826833","Mapping"
"Mixed","Male","done","41","M_done.wav","None","742.428922462","415","234998.678536","227259.287659","228026.101776","228793.308306","229560.54278","230327.735188","231094.85999","231862.160868","235765.331601","236532.568178","237299.566783","238066.866459","238817.152055","239584.437308","240351.62581","226491.972359","239587.563992","Mapping"
"Mixed","Male","done","41","M_jolt.wav","space","429.714800461","415","234998.678536","227259.287659","228026.101776","228793.308306","229560.54278","230327.735188","231094.85999","231862.160868","235765.331601","236532.568178","237299.566783","238066.866459","238817.152055","239584.437308","240351.62581","241118.895138","240354.53826","Mapping"
"Mixed","Male","done","41","F_park.wav","None","740.693411248","415","234998.678536","241886.15425","228026.101776","228793.308306","229560.54278","230327.735188","231094.85999","231862.160868","235765.331601","236532.568178","237299.566783","238066.866459","238817.152055","239584.437308","240351.62581","241118.895138","241121.599363","Mapping"
"Mixed","Male","done","41","F_cad.wav","None","739.921204906","415","234998.678536","241886.15425","242653.67417","228793.308306","229560.54278","230327.735188","231094.85999","231862.160868","235765.331601","236532.568178","237299.566783","238066.866459","238817.152055","239584.437308","240351.62581","241118.895138","241889.325104","Mapping"
"Mixed","Male","done","41","M_jolt.wav","None","738.750275681","415","234998.678536","241886.15425","242653.67417","243420.780944","229560.54278","230327.735188","231094.85999","231862.160868","235765.331601","236532.568178","237299.566783","238066.866459","238817.152055","239584.437308","240351.62581","241118.895138","242657.116648","Mapping"
"Mixed","Male","done","41","M_done.wav","None","739.253862384","415","234998.678536","241886.15425","242653.67417","243420.780944","244187.854366","230327.735188","231094.85999","231862.160868","235765.331601","236532.568178","237299.566783","238066.866459","238817.152055","239584.437308","240351.62581","241118.895138","243423.669957","Mapping"
"Mixed","Male","done","41","M_lash.wav","space","461.526096067","415","234998.678536","241886.15425","242653.67417","243420.780944","244187.854366","244955.453009","231094.85999","231862.160868","235765.331601","236532.568178","237299.566783","238066.866459","238817.152055","239584.437308","240351.62581","241118.895138","244190.741877","Mapping"
"Mixed","Male","done","41","M_done.wav","None","736.863327891","415","234998.678536","241886.15425","242653.67417","243420.780944","244187.854366","244955.453009","245722.505097","231862.160868","235765.331601","236532.568178","237299.566783","238066.866459","238817.152055","239584.437308","240351.62581","241118.895138","244959.115731","Mapping"
"Mixed","Male","done","41","F_bluff.wav","None","737.573938006","415","234998.678536","241886.15425","242653.67417","243420.780944","244187.854366","244955.453009","245722.505097","246489.449618","235765.331601","236532.568178","237299.566783","238066.866459","238817.152055","239584.437308","240351.62581","241118.895138","245725.462618","Mapping"
"Mixed","Male","tile","28","F_jolt.wav","space","0.0348544490407","415","249625.888864","241886.15425","242653.67417","243420.780944","244187.854366","244955.453009","245722.505097","246489.449618","235765.331601","236532.568178","237299.566783","238066.866459","238817.152055","239584.437308","240351.62581","241118.895138","246492.484359","Mapping"
"Mixed","Male","tile","28","F_greet.wav","None","728.546335085","415","249625.888864","241886.15425","242653.67417","243420.780944","244187.854366","244955.453009","245722.505097","246489.449618","250393.126943","236532.568178","237299.566783","238066.866459","238817.152055","239584.437308","240351.62581","241118.895138","249629.408863","Mapping"
"Mixed","Male","tile","28","F_lash.wav","None","727.62810062","415","249625.888864","241886.15425","242653.67417","243420.780944","244187.854366","244955.453009","245722.505097","246489.449618","250393.126943","251160.173022","237299.566783","238066.866459","238817.152055","239584.437308","240351.62581","241118.895138","250396.887918","Mapping"
"Mixed","Male","tile","28","M_tile.wav","None","728.054166218","415","249625.888864","241886.15425","242653.67417","243420.780944","244187.854366","244955.453009","245722.505097","246489.449618","250393.126943","251160.173022","251926.970313","238066.866459","238817.152055","239584.437308","240351.62581","241118.895138","251163.643444","Mapping"
"Mixed","Male","tile","28","M_priest.wav","space","477.307650011","415","249625.888864","241886.15425","242653.67417","243420.780944","244187.854366","244955.453009","245722.505097","246489.449618","250393.126943","251160.173022","251926.970313","252694.13628","238817.152055","239584.437308","240351.62581","241118.895138","251929.924829","Mapping"
"Mixed","Male","tile","28","M_jaw.wav","None","727.893415093","415","249625.888864","241886.15425","242653.67417","243420.780944","244187.854366","244955.453009","245722.505097","246489.449618","250393.126943","251160.173022","251926.970313","252694.13628","253462.084368","239584.437308","240351.62581","241118.895138","252696.787922","Mapping"
"Mixed","Male","tile","28","M_tile.wav","None","725.872457953","415","249625.888864","241886.15425","242653.67417","243420.780944","244187.854366","244955.453009","245722.505097","246489.449618","250393.126943","251160.173022","251926.970313","252694.13628","253462.084368","254228.733227","240351.62581","241118.895138","253465.415672","Mapping"
"Mixed","Male","tile","28","F_bluff.wav","space","565.678102332","415","249625.888864","241886.15425","242653.67417","243420.780944","244187.854366","244955.453009","245722.505097","246489.449618","250393.126943","251160.173022","251926.970313","252694.13628","253462.084368","254228.733227","254979.208119","241118.895138","254231.615029","Mapping"
"Mixed","Male","tile","28","M_tile.wav","None","741.89498835","415","249625.888864","241886.15425","242653.67417","243420.780944","244187.854366","244955.453009","245722.505097","246489.449618","250393.126943","251160.173022","251926.970313","252694.13628","253462.084368","254228.733227","254979.208119","255746.612358","254982.463104","Mapping"
"Mixed","Male","tile","28","F_greet.wav","space","427.894556877","415","249625.888864","256513.759395","242653.67417","243420.780944","244187.854366","244955.453009","245722.505097","246489.449618","250393.126943","251160.173022","251926.970313","252694.13628","253462.084368","254228.733227","254979.208119","255746.612358","255749.35354","Mapping"
"Mixed","Male","tile","28","M_tile.wav","None","740.53927045","415","249625.888864","256513.759395","257280.533249","243420.780944","244187.854366","244955.453009","245722.505097","246489.449618","250393.126943","251160.173022","251926.970313","252694.13628","253462.084368","254228.733227","254979.208119","255746.612358","256516.917629","Mapping"
"Mixed","Male","tile","28","F_bluff.wav","space","440.918703198","415","249625.888864","256513.759395","257280.533249","258047.87499","244187.854366","244955.453009","245722.505097","246489.449618","250393.126943","251160.173022","251926.970313","252694.13628","253462.084368","254228.733227","254979.208119","255746.612358","257283.325812","Mapping"
"Mixed","Male","tile","28","M_bluff.wav","None","739.991815213","415","249625.888864","256513.759395","257280.533249","258047.87499","258815.092337","244955.453009","245722.505097","246489.449618","250393.126943","251160.173022","251926.970313","252694.13628","253462.084368","254228.733227","254979.208119","255746.612358","258050.458426","Mapping"
"Mixed","Male","tile","28","F_jaw.wav","None","739.855702579","415","249625.888864","256513.759395","257280.533249","258047.87499","258815.092337","259582.341534","245722.505097","246489.449618","250393.126943","251160.173022","251926.970313","252694.13628","253462.084368","254228.733227","254979.208119","255746.612358","258817.756599","Mapping"
"Mixed","Male","tile","28","M_jolt.wav","None","739.179045506","415","249625.888864","256513.759395","257280.533249","258047.87499","258815.092337","259582.341534","260349.490073","246489.449618","250393.126943","251160.173022","251926.970313","252694.13628","253462.084368","254228.733227","254979.208119","255746.612358","259585.11727","Mapping"
"Mixed","Male","tile","28","F_park.wav","None","739.273392894","415","249625.888864","256513.759395","257280.533249","258047.87499","258815.092337","259582.341534","260349.490073","261116.690294","250393.126943","251160.173022","251926.970313","252694.13628","253462.084368","254228.733227","254979.208119","255746.612358","260352.209922","Mapping"
"Mixed","Male","ball","2","F_jolt.wav","None","739.162820159","415","264253.1046","256513.759395","257280.533249","258047.87499","258815.092337","259582.341534","260349.490073","261116.690294","250393.126943","251160.173022","251926.970313","252694.13628","253462.084368","254228.733227","254979.208119","255746.612358","261119.215438","Mapping"
"Mixed","Male","ball","2","M_lash.wav","None","727.93998785","415","264253.1046","256513.759395","257280.533249","258047.87499","258815.092337","259582.341534","260349.490073","261116.690294","265020.45175","251160.173022","251926.970313","252694.13628","253462.084368","254228.733227","254979.208119","255746.612358","264256.986364","Mapping"
"Mixed","Male","ball","2","F_bluff.wav","None","727.450523207","415","264253.1046","256513.759395","257280.533249","258047.87499","258815.092337","259582.341534","260349.490073","261116.690294","265020.45175","265787.487313","251926.970313","252694.13628","253462.084368","254228.733227","254979.208119","255746.612358","265024.492462","Mapping"
"Mixed","Male","ball","2","M_ball.wav","None","727.129020956","415","264253.1046","256513.759395","257280.533249","258047.87499","258815.092337","259582.341534","260349.490073","261116.690294","265020.45175","265787.487313","266554.766857","252694.13628","253462.084368","254228.733227","254979.208119","255746.612358","265791.638898","Mapping"
"Mixed","Male","ball","2","M_knife.wav","space","437.33200005","415","264253.1046","256513.759395","257280.533249","258047.87499","258815.092337","259582.341534","260349.490073","261116.690294","265020.45175","265787.487313","266554.766857","267321.937631","253462.084368","254228.733227","254979.208119","255746.612358","266558.913034","Mapping"
"Mixed","Male","ball","2","M_ball.wav","None","726.397377985","415","264253.1046","256513.759395","257280.533249","258047.87499","258815.092337","259582.341534","260349.490073","261116.690294","265020.45175","265787.487313","266554.766857","267321.937631","268089.330152","254228.733227","254979.208119","255746.612358","267325.568804","Mapping"
"Mixed","Male","ball","2","M_reek.wav","space","329.256163979","415","264253.1046","256513.759395","257280.533249","258047.87499","258815.092337","259582.341534","260349.490073","261116.690294","265020.45175","265787.487313","266554.766857","267321.937631","268089.330152","268838.942095","254979.208119","255746.612358","268093.013005","Mapping"
"Mixed","Male","ball","2","M_ball.wav","None","742.952340146","415","264253.1046","256513.759395","257280.533249","258047.87499","258815.092337","259582.341534","260349.490073","261116.690294","265020.45175","265787.487313","266554.766857","267321.937631","268089.330152","268838.942095","269606.168456","255746.612358","268841.617475","Mapping"
"Mixed","Male","ball","2","F_lash.wav","space","375.225577398","415","264253.1046","256513.759395","257280.533249","258047.87499","258815.092337","259582.341534","260349.490073","261116.690294","265020.45175","265787.487313","266554.766857","267321.937631","268089.330152","268838.942095","269606.168456","270373.480752","269609.031329","Mapping"
"Mixed","Male","ball","2","F_gnash.wav","None","740.721655369","415","264253.1046","271140.57731","257280.533249","258047.87499","258815.092337","259582.341534","260349.490073","261116.690294","265020.45175","265787.487313","266554.766857","267321.937631","268089.330152","268838.942095","269606.168456","270373.480752","270376.419943","Mapping"
"Mixed","Male","ball","2","M_ball.wav","None","741.259796052","415","264253.1046","271140.57731","271907.902225","258047.87499","258815.092337","259582.341534","260349.490073","261116.690294","265020.45175","265787.487313","266554.766857","267321.937631","268089.330152","268838.942095","269606.168456","270373.480752","271143.199807","Mapping"
"Mixed","Male","ball","2","F_romp.wav","space","532.661023051","415","264253.1046","271140.57731","271907.902225","272675.062182","258815.092337","259582.341534","260349.490073","261116.690294","265020.45175","265787.487313","266554.766857","267321.937631","268089.330152","268838.942095","269606.168456","270373.480752","271910.565886","Mapping"
"Mixed","Male","ball","2","F_jolt.wav","None","739.615327064","415","264253.1046","271140.57731","271907.902225","272675.062182","273442.351642","259582.341534","260349.490073","261116.690294","265020.45175","265787.487313","266554.766857","267321.937631","268089.330152","268838.942095","269606.168456","270373.480752","272678.003778","Mapping"
"Mixed","Male","ball","2","F_romp.wav","None","739.373449202","415","264253.1046","271140.57731","271907.902225","272675.062182","273442.351642","274209.486059","260349.490073","261116.690294","265020.45175","265787.487313","266554.766857","267321.937631","268089.330152","268838.942095","269606.168456","270373.480752","273445.354833","Mapping"
"Mixed","Male","ball","2","M_knife.wav","None","739.739120454","415","264253.1046","271140.57731","271907.902225","272675.062182","273442.351642","274209.486059","274976.715425","261116.690294","265020.45175","265787.487313","266554.766857","267321.937631","268089.330152","268838.942095","269606.168456","270373.480752","274212.238359","Mapping"
"Mixed","Male","ball","2","F_dime.wav","None","739.119552565","415","264253.1046","271140.57731","271907.902225","272675.062182","273442.351642","274209.486059","274976.715425","275744.336603","265020.45175","265787.487313","266554.766857","267321.937631","268089.330152","268838.942095","269606.168456","270373.480752","274979.590917","Mapping"
"Mixed","Female","tile","35","M_gnash.wav","None","738.515008146","415","278880.573632","271140.57731","271907.902225","272675.062182","273442.351642","274209.486059","274976.715425","275744.336603","265020.45175","265787.487313","266554.766857","267321.937631","268089.330152","268838.942095","269606.168456","270373.480752","275747.461184","Mapping"
"Mixed","Female","tile","35","F_tile.wav","None","727.849246094","415","278880.573632","271140.57731","271907.902225","272675.062182","273442.351642","274209.486059","274976.715425","275744.336603","279646.897684","265787.487313","266554.766857","267321.937631","268089.330152","268838.942095","269606.168456","270373.480752","278884.045856","Mapping"
"Mixed","Female","tile","35","F_dime.wav","space","478.361095704","415","278880.573632","271140.57731","271907.902225","272675.062182","273442.351642","274209.486059","274976.715425","275744.336603","279646.897684","280414.339481","266554.766857","267321.937631","268089.330152","268838.942095","269606.168456","270373.480752","279649.91049","Mapping"
"Mixed","Female","tile","35","F_jolt.wav","None","727.396438717","415","278880.573632","271140.57731","271907.902225","272675.062182","273442.351642","274209.486059","274976.715425","275744.336603","279646.897684","280414.339481","281181.479607","267321.937631","268089.330152","268838.942095","269606.168456","270373.480752","280417.439424","Mapping"
"Mixed","Female","tile","35","F_tile.wav","None","727.661452722","415","278880.573632","271140.57731","271907.902225","272675.062182","273442.351642","274209.486059","274976.715425","275744.336603","279646.897684","280414.339481","281181.479607","281948.76486","268089.330152","268838.942095","269606.168456","270373.480752","281184.522461","Mapping"
"Mixed","Female","tile","35","M_priest.wav","space","499.368413335","415","278880.573632","271140.57731","271907.902225","272675.062182","273442.351642","274209.486059","274976.715425","275744.336603","279646.897684","280414.339481","281181.479607","281948.76486","282716.069944","268838.942095","269606.168456","270373.480752","281951.877723","Mapping"
"Mixed","Female","tile","35","F_tile.wav","None","726.512457762","415","278880.573632","271140.57731","271907.902225","272675.062182","273442.351642","274209.486059","274976.715425","275744.336603","279646.897684","280414.339481","281181.479607","281948.76486","282716.069944","283483.013864","269606.168456","270373.480752","282718.810225","Mapping"
"Mixed","Female","tile","35","F_priest.wav","space","587.39512867","415","278880.573632","271140.57731","271907.902225","272675.062182","273442.351642","274209.486059","274976.715425","275744.336603","279646.897684","280414.339481","281181.479607","281948.76486","282716.069944","283483.013864","284233.485151","270373.480752","283485.833469","Mapping"
"Mixed","Female","tile","35","M_bluff.wav","None","742.311739399","415","278880.573632","271140.57731","271907.902225","272675.062182","273442.351642","274209.486059","274976.715425","275744.336603","279646.897684","280414.339481","281181.479607","281948.76486","282716.069944","283483.013864","284233.485151","285000.723831","284236.400905","Mapping"
"Mixed","Female","tile","35","M_knife.wav","None","742.091795802","415","278880.573632","285767.942079","271907.902225","272675.062182","273442.351642","274209.486059","274976.715425","275744.336603","279646.897684","280414.339481","281181.479607","281948.76486","282716.069944","283483.013864","284233.485151","285000.723831","285003.825276","Mapping"
"Mixed","Female","tile","35","F_cling.wav","None","742.038011782","415","278880.573632","285767.942079","286535.152215","272675.062182","273442.351642","274209.486059","274976.715425","275744.336603","279646.897684","280414.339481","281181.479607","281948.76486","282716.069944","283483.013864","284233.485151","285000.723831","285771.240632","Mapping"
"Mixed","Female","tile","35","F_tile.wav","None","742.406387259","415","278880.573632","285767.942079","286535.152215","287302.385787","273442.351642","274209.486059","274976.715425","275744.336603","279646.897684","280414.339481","281181.479607","281948.76486","282716.069944","283483.013864","284233.485151","285000.723831","286538.308345","Mapping"
"Mixed","Female","tile","35","M_dime.wav","space","598.793735573","415","278880.573632","285767.942079","286535.152215","287302.385787","288069.526514","274209.486059","274976.715425","275744.336603","279646.897684","280414.339481","281181.479607","281948.76486","282716.069944","283483.013864","284233.485151","285000.723831","287305.439157","Mapping"
"Mixed","Female","tile","35","M_dime.wav","None","741.696378082","415","278880.573632","285767.942079","286535.152215","287302.385787","288069.526514","288836.754678","274976.715425","275744.336603","279646.897684","280414.339481","281181.479607","281948.76486","282716.069944","283483.013864","284233.485151","285000.723831","288072.492748","Mapping"
"Mixed","Female","tile","35","M_depth.wav","None","741.694575267","415","278880.573632","285767.942079","286535.152215","287302.385787","288069.526514","288836.754678","289604.025509","275744.336603","279646.897684","280414.339481","281181.479607","281948.76486","282716.069944","283483.013864","284233.485151","285000.723831","288839.977513","Mapping"
"Mixed","Female","tile","35","M_reek.wav","None","742.086687822","415","278880.573632","285767.942079","286535.152215","287302.385787","288069.526514","288836.754678","289604.025509","290371.318874","279646.897684","280414.339481","281181.479607","281948.76486","282716.069944","283483.013864","284233.485151","285000.723831","289606.9647","Mapping"
"Mixed","Female","done","47","F_depth.wav","None","742.026293476","415","293507.818214","285767.942079","286535.152215","287302.385787","288069.526514","288836.754678","289604.025509","290371.318874","279646.897684","280414.339481","281181.479607","281948.76486","282716.069944","283483.013864","284233.485151","285000.723831","290374.48492","Mapping"
"Mixed","Female","done","47","F_done.wav","None","725.763087094","415","293507.818214","285767.942079","286535.152215","287302.385787","288069.526514","288836.754678","289604.025509","290371.318874","294274.94542","280414.339481","281181.479607","281948.76486","282716.069944","283483.013864","284233.485151","285000.723831","293512.070456","Mapping"
"Mixed","Female","done","47","M_dime.wav","space","423.323515995","415","293507.818214","285767.942079","286535.152215","287302.385787","288069.526514","288836.754678","289604.025509","290371.318874","294274.94542","295041.48641","281181.479607","281948.76486","282716.069944","283483.013864","284233.485151","285000.723831","294278.911916","Mapping"
"Mixed","Female","done","47","M_reek.wav","None","725.523913457","415","293507.818214","285767.942079","286535.152215","287302.385787","288069.526514","288836.754678","289604.025509","290371.318874","294274.94542","295041.48641","295808.575457","281948.76486","282716.069944","283483.013864","284233.485151","285000.723831","295045.151836","Mapping"
"Mixed","Female","done","47","M_priest.wav","None","725.876664526","415","293507.818214","285767.942079","286535.152215","287302.385787","288069.526514","288836.754678","289604.025509","290371.318874","294274.94542","295041.48641","295808.575457","296559.046442","282716.069944","283483.013864","284233.485151","285000.723831","295811.983681","Mapping"
"Mixed","Female","done","47","M_cad.wav","None","742.933711044","415","293507.818214","285767.942079","286535.152215","287302.385787","288069.526514","288836.754678","289604.025509","290371.318874","294274.94542","295041.48641","295808.575457","296559.046442","297343.080761","283483.013864","284233.485151","285000.723831","296561.973615","Mapping"
"Mixed","Female","done","47","F_done.wav","None","726.296119798","415","293507.818214","285767.942079","286535.152215","287302.385787","288069.526514","288836.754678","289604.025509","290371.318874","294274.94542","295041.48641","295808.575457","296559.046442","297343.080761","298110.456455","284233.485151","285000.723831","297346.05691","Mapping"
"Mixed","Female","done","47","F_jaw.wav","space","454.436220263","415","293507.818214","285767.942079","286535.152215","287302.385787","288069.526514","288836.754678","289604.025509","290371.318874","294274.94542","295041.48641","295808.575457","296559.046442","297343.080761","298110.456455","298860.698784","285000.723831","298113.832229","Mapping"
"Mixed","Female","done","47","F_done.wav","None","741.515795975","415","293507.818214","285767.942079","286535.152215","287302.385787","288069.526514","288836.754678","289604.025509","290371.318874","294274.94542","295041.48641","295808.575457","296559.046442","297343.080761","298110.456455","298860.698784","299627.916131","298863.931534","Mapping"
"Mixed","Female","done","47","M_jolt.wav","space","511.049761937","415","293507.818214","300395.194473","286535.152215","287302.385787","288069.526514","288836.754678","289604.025509","290371.318874","294274.94542","295041.48641","295808.575457","296559.046442","297343.080761","298110.456455","298860.698784","299627.916131","299631.174721","Mapping"
"Mixed","Female","done","47","M_bluff.wav","None","723.331989233","415","293507.818214","300395.194473","301162.419331","287302.385787","288069.526514","288836.754678","289604.025509","290371.318874","294274.94542","295041.48641","295808.575457","296559.046442","297343.080761","298110.456455","298860.698784","299627.916131","300414.947932","Mapping"
"Mixed","Female","done","47","F_done.wav","None","740.080453685","415","293507.818214","300395.194473","301162.419331","301929.703984","288069.526514","288836.754678","289604.025509","290371.318874","294274.94542","295041.48641","295808.575457","296559.046442","297343.080761","298110.456455","298860.698784","299627.916131","301165.488927","Mapping"
"Mixed","Female","done","47","M_depth.wav","space","456.647674999","415","293507.818214","300395.194473","301162.419331","301929.703984","302696.917725","288836.754678","289604.025509","290371.318874","294274.94542","295041.48641","295808.575457","296559.046442","297343.080761","298110.456455","298860.698784","299627.916131","301932.584283","Mapping"
"Mixed","Female","done","47","M_cad.wav","None","738.636097311","415","293507.818214","300395.194473","301162.419331","301929.703984","302696.917725","303464.117645","289604.025509","290371.318874","294274.94542","295041.48641","295808.575457","296559.046442","297343.080761","298110.456455","298860.698784","299627.916131","302699.747546","Mapping"
"Mixed","Female","done","47","F_lash.wav","None","739.092810789","415","293507.818214","300395.194473","301162.419331","301929.703984","302696.917725","303464.117645","304231.194973","290371.318874","294274.94542","295041.48641","295808.575457","296559.046442","297343.080761","298110.456455","298860.698784","299627.916131","303466.672836","Mapping"
"Mixed","Female","done","47","F_greet.wav","None","739.180247383","415","293507.818214","300395.194473","301162.419331","301929.703984","302696.917725","303464.117645","304231.194973","304998.5277","294274.94542","295041.48641","295808.575457","296559.046442","297343.080761","298110.456455","298860.698784","299627.916131","304233.825883","Mapping"
"Mixed","Female","tile","36","M_bluff.wav","None","739.435946836","415","308135.051377","300395.194473","301162.419331","301929.703984","302696.917725","303464.117645","304231.194973","304998.5277","294274.94542","295041.48641","295808.575457","296559.046442","297343.080761","298110.456455","298860.698784","299627.916131","305001.155305","Mapping"
"Mixed","Female","tile","36","F_priest.wav","None","727.602861191","415","308135.051377","300395.194473","301162.419331","301929.703984","302696.917725","303464.117645","304231.194973","304998.5277","308901.559917","295041.48641","295808.575457","296559.046442","297343.080761","298110.456455","298860.698784","299627.916131","308138.402212","Mapping"
"Mixed","Female","tile","36","F_tile.wav","None","729.101602523","415","308135.051377","300395.194473","301162.419331","301929.703984","302696.917725","303464.117645","304231.194973","304998.5277","308901.559917","309668.777564","295808.575457","296559.046442","297343.080761","298110.456455","298860.698784","299627.916131","308904.405062","Mapping"
"Mixed","Female","tile","36","M_reek.wav","space","475.491913468","415","308135.051377","300395.194473","301162.419331","301929.703984","302696.917725","303464.117645","304231.194973","304998.5277","308901.559917","309668.777564","310436.737071","296559.046442","297343.080761","298110.456455","298860.698784","299627.916131","309671.731779","Mapping"
"Mixed","Female","tile","36","F_tile.wav","None","725.856232608","415","308135.051377","300395.194473","301162.419331","301929.703984","302696.917725","303464.117645","304231.194973","304998.5277","308901.559917","309668.777564","310436.737071","311203.867882","297343.080761","298110.456455","298860.698784","299627.916131","310440.669314","Mapping"
"Mixed","Female","tile","36","F_jaw.wav","space","721.859388737","415","308135.051377","300395.194473","301162.419331","301929.703984","302696.917725","303464.117645","304231.194973","304998.5277","308901.559917","309668.777564","310436.737071","311203.867882","311953.534812","298110.456455","298860.698784","299627.916131","311207.429947","Mapping"
"Mixed","Female","tile","36","M_cling.wav","None","742.723081998","415","308135.051377","300395.194473","301162.419331","301929.703984","302696.917725","303464.117645","304231.194973","304998.5277","308901.559917","309668.777564","310436.737071","311203.867882","311953.534812","312737.719966","298860.698784","299627.916131","311956.588182","Mapping"
"Mixed","Female","tile","36","F_tile.wav","None","726.256758308","415","308135.051377","300395.194473","301162.419331","301929.703984","302696.917725","303464.117645","304231.194973","304998.5277","308901.559917","309668.777564","310436.737071","311203.867882","311953.534812","312737.719966","313504.863698","299627.916131","312740.52004","Mapping"
"Mixed","Female","tile","36","M_jolt.wav","space","569.532523708","415","308135.051377","300395.194473","301162.419331","301929.703984","302696.917725","303464.117645","304231.194973","304998.5277","308901.559917","309668.777564","310436.737071","311203.867882","311953.534812","312737.719966","313504.863698","314255.263773","313507.665876","Mapping"
"Mixed","Female","tile","36","M_priest.wav","None","742.165711274","415","308135.051377","315022.421026","301162.419331","301929.703984","302696.917725","303464.117645","304231.194973","304998.5277","308901.559917","309668.777564","310436.737071","311203.867882","311953.534812","312737.719966","313504.863698","314255.263773","314258.223697","Mapping"
"Mixed","Female","tile","36","M_park.wav","None","742.919288512","415","308135.051377","315022.421026","315789.647688","301929.703984","302696.917725","303464.117645","304231.194973","304998.5277","308901.559917","309668.777564","310436.737071","311203.867882","311953.534812","312737.719966","313504.863698","314255.263773","315025.078678","Mapping"
"Mixed","Female","tile","36","M_knife.wav","None","742.853485715","415","308135.051377","315022.421026","315789.647688","316557.026687","302696.917725","303464.117645","304231.194973","304998.5277","308901.559917","309668.777564","310436.737071","311203.867882","311953.534812","312737.719966","313504.863698","314255.263773","315792.591987","Mapping"
"Mixed","Female","tile","36","F_park.wav","None","742.763344897","415","308135.051377","315022.421026","315789.647688","316557.026687","317341.539653","303464.117645","304231.194973","304998.5277","308901.559917","309668.777564","310436.737071","311203.867882","311953.534812","312737.719966","313504.863698","314255.263773","316559.727006","Mapping"
"Mixed","Female","tile","36","F_tile.wav","None","725.058486367","415","308135.051377","315022.421026","315789.647688","316557.026687","317341.539653","318108.646728","304231.194973","304998.5277","308901.559917","309668.777564","310436.737071","311203.867882","311953.534812","312737.719966","313504.863698","314255.263773","317344.899202","Mapping"
"Mixed","Female","tile","36","F_jolt.wav","space","490.735627196","415","308135.051377","315022.421026","315789.647688","316557.026687","317341.539653","318108.646728","318858.556136","304998.5277","308901.559917","309668.777564","310436.737071","311203.867882","311953.534812","312737.719966","313504.863698","314255.263773","318112.478915","Mapping"
"Mixed","Female","tile","36","M_depth.wav","None","741.953880352","415","308135.051377","315022.421026","315789.647688","316557.026687","317341.539653","318108.646728","318858.556136","319625.80984","308901.559917","309668.777564","310436.737071","311203.867882","311953.534812","312737.719966","313504.863698","314255.263773","318861.087291","Mapping"
"Mixed","Female","tile","34","F_greet.wav","None","741.681655081","415","322762.018025","315022.421026","315789.647688","316557.026687","317341.539653","318108.646728","318858.556136","319625.80984","308901.559917","309668.777564","310436.737071","311203.867882","311953.534812","312737.719966","313504.863698","314255.263773","319628.62614","Mapping"
"Mixed","Female","tile","34","F_tile.wav","None","728.007292993","415","322762.018025","315022.421026","315789.647688","316557.026687","317341.539653","318108.646728","318858.556136","319625.80984","323529.230564","309668.777564","310436.737071","311203.867882","311953.534812","312737.719966","313504.863698","314255.263773","322765.731225","Mapping"
"Mixed","Female","tile","34","F_jolt.wav","None","728.521396126","415","322762.018025","315022.421026","315789.647688","316557.026687","317341.539653","318108.646728","318858.556136","319625.80984","323529.230564","324296.143535","310436.737071","311203.867882","311953.534812","312737.719966","313504.863698","314255.263773","323532.778507","Mapping"
"Mixed","Female","tile","34","M_lash.wav","space","0.0357558583491","415","322762.018025","315022.421026","315789.647688","316557.026687","317341.539653","318108.646728","318858.556136","319625.80984","323529.230564","324296.143535","325063.115699","311203.867882","311953.534812","312737.719966","313504.863698","314255.263773","324299.403929","Mapping"
"Mixed","Female","tile","34","M_gnash.wav","None","728.975705848","415","322762.018025","315022.421026","315789.647688","316557.026687","317341.539653","318108.646728","318858.556136","319625.80984","323529.230564","324296.143535","325063.115699","325830.531657","311953.534812","312737.719966","313504.863698","314255.263773","325066.039867","Mapping"
"Mixed","Female","tile","34","F_tile.wav","None","728.881658928","415","322762.018025","315022.421026","315789.647688","316557.026687","317341.539653","318108.646728","318858.556136","319625.80984","323529.230564","324296.143535","325063.115699","325830.531657","326597.696421","312737.719966","313504.863698","314255.263773","325833.559487","Mapping"
"Mixed","Female","tile","34","M_cad.wav","space","411.662298842","415","322762.018025","315022.421026","315789.647688","316557.026687","317341.539653","318108.646728","318858.556136","319625.80984","323529.230564","324296.143535","325063.115699","325830.531657","326597.696421","327364.936303","313504.863698","314255.263773","326600.55719","Mapping"
"Mixed","Female","tile","34","M_lash.wav","None","727.69119919","415","322762.018025","315022.421026","315789.647688","316557.026687","317341.539653","318108.646728","318858.556136","319625.80984","323529.230564","324296.143535","325063.115699","325830.531657","326597.696421","327364.936303","328132.220655","314255.263773","327367.998087","Mapping"
"Mixed","Female","tile","34","F_tile.wav","None","728.246767099","415","322762.018025","315022.421026","315789.647688","316557.026687","317341.539653","318108.646728","318858.556136","319625.80984","323529.230564","324296.143535","325063.115699","325830.531657","326597.696421","327364.936303","328132.220655","328899.481871","328135.146927","Mapping"
"Mixed","Female","tile","34","M_reek.wav","space","485.493037222","415","322762.018025","329666.702523","315789.647688","316557.026687","317341.539653","318108.646728","318858.556136","319625.80984","323529.230564","324296.143535","325063.115699","325830.531657","326597.696421","327364.936303","328132.220655","328899.481871","328902.757287","Mapping"
"Mixed","Female","tile","34","F_tile.wav","None","726.118542387","415","322762.018025","329666.702523","330433.859175","316557.026687","317341.539653","318108.646728","318858.556136","319625.80984","323529.230564","324296.143535","325063.115699","325830.531657","326597.696421","327364.936303","328132.220655","328899.481871","329669.90132","Mapping"
"Mixed","Female","tile","34","M_priest.wav","space","407.440403398","415","322762.018025","329666.702523","330433.859175","331184.146874","317341.539653","318108.646728","318858.556136","319625.80984","323529.230564","324296.143535","325063.115699","325830.531657","326597.696421","327364.936303","328132.220655","328899.481871","330436.776432","Mapping"
"Mixed","Female","tile","34","M_knife.wav","None","741.736340511","415","322762.018025","329666.702523","330433.859175","331184.146874","331951.444146","318108.646728","318858.556136","319625.80984","323529.230564","324296.143535","325063.115699","325830.531657","326597.696421","327364.936303","328132.220655","328899.481871","331187.542479","Mapping"
"Mixed","Female","tile","34","F_gnash.wav","None","742.53408675","415","322762.018025","329666.702523","330433.859175","331184.146874","331951.444146","332718.606507","318858.556136","319625.80984","323529.230564","324296.143535","325063.115699","325830.531657","326597.696421","327364.936303","328132.220655","328899.481871","331954.355394","Mapping"
"Mixed","Female","tile","34","M_knife.wav","None","743.290067745","415","322762.018025","329666.702523","330433.859175","331184.146874","331951.444146","332718.606507","333502.798271","319625.80984","323529.230564","324296.143535","325063.115699","325830.531657","326597.696421","327364.936303","328132.220655","328899.481871","332721.151483","Mapping"
