"Condition","Talker","Target","Trial","current_stimulus","response_response","response_time_response","subject_nr","time_Audio1","time_Audio10","time_Audio11","time_Audio12","time_Audio13","time_Audio14","time_Audio15","time_Audio16","time_Audio2","time_Audio3","time_Audio4","time_Audio5","time_Audio6","time_Audio7","time_Audio8","time_Audio9","time_response"
"Blocked","Male","done","24","M_cling.wav","NA","NA","437","93751.376913","NA","NA","NA","NA","NA","NA","NA","NA","NA","NA","NA","NA","NA","NA","NA","NA"
"Blocked","Male","done","24","M_done.wav","None","739.967120066","437","93751.376913","NA","NA","NA","NA","NA","NA","NA","94518.01354","NA","NA","NA","NA","NA","NA","NA","93758.5624584"
"Blocked","Male","done","24","M_cad.wav","None","739.887637821","437","93751.376913","NA","NA","NA","NA","NA","NA","NA","94518.01354","95284.5826656","NA","NA","NA","NA","NA","NA","94523.1728727"
"Blocked","Male","done","24","M_jolt.wav","None","737.672946932","437","93751.376913","NA","NA","NA","NA","NA","NA","NA","94518.01354","95284.5826656","96051.2286435","NA","NA","NA","NA","NA","95289.9208334"
"Blocked","Male","done","24","M_lash.wav","None","735.424359202","437","93751.376913","NA","NA","NA","NA","NA","NA","NA","94518.01354","95284.5826656","96051.2286435","96817.8757903","NA","NA","NA","NA","96056.648339"
"Blocked","Male","done","24","M_priest.wav","None","733.904261298","437","93751.376913","NA","NA","NA","NA","NA","NA","NA","94518.01354","95284.5826656","96051.2286435","96817.8757903","97584.4855336","NA","NA","NA","96822.9497964"
"Blocked","Male","done","24","M_done.wav","None","731.675251918","437","93751.376913","NA","NA","NA","NA","NA","NA","NA","94518.01354","95284.5826656","96051.2286435","96817.8757903","97584.4855336","98351.1131021","NA","NA","97589.8418186"
"Blocked","Male","done","24","M_reek.wav","space","494.0253899","437","93751.376913","NA","NA","NA","NA","NA","NA","NA","94518.01354","95284.5826656","96051.2286435","96817.8757903","97584.4855336","98351.1131021","99117.9151223","NA","98356.3262021"
"Blocked","Male","done","24","M_done.wav","None","727.372106641","437","93751.376913","NA","NA","NA","NA","NA","NA","NA","94518.01354","95284.5826656","96051.2286435","96817.8757903","97584.4855336","98351.1131021","99117.9151223","99867.7821649","99123.7374889"
"Blocked","Male","done","24","M_cling.wav","space","473.415819535","437","93751.376913","100634.335511","NA","NA","NA","NA","NA","NA","94518.01354","95284.5826656","96051.2286435","96817.8757903","97584.4855336","98351.1131021","99117.9151223","99867.7821649","99872.8360083"
"Blocked","Male","done","24","M_done.wav","None","740.774215494","437","93751.376913","100634.335511","101400.958988","NA","NA","NA","NA","NA","94518.01354","95284.5826656","96051.2286435","96817.8757903","97584.4855336","98351.1131021","99117.9151223","99867.7821649","100639.509454"
"Blocked","Male","done","24","M_greet.wav","space","388.110333042","437","93751.376913","100634.335511","101400.958988","102167.5962","NA","NA","NA","NA","94518.01354","95284.5826656","96051.2286435","96817.8757903","97584.4855336","98351.1131021","99117.9151223","99867.7821649","101406.057833"
"Blocked","Male","done","24","M_depth.wav","None","736.763576562","437","93751.376913","100634.335511","101400.958988","102167.5962","102934.257957","NA","NA","NA","94518.01354","95284.5826656","96051.2286435","96817.8757903","97584.4855336","98351.1131021","99117.9151223","99867.7821649","102172.79878"
"Blocked","Male","done","24","M_park.wav","None","734.682135313","437","93751.376913","100634.335511","101400.958988","102167.5962","102934.257957","103700.830589","NA","NA","94518.01354","95284.5826656","96051.2286435","96817.8757903","97584.4855336","98351.1131021","99117.9151223","99867.7821649","102939.403556"
"Blocked","Male","done","24","M_cling.wav","None","732.882096276","437","93751.376913","100634.335511","101400.958988","102167.5962","102934.257957","103700.830589","104467.489133","NA","94518.01354","95284.5826656","96051.2286435","96817.8757903","97584.4855336","98351.1131021","99117.9151223","99867.7821649","103705.872744"
"Blocked","Male","done","24","M_jaw.wav","None","730.852669141","437","93751.376913","100634.335511","101400.958988","102167.5962","102934.257957","103700.830589","104467.489133","105234.595348","94518.01354","95284.5826656","96051.2286435","96817.8757903","97584.4855336","98351.1131021","99117.9151223","99867.7821649","104472.530703"
"Blocked","Male","tile","16","M_cling.wav","None","727.541298624","437","108334.028803","100634.335511","101400.958988","102167.5962","102934.257957","103700.830589","104467.489133","105234.595348","94518.01354","95284.5826656","96051.2286435","96817.8757903","97584.4855336","98351.1131021","99117.9151223","99867.7821649","105240.400766"
"Blocked","Male","tile","16","M_romp.wav","None","742.205772516","437","108334.028803","100634.335511","101400.958988","102167.5962","102934.257957","103700.830589","104467.489133","105234.595348","109100.657248","95284.5826656","96051.2286435","96817.8757903","97584.4855336","98351.1131021","99117.9151223","99867.7821649","108339.156284"
"Blocked","Male","tile","16","M_tile.wav","None","743.684668229","437","108334.028803","100634.335511","101400.958988","102167.5962","102934.257957","103700.830589","104467.489133","105234.595348","109100.657248","109867.245075","96051.2286435","96817.8757903","97584.4855336","98351.1131021","99117.9151223","99867.7821649","109102.411994"
"Blocked","Male","tile","16","M_reek.wav","space","504.905983023","437","108334.028803","100634.335511","101400.958988","102167.5962","102934.257957","103700.830589","104467.489133","105234.595348","109100.657248","109867.245075","110633.809525","96817.8757903","97584.4855336","98351.1131021","99117.9151223","99867.7821649","109872.506391"
"Blocked","Male","tile","16","M_gnash.wav","None","736.842474376","437","108334.028803","100634.335511","101400.958988","102167.5962","102934.257957","103700.830589","104467.489133","105234.595348","109100.657248","109867.245075","110633.809525","111400.45901","97584.4855336","98351.1131021","99117.9151223","99867.7821649","110638.835316"
"Blocked","Male","tile","16","M_tile.wav","None","735.009999567","437","108334.028803","100634.335511","101400.958988","102167.5962","102934.257957","103700.830589","104467.489133","105234.595348","109100.657248","109867.245075","110633.809525","111400.45901","112167.094468","98351.1131021","99117.9151223","99867.7821649","111405.517237"
"Blocked","Male","tile","16","M_cling.wav","space","429.094241394","437","108334.028803","100634.335511","101400.958988","102167.5962","102934.257957","103700.830589","104467.489133","105234.595348","109100.657248","109867.245075","110633.809525","111400.45901","112167.094468","112933.776388","99117.9151223","99867.7821649","112172.209969"
"Blocked","Male","tile","16","M_tile.wav","None","731.212384733","437","108334.028803","100634.335511","101400.958988","102167.5962","102934.257957","103700.830589","104467.489133","105234.595348","109100.657248","109867.245075","110633.809525","111400.45901","112167.094468","112933.776388","113700.401619","99867.7821649","112938.681495"
"Blocked","Male","tile","16","M_cad.wav","space","431.444811853","437","108334.028803","100634.335511","101400.958988","102167.5962","102934.257957","103700.830589","104467.489133","105234.595348","109100.657248","109867.245075","110633.809525","111400.45901","112167.094468","112933.776388","113700.401619","114467.309713","113705.707351"
"Blocked","Male","tile","16","M_jolt.wav","None","726.439943566","437","108334.028803","115216.98068","101400.958988","102167.5962","102934.257957","103700.830589","104467.489133","105234.595348","109100.657248","109867.245075","110633.809525","111400.45901","112167.094468","112933.776388","113700.401619","114467.309713","114472.818242"
"Blocked","Male","tile","16","M_jolt.wav","None","742.051191242","437","108334.028803","115216.98068","115983.588378","102167.5962","102934.257957","103700.830589","104467.489133","105234.595348","109100.657248","109867.245075","110633.809525","111400.45901","112167.094468","112933.776388","113700.401619","114467.309713","115222.070173"
"Blocked","Male","tile","16","M_romp.wav","None","740.190663877","437","108334.028803","115216.98068","115983.588378","116750.278188","102934.257957","103700.830589","104467.489133","105234.595348","109100.657248","109867.245075","110633.809525","111400.45901","112167.094468","112933.776388","113700.401619","114467.309713","115988.759691"
"Blocked","Male","tile","16","M_cad.wav","None","738.252115338","437","108334.028803","115216.98068","115983.588378","116750.278188","117516.871567","103700.830589","104467.489133","105234.595348","109100.657248","109867.245075","110633.809525","111400.45901","112167.094468","112933.776388","113700.401619","114467.309713","116755.509405"
"Blocked","Male","tile","16","M_knife.wav","None","736.457628365","437","108334.028803","115216.98068","115983.588378","116750.278188","117516.871567","118283.499136","104467.489133","105234.595348","109100.657248","109867.245075","110633.809525","111400.45901","112167.094468","112933.776388","113700.401619","114467.309713","117522.154506"
"Blocked","Male","tile","16","M_tile.wav","None","735.004155282","437","108334.028803","115216.98068","115983.588378","116750.278188","117516.871567","118283.499136","119050.164107","105234.595348","109100.657248","109867.245075","110633.809525","111400.45901","112167.094468","112933.776388","113700.401619","114467.309713","118288.535446"
"Blocked","Male","tile","16","M_romp.wav","space","497.593032211","437","108334.028803","115216.98068","115983.588378","116750.278188","117516.871567","118283.499136","119050.164107","119816.784663","109100.657248","109867.245075","110633.809525","111400.45901","112167.094468","112933.776388","113700.401619","114467.309713","119055.177917"
"Blocked","Male","done","20","M_reek.wav","None","730.959327298","437","122916.616406","115216.98068","115983.588378","116750.278188","117516.871567","118283.499136","119050.164107","119816.784663","109100.657248","109867.245075","110633.809525","111400.45901","112167.094468","112933.776388","113700.401619","114467.309713","119821.984905"
"Blocked","Male","done","20","M_jolt.wav","None","742.097361075","437","122916.616406","115216.98068","115983.588378","116750.278188","117516.871567","118283.499136","119050.164107","119816.784663","123683.280793","109867.245075","110633.809525","111400.45901","112167.094468","112933.776388","113700.401619","114467.309713","122922.011263"
"Blocked","Male","done","20","M_priest.wav","None","740.371252206","437","122916.616406","115216.98068","115983.588378","116750.278188","117516.871567","118283.499136","119050.164107","119816.784663","123683.280793","124449.908654","110633.809525","111400.45901","112167.094468","112933.776388","113700.401619","114467.309713","123688.473146"
"Blocked","Male","done","20","M_done.wav","None","738.568875455","437","122916.616406","115216.98068","115983.588378","116750.278188","117516.871567","118283.499136","119050.164107","119816.784663","123683.280793","124449.908654","125216.553171","111400.45901","112167.094468","112933.776388","113700.401619","114467.309713","124455.090779"
"Blocked","Male","done","20","M_priest.wav","space","490.612328864","437","122916.616406","115216.98068","115983.588378","116750.278188","117516.871567","118283.499136","119050.164107","119816.784663","123683.280793","124449.908654","125216.553171","125983.160284","112167.094468","112933.776388","113700.401619","114467.309713","125221.622209"
"Blocked","Male","done","20","M_done.wav","None","734.349887847","437","122916.616406","115216.98068","115983.588378","116750.278188","117516.871567","118283.499136","119050.164107","119816.784663","123683.280793","124449.908654","125216.553171","125983.160284","126749.761553","112933.776388","113700.401619","114467.309713","125988.625857"
"Blocked","Male","done","20","M_romp.wav","space","485.372637304","437","122916.616406","115216.98068","115983.588378","116750.278188","117516.871567","118283.499136","119050.164107","119816.784663","123683.280793","124449.908654","125216.553171","125983.160284","126749.761553","127516.416005","113700.401619","114467.309713","126754.729778"
"Blocked","Male","done","20","M_cad.wav","None","730.738705632","437","122916.616406","115216.98068","115983.588378","116750.278188","117516.871567","118283.499136","119050.164107","119816.784663","123683.280793","124449.908654","125216.553171","125983.160284","126749.761553","127516.416005","128283.04708","114467.309713","127521.435952"
"Blocked","Male","done","20","M_done.wav","None","728.723889206","437","122916.616406","115216.98068","115983.588378","116750.278188","117516.871567","118283.499136","119050.164107","119816.784663","123683.280793","124449.908654","125216.553171","125983.160284","126749.761553","127516.416005","128283.04708","129050.028228","128288.33937"
"Blocked","Male","done","20","M_park.wav","space","528.351491521","437","122916.616406","129799.628771","115983.588378","116750.278188","117516.871567","118283.499136","119050.164107","119816.784663","123683.280793","124449.908654","125216.553171","125983.160284","126749.761553","127516.416005","128283.04708","129050.028228","129055.559549"
"Blocked","Male","done","20","M_bluff.wav","None","741.666345231","437","122916.616406","129799.628771","130566.312152","116750.278188","117516.871567","118283.499136","119050.164107","119816.784663","123683.280793","124449.908654","125216.553171","125983.160284","126749.761553","127516.416005","128283.04708","129050.028228","129804.699271"
"Blocked","Male","done","20","M_romp.wav","None","740.010075544","437","122916.616406","129799.628771","130566.312152","131332.880109","117516.871567","118283.499136","119050.164107","119816.784663","123683.280793","124449.908654","125216.553171","125983.160284","126749.761553","127516.416005","128283.04708","129050.028228","130571.269273"
"Blocked","Male","done","20","M_cling.wav","None","737.889769815","437","122916.616406","129799.628771","130566.312152","131332.880109","132099.566413","118283.499136","119050.164107","119816.784663","123683.280793","124449.908654","125216.553171","125983.160284","126749.761553","127516.416005","128283.04708","129050.028228","131338.127691"
"Blocked","Male","done","20","M_done.wav","None","736.341911572","437","122916.616406","129799.628771","130566.312152","131332.880109","132099.566413","132866.177909","119050.164107","119816.784663","123683.280793","124449.908654","125216.553171","125983.160284","126749.761553","127516.416005","128283.04708","129050.028228","132104.714349"
"Blocked","Male","done","20","M_lash.wav","space","576.20447742","437","122916.616406","129799.628771","130566.312152","131332.880109","132099.566413","132866.177909","133632.773042","119816.784663","123683.280793","124449.908654","125216.553171","125983.160284","126749.761553","127516.416005","128283.04708","129050.028228","132871.305098"
"Blocked","Male","done","20","M_gnash.wav","None","732.538160242","437","122916.616406","129799.628771","130566.312152","131332.880109","132099.566413","132866.177909","133632.773042","134399.423988","123683.280793","124449.908654","125216.553171","125983.160284","126749.761553","127516.416005","128283.04708","129050.028228","133637.989356"
"Blocked","Male","cave","10","M_bluff.wav","None","730.839227293","437","137482.576733","129799.628771","130566.312152","131332.880109","132099.566413","132866.177909","133632.773042","134399.423988","123683.280793","124449.908654","125216.553171","125983.160284","126749.761553","127516.416005","128283.04708","129050.028228","134404.467019"
"Blocked","Male","cave","10","M_depth.wav","space","623.533523391","437","137482.576733","129799.628771","130566.312152","131332.880109","132099.566413","132866.177909","133632.773042","134399.423988","138249.255146","124449.908654","125216.553171","125983.160284","126749.761553","127516.416005","128283.04708","129050.028228","137487.70509"
"Blocked","Male","cave","10","M_romp.wav","None","739.825396213","437","137482.576733","129799.628771","130566.312152","131332.880109","132099.566413","132866.177909","133632.773042","134399.423988","138249.255146","139015.875409","125216.553171","125983.160284","126749.761553","127516.416005","128283.04708","129050.028228","138254.361004"
"Blocked","Male","cave","10","M_park.wav","None","737.531515293","437","137482.576733","129799.628771","130566.312152","131332.880109","132099.566413","132866.177909","133632.773042","134399.423988","138249.255146","139015.875409","139782.465866","125983.160284","126749.761553","127516.416005","128283.04708","129050.028228","139021.78018"
"Blocked","Male","cave","10","M_cave.wav","None","736.80682425","437","137482.576733","129799.628771","130566.312152","131332.880109","132099.566413","132866.177909","133632.773042","134399.423988","138249.255146","139015.875409","139782.465866","140549.143696","126749.761553","127516.416005","128283.04708","129050.028228","139787.524385"
"Blocked","Male","cave","10","M_bluff.wav","space","484.554437739","437","137482.576733","129799.628771","130566.312152","131332.880109","132099.566413","132866.177909","133632.773042","134399.423988","138249.255146","139015.875409","139782.465866","140549.143696","141315.751978","127516.416005","128283.04708","129050.028228","140554.487416"
"Blocked","Male","cave","10","M_cave.wav","None","732.871284352","437","137482.576733","129799.628771","130566.312152","131332.880109","132099.566413","132866.177909","133632.773042","134399.423988","138249.255146","139015.875409","139782.465866","140549.143696","141315.751978","142082.42221","128283.04708","129050.028228","141320.917447"
"Blocked","Male","cave","10","M_lash.wav","None","731.231378653","437","137482.576733","129799.628771","130566.312152","131332.880109","132099.566413","132866.177909","133632.773042","134399.423988","138249.255146","139015.875409","139782.465866","140549.143696","141315.751978","142082.42221","142849.015297","129050.028228","142087.485404"
"Blocked","Male","cave","10","M_park.wav","space","0.556083487027","437","137482.576733","129799.628771","130566.312152","131332.880109","132099.566413","132866.177909","133632.773042","134399.423988","138249.255146","139015.875409","139782.465866","140549.143696","141315.751978","142082.42221","142849.015297","143615.938294","142854.338854"
"Blocked","Male","cave","10","M_cave.wav","None","726.64186353","437","137482.576733","144365.607215","130566.312152","131332.880109","132099.566413","132866.177909","133632.773042","134399.423988","138249.255146","139015.875409","139782.465866","140549.143696","141315.751978","142082.42221","142849.015297","143615.938294","143621.535363"
"Blocked","Male","cave","10","M_knife.wav","space","659.990742653","437","137482.576733","144365.607215","145132.243842","131332.880109","132099.566413","132866.177909","133632.773042","134399.423988","138249.255146","139015.875409","139782.465866","140549.143696","141315.751978","142082.42221","142849.015297","143615.938294","144370.651123"
"Blocked","Male","cave","10","M_bluff.wav","None","740.26751619","437","137482.576733","144365.607215","145132.243842","145898.877255","132099.566413","132866.177909","133632.773042","134399.423988","138249.255146","139015.875409","139782.465866","140549.143696","141315.751978","142082.42221","142849.015297","143615.938294","145137.274016"
"Blocked","Male","cave","10","M_cave.wav","None","738.350591499","437","137482.576733","144365.607215","145132.243842","145898.877255","146665.479693","132866.177909","133632.773042","134399.423988","138249.255146","139015.875409","139782.465866","140549.143696","141315.751978","142082.42221","142849.015297","143615.938294","145903.974346"
"Blocked","Male","cave","10","M_cad.wav","space","463.908632824","437","137482.576733","144365.607215","145132.243842","145898.877255","146665.479693","147432.147002","133632.773042","134399.423988","138249.255146","139015.875409","139782.465866","140549.143696","141315.751978","142082.42221","142849.015297","143615.938294","146670.606882"
"Blocked","Male","cave","10","M_jolt.wav","None","734.87295114","437","137482.576733","144365.607215","145132.243842","145898.877255","146665.479693","147432.147002","148198.767558","134399.423988","138249.255146","139015.875409","139782.465866","140549.143696","141315.751978","142082.42221","142849.015297","143615.938294","147437.126331"
"Blocked","Male","cave","10","M_depth.wav","None","732.850244935","437","137482.576733","144365.607215","145132.243842","145898.877255","146665.479693","147432.147002","148198.767558","148965.375548","138249.255146","139015.875409","139782.465866","140549.143696","141315.751978","142082.42221","142849.015297","143615.938294","148203.921631"
"Blocked","Male","cave","7","M_jaw.wav","None","730.972476937","437","152048.648685","144365.607215","145132.243842","145898.877255","146665.479693","147432.147002","148198.767558","148965.375548","138249.255146","139015.875409","139782.465866","140549.143696","141315.751978","142082.42221","142849.015297","143615.938294","148970.565563"
"Blocked","Male","cave","7","M_cave.wav","None","742.469934088","437","152048.648685","144365.607215","145132.243842","145898.877255","146665.479693","147432.147002","148198.767558","148965.375548","152815.21372","139015.875409","139782.465866","140549.143696","141315.751978","142082.42221","142849.015297","143615.938294","152053.592948"
"Blocked","Male","cave","7","M_depth.wav","space","513.589125894","437","152048.648685","144365.607215","145132.243842","145898.877255","146665.479693","147432.147002","148198.767558","148965.375548","152815.21372","153581.84158","139782.465866","140549.143696","141315.751978","142082.42221","142849.015297","143615.938294","152820.459255"
"Blocked","Male","cave","7","M_cave.wav","None","738.486763286","437","152048.648685","144365.607215","145132.243842","145898.877255","146665.479693","147432.147002","148198.767558","148965.375548","152815.21372","153581.84158","154348.500123","140549.143696","141315.751978","142082.42221","142849.015297","143615.938294","153587.006757"
"Blocked","Male","cave","7","M_reek.wav","space","612.252012481","437","152048.648685","144365.607215","145132.243842","145898.877255","146665.479693","147432.147002","148198.767558","148965.375548","152815.21372","153581.84158","154348.500123","155115.077723","141315.751978","142082.42221","142849.015297","143615.938294","154353.634326"
"Blocked","Male","cave","7","M_knife.wav","None","735.105553587","437","152048.648685","144365.607215","145132.243842","145898.877255","146665.479693","147432.147002","148198.767558","148965.375548","152815.21372","153581.84158","154348.500123","155115.077723","155881.712012","142082.42221","142849.015297","143615.938294","155120.183288"
"Blocked","Male","cave","7","M_jaw.wav","None","733.345547884","437","152048.648685","144365.607215","145132.243842","145898.877255","146665.479693","147432.147002","148198.767558","148965.375548","152815.21372","153581.84158","154348.500123","155115.077723","155881.712012","156648.305684","142849.015297","143615.938294","155886.814071"
"Blocked","Male","cave","7","M_romp.wav","None","731.892367017","437","152048.648685","144365.607215","145132.243842","145898.877255","146665.479693","147432.147002","148198.767558","148965.375548","152815.21372","153581.84158","154348.500123","155115.077723","155881.712012","156648.305684","157415.037281","143615.938294","156653.394885"
"Blocked","Male","cave","7","M_cave.wav","None","730.068658631","437","152048.648685","144365.607215","145132.243842","145898.877255","146665.479693","147432.147002","148198.767558","148965.375548","152815.21372","153581.84158","154348.500123","155115.077723","155881.712012","156648.305684","157415.037281","158181.920244","157420.119177"
"Blocked","Male","cave","7","M_jaw.wav","space","553.857401843","437","152048.648685","158931.590042","145132.243842","145898.877255","146665.479693","147432.147002","148198.767558","148965.375548","152815.21372","153581.84158","154348.500123","155115.077723","155881.712012","156648.305684","157415.037281","158181.920244","158187.736767"
"Blocked","Male","cave","7","M_park.wav","None","742.912346279","437","152048.648685","158931.590042","159698.221994","145898.877255","146665.479693","147432.147002","148198.767558","148965.375548","152815.21372","153581.84158","154348.500123","155115.077723","155881.712012","156648.305684","157415.037281","158181.920244","158936.73681"
"Blocked","Male","cave","7","M_cave.wav","None","741.286466862","437","152048.648685","158931.590042","159698.221994","160464.804854","146665.479693","147432.147002","148198.767558","148965.375548","152815.21372","153581.84158","154348.500123","155115.077723","155881.712012","156648.305684","157415.037281","158181.920244","159703.23259"
"Blocked","Male","cave","7","M_bluff.wav","space","543.35113502","437","152048.648685","158931.590042","159698.221994","160464.804854","161231.478592","147432.147002","148198.767558","148965.375548","152815.21372","153581.84158","154348.500123","155115.077723","155881.712012","156648.305684","157415.037281","158181.920244","160470.010064"
"Blocked","Male","cave","7","M_jaw.wav","None","737.042056626","437","152048.648685","158931.590042","159698.221994","160464.804854","161231.478592","161998.095056","148198.767558","148965.375548","152815.21372","153581.84158","154348.500123","155115.077723","155881.712012","156648.305684","157415.037281","158181.920244","161236.560488"
"Blocked","Male","cave","7","M_priest.wav","None","735.627155809","437","152048.648685","158931.590042","159698.221994","160464.804854","161231.478592","161998.095056","162764.760612","148965.375548","152815.21372","153581.84158","154348.500123","155115.077723","155881.712012","156648.305684","157415.037281","158181.920244","162003.122016"
"Blocked","Male","cave","7","M_dime.wav","None","733.846110688","437","152048.648685","158931.590042","159698.221994","160464.804854","161231.478592","161998.095056","162764.760612","163531.353407","152815.21372","153581.84158","154348.500123","155115.077723","155881.712012","156648.305684","157415.037281","158181.920244","162769.755136"
"Blocked","Male","cave","12","M_reek.wav","None","732.093118124","437","166631.255282","158931.590042","159698.221994","160464.804854","161231.478592","161998.095056","162764.760612","163531.353407","152815.21372","153581.84158","154348.500123","155115.077723","155881.712012","156648.305684","157415.037281","158181.920244","163536.56154"
"Blocked","Male","cave","12","M_romp.wav","None","742.436621676","437","166631.255282","158931.590042","159698.221994","160464.804854","161231.478592","161998.095056","162764.760612","163531.353407","167397.867071","153581.84158","154348.500123","155115.077723","155881.712012","156648.305684","157415.037281","158181.920244","166636.415783"
"Blocked","Male","cave","12","M_priest.wav","None","740.706421813","437","166631.255282","158931.590042","159698.221994","160464.804854","161231.478592","161998.095056","162764.760612","163531.353407","167397.867071","168164.487626","154348.500123","155115.077723","155881.712012","156648.305684","157415.037281","158181.920244","167403.031079"
"Blocked","Male","cave","12","M_cling.wav","None","739.144829506","437","166631.255282","158931.590042","159698.221994","160464.804854","161231.478592","161998.095056","162764.760612","163531.353407","167397.867071","168164.487626","168931.120746","155115.077723","155881.712012","156648.305684","157415.037281","158181.920244","168169.76589"
"Blocked","Male","cave","12","M_gnash.wav","None","737.729344259","437","166631.255282","158931.590042","159698.221994","160464.804854","161231.478592","161998.095056","162764.760612","163531.353407","167397.867071","168164.487626","168931.120746","169697.684028","155881.712012","156648.305684","157415.037281","158181.920244","168936.155304"
"Blocked","Male","cave","12","M_gnash.wav","None","736.154602313","437","166631.255282","158931.590042","159698.221994","160464.804854","161231.478592","161998.095056","162764.760612","163531.353407","167397.867071","168164.487626","168931.120746","169697.684028","170464.342279","156648.305684","157415.037281","158181.920244","169702.837808"
"Blocked","Male","cave","12","M_knife.wav","None","734.615510493","437","166631.255282","158931.590042","159698.221994","160464.804854","161231.478592","161998.095056","162764.760612","163531.353407","167397.867071","168164.487626","168931.120746","169697.684028","170464.342279","171230.98475","157415.037281","158181.920244","170469.318101"
"Blocked","Male","cave","12","M_cave.wav","None","732.853459289","437","166631.255282","158931.590042","159698.221994","160464.804854","161231.478592","161998.095056","162764.760612","163531.353407","167397.867071","168164.487626","168931.120746","169697.684028","170464.342279","171230.98475","171997.653521","158181.920244","171236.372594"
"Blocked","Male","cave","12","M_jolt.wav","None","731.542294488","437","166631.255282","158931.590042","159698.221994","160464.804854","161231.478592","161998.095056","162764.760612","163531.353407","167397.867071","168164.487626","168931.120746","169697.684028","170464.342279","171230.98475","171997.653521","172764.258881","172002.728403"
"Blocked","Male","cave","12","M_cave.wav","space","0.0213316307054","437","166631.255282","173531.203794","159698.221994","160464.804854","161231.478592","161998.095056","162764.760612","163531.353407","167397.867071","168164.487626","168931.120746","169697.684028","170464.342279","171230.98475","171997.653521","172764.258881","172769.402142"
"Blocked","Male","cave","12","M_knife.wav","space","723.601959937","437","166631.255282","173531.203794","174280.884111","160464.804854","161231.478592","161998.095056","162764.760612","163531.353407","167397.867071","168164.487626","168931.120746","169697.684028","170464.342279","171230.98475","171997.653521","172764.258881","173536.792681"
"Blocked","Male","cave","12","M_cling.wav","None","742.129212413","437","166631.255282","173531.203794","174280.884111","175047.492686","161231.478592","161998.095056","162764.760612","163531.353407","167397.867071","168164.487626","168931.120746","169697.684028","170464.342279","171230.98475","171997.653521","172764.258881","174286.053964"
"Blocked","Male","cave","12","M_cave.wav","None","740.534015476","437","166631.255282","173531.203794","174280.884111","175047.492686","175814.135449","161998.095056","162764.760612","163531.353407","167397.867071","168164.487626","168931.120746","169697.684028","170464.342279","171230.98475","171997.653521","172764.258881","175052.62718"
"Blocked","Male","cave","12","M_reek.wav","space","544.918863827","437","166631.255282","173531.203794","174280.884111","175047.492686","175814.135449","176580.734381","162764.760612","163531.353407","167397.867071","168164.487626","168931.120746","169697.684028","170464.342279","171230.98475","171997.653521","172764.258881","175819.30764"
"Blocked","Male","cave","12","M_cave.wav","None","736.72821865","437","166631.255282","173531.203794","174280.884111","175047.492686","175814.135449","176580.734381","177347.387664","163531.353407","167397.867071","168164.487626","168931.120746","169697.684028","170464.342279","171230.98475","171997.653521","172764.258881","176586.097095"
"Blocked","Male","cave","12","M_depth.wav","space","483.615261524","437","166631.255282","173531.203794","174280.884111","175047.492686","175814.135449","176580.734381","177347.387664","178113.94627","167397.867071","168164.487626","168931.120746","169697.684028","170464.342279","171230.98475","171997.653521","172764.258881","177352.432449"
"Blocked","Male","done","19","M_lash.wav","None","733.656463719","437","181247.459198","173531.203794","174280.884111","175047.492686","175814.135449","176580.734381","177347.387664","178113.94627","167397.867071","168164.487626","168931.120746","169697.684028","170464.342279","171230.98475","171997.653521","172764.258881","178119.060602"
"Blocked","Male","done","19","M_jolt.wav","None","725.117090202","437","181247.459198","173531.203794","174280.884111","175047.492686","175814.135449","176580.734381","177347.387664","178113.94627","181997.162893","168164.487626","168931.120746","169697.684028","170464.342279","171230.98475","171997.653521","172764.258881","181253.393483"
"Blocked","Male","done","19","M_done.wav","None","741.410365652","437","181247.459198","173531.203794","174280.884111","175047.492686","175814.135449","176580.734381","177347.387664","178113.94627","181997.162893","182763.79163","168931.120746","169697.684028","170464.342279","171230.98475","171997.653521","172764.258881","182002.221996"
"Blocked","Male","done","19","M_gnash.wav","space","530.471797243","437","181247.459198","173531.203794","174280.884111","175047.492686","175814.135449","176580.734381","177347.387664","178113.94627","181997.162893","182763.79163","183530.406049","169697.684028","170464.342279","171230.98475","171997.653521","172764.258881","182769.154928"
"Blocked","Male","done","19","M_done.wav","None","737.700122849","437","181247.459198","173531.203794","174280.884111","175047.492686","175814.135449","176580.734381","177347.387664","178113.94627","181997.162893","182763.79163","183530.406049","184297.076865","170464.342279","171230.98475","171997.653521","172764.258881","183535.485023"
"Blocked","Male","done","19","M_greet.wav","space","549.503995735","437","181247.459198","173531.203794","174280.884111","175047.492686","175814.135449","176580.734381","177347.387664","178113.94627","181997.162893","182763.79163","183530.406049","184297.076865","185063.657972","171230.98475","171997.653521","172764.258881","184302.027265"
"Blocked","Male","done","19","M_cling.wav","None","733.922963002","437","181247.459198","173531.203794","174280.884111","175047.492686","175814.135449","176580.734381","177347.387664","178113.94627","181997.162893","182763.79163","183530.406049","184297.076865","185063.657972","185830.281741","171997.653521","172764.258881","185068.839512"
"Blocked","Male","done","19","M_park.wav","None","732.406663883","437","181247.459198","173531.203794","174280.884111","175047.492686","175814.135449","176580.734381","177347.387664","178113.94627","181997.162893","182763.79163","183530.406049","184297.076865","185063.657972","185830.281741","186596.921583","172764.258881","185835.692086"
"Blocked","Male","done","19","M_priest.wav","None","731.328978174","437","181247.459198","173531.203794","174280.884111","175047.492686","175814.135449","176580.734381","177347.387664","178113.94627","181997.162893","182763.79163","183530.406049","184297.076865","185063.657972","185830.281741","186596.921583","187363.561132","186601.933347"
"Blocked","Male","done","19","M_dime.wav","None","729.589427461","437","181247.459198","188130.489096","174280.884111","175047.492686","175814.135449","176580.734381","177347.387664","178113.94627","181997.162893","182763.79163","183530.406049","184297.076865","185063.657972","185830.281741","186596.921583","187363.561132","187368.646826"
"Blocked","Male","done","19","M_done.wav","None","727.191810525","437","181247.459198","188130.489096","188880.141069","175047.492686","175814.135449","176580.734381","177347.387664","178113.94627","181997.162893","182763.79163","183530.406049","184297.076865","185063.657972","185830.281741","186596.921583","187363.561132","188136.235195"
"Blocked","Male","done","19","M_dime.wav","space","493.777592321","437","181247.459198","188130.489096","188880.141069","189646.80195","175814.135449","176580.734381","177347.387664","178113.94627","181997.162893","182763.79163","183530.406049","184297.076865","185063.657972","185830.281741","186596.921583","187363.561132","188885.353585"
"Blocked","Male","done","19","M_park.wav","None","740.873860512","437","181247.459198","188130.489096","188880.141069","189646.80195","190413.403511","176580.734381","177347.387664","178113.94627","181997.162893","182763.79163","183530.406049","184297.076865","185063.657972","185830.281741","186596.921583","187363.561132","189651.982322"
"Blocked","Male","done","19","M_cad.wav","None","739.491687676","437","181247.459198","188130.489096","188880.141069","189646.80195","190413.403511","191180.062639","177347.387664","178113.94627","181997.162893","182763.79163","183530.406049","184297.076865","185063.657972","185830.281741","186596.921583","187363.561132","190418.369691"
"Blocked","Male","done","19","M_done.wav","None","738.712937022","437","181247.459198","188130.489096","188880.141069","189646.80195","190413.403511","191180.062639","191946.659233","178113.94627","181997.162893","182763.79163","183530.406049","184297.076865","185063.657972","185830.281741","186596.921583","187363.561132","191185.099242"
"Blocked","Male","done","19","M_depth.wav","space","571.071151804","437","181247.459198","188130.489096","188880.141069","189646.80195","190413.403511","191180.062639","191946.659233","192713.307841","181997.162893","182763.79163","183530.406049","184297.076865","185063.657972","185830.281741","186596.921583","187363.561132","191951.810091"
"Blocked","Male","tile","14","M_bluff.wav","None","736.610164146","437","195829.810108","188130.489096","188880.141069","189646.80195","190413.403511","191180.062639","191946.659233","192713.307841","181997.162893","182763.79163","183530.406049","184297.076865","185063.657972","185830.281741","186596.921583","187363.561132","192718.3611"
"Blocked","Male","tile","14","M_gnash.wav","None","742.502662069","437","195829.810108","188130.489096","188880.141069","189646.80195","190413.403511","191180.062639","191946.659233","192713.307841","196596.468066","182763.79163","183530.406049","184297.076865","185063.657972","185830.281741","186596.921583","187363.561132","195835.041033"
"Blocked","Male","tile","14","M_cling.wav","None","740.903081922","437","195829.810108","188130.489096","188880.141069","189646.80195","190413.403511","191180.062639","191946.659233","192713.307841","196596.468066","197363.076933","183530.406049","184297.076865","185063.657972","185830.281741","186596.921583","187363.561132","196601.793669"
"Blocked","Male","tile","14","M_tile.wav","None","740.177514243","437","195829.810108","188130.489096","188880.141069","189646.80195","190413.403511","191180.062639","191946.659233","192713.307841","196596.468066","197363.076933","198129.735476","184297.076865","185063.657972","185830.281741","186596.921583","187363.561132","197368.018858"
"Blocked","Male","tile","14","M_priest.wav","space","427.628787533","437","195829.810108","188130.489096","188880.141069","189646.80195","190413.403511","191180.062639","191946.659233","192713.307841","196596.468066","197363.076933","198129.735476","198896.300511","185063.657972","185830.281741","186596.921583","187363.561132","198134.805683"
"Blocked","Male","tile","14","M_tile.wav","None","736.615716211","437","195829.810108","188130.489096","188880.141069","189646.80195","190413.403511","191180.062639","191946.659233","192713.307841","196596.468066","197363.076933","198129.735476","198896.300511","199662.958177","185830.281741","186596.921583","187363.561132","198901.497831"
"Blocked","Male","tile","14","M_greet.wav","space","533.950022033","437","195829.810108","188130.489096","188880.141069","189646.80195","190413.403511","191180.062639","191946.659233","192713.307841","196596.468066","197363.076933","198129.735476","198896.300511","199662.958177","200429.605324","186596.921583","187363.561132","199668.343684"
"Blocked","Male","tile","14","M_lash.wav","None","733.418309203","437","195829.810108","188130.489096","188880.141069","189646.80195","190413.403511","191180.062639","191946.659233","192713.307841","196596.468066","197363.076933","198129.735476","198896.300511","199662.958177","200429.605324","201196.22208","187363.561132","200434.680207"
"Blocked","Male","tile","14","M_tile.wav","None","731.989966534","437","195829.810108","188130.489096","188880.141069","189646.80195","190413.403511","191180.062639","191946.659233","192713.307841","196596.468066","197363.076933","198129.735476","198896.300511","199662.958177","200429.605324","201196.22208","201962.878578","201201.348101"
"Blocked","Male","tile","14","M_greet.wav","space","522.030315464","437","195829.810108","202729.833718","188880.141069","189646.80195","190413.403511","191180.062639","191946.659233","192713.307841","196596.468066","197363.076933","198129.735476","198896.300511","199662.958177","200429.605324","201196.22208","201962.878578","201968.042586"
"Blocked","Male","tile","14","M_lash.wav","None","727.457140954","437","195829.810108","202729.833718","203479.531277","189646.80195","190413.403511","191180.062639","191946.659233","192713.307841","196596.468066","197363.076933","198129.735476","198896.300511","199662.958177","200429.605324","201196.22208","201962.878578","202735.571635"
"Blocked","Male","tile","14","M_jolt.wav","None","743.61336798","437","195829.810108","202729.833718","203479.531277","204246.100987","190413.403511","191180.062639","191946.659233","192713.307841","196596.468066","197363.076933","198129.735476","198896.300511","199662.958177","200429.605324","201196.22208","201962.878578","203484.529015"
"Blocked","Male","tile","14","M_park.wav","None","742.234701713","437","195829.810108","202729.833718","203479.531277","204246.100987","205012.706347","191180.062639","191946.659233","192713.307841","196596.468066","197363.076933","198129.735476","198896.300511","199662.958177","200429.605324","201196.22208","201962.878578","204251.22613"
"Blocked","Male","tile","14","M_romp.wav","None","741.23094618","437","195829.810108","202729.833718","203479.531277","204246.100987","205012.706347","205779.381254","191946.659233","192713.307841","196596.468066","197363.076933","198129.735476","198896.300511","199662.958177","200429.605324","201196.22208","201962.878578","205017.739735"
"Blocked","Male","tile","14","M_tile.wav","None","739.982899628","437","195829.810108","202729.833718","203479.531277","204246.100987","205012.706347","205779.381254","206545.981939","192713.307841","196596.468066","197363.076933","198129.735476","198896.300511","199662.958177","200429.605324","201196.22208","201962.878578","205784.440065"
"Blocked","Male","tile","14","M_jaw.wav","space","554.704822822","437","195829.810108","202729.833718","203479.531277","204246.100987","205012.706347","205779.381254","206545.981939","207312.585838","196596.468066","197363.076933","198129.735476","198896.300511","199662.958177","200429.605324","201196.22208","201962.878578","206551.036367"
"Blocked","Male","ball","6","M_jolt.wav","None","737.344498248","437","210429.095995","202729.833718","203479.531277","204246.100987","205012.706347","205779.381254","206545.981939","207312.585838","196596.468066","197363.076933","198129.735476","198896.300511","199662.958177","200429.605324","201196.22208","201962.878578","207317.710689"
"Blocked","Male","ball","6","M_jolt.wav","None","743.085921476","437","210429.095995","202729.833718","203479.531277","204246.100987","205012.706347","205779.381254","206545.981939","207312.585838","211195.727946","197363.076933","198129.735476","198896.300511","199662.958177","200429.605324","201196.22208","201962.878578","210434.133474"
"Blocked","Male","ball","6","M_ball.wav","None","741.70111871","437","210429.095995","202729.833718","203479.531277","204246.100987","205012.706347","205779.381254","206545.981939","207312.585838","211195.727946","211962.376846","198129.735476","198896.300511","199662.958177","200429.605324","201196.22208","201962.878578","211200.851629"
"Blocked","Male","ball","6","M_knife.wav","space","489.768998887","437","210429.095995","202729.833718","203479.531277","204246.100987","205012.706347","205779.381254","206545.981939","207312.585838","211195.727946","211962.376846","212729.010259","198896.300511","199662.958177","200429.605324","201196.22208","201962.878578","211967.574167"
"Blocked","Male","ball","6","M_dime.wav","None","738.463093941","437","210429.095995","202729.833718","203479.531277","204246.100987","205012.706347","205779.381254","206545.981939","207312.585838","211195.727946","211962.376846","212729.010259","213495.637535","199662.958177","200429.605324","201196.22208","201962.878578","212734.178066"
"Blocked","Male","ball","6","M_ball.wav","None","737.394466865","437","210429.095995","202729.833718","203479.531277","204246.100987","205012.706347","205779.381254","206545.981939","207312.585838","211195.727946","211962.376846","212729.010259","213495.637535","214262.306598","200429.605324","201196.22208","201962.878578","213500.562804"
"Blocked","Male","ball","6","M_bluff.wav","space","493.519567241","437","210429.095995","202729.833718","203479.531277","204246.100987","205012.706347","205779.381254","206545.981939","207312.585838","211195.727946","211962.376846","212729.010259","213495.637535","214262.306598","215028.917803","201196.22208","201962.878578","214267.597427"
"Blocked","Male","ball","6","M_gnash.wav","None","733.518830864","437","210429.095995","202729.833718","203479.531277","204246.100987","205012.706347","205779.381254","206545.981939","207312.585838","211195.727946","211962.376846","212729.010259","213495.637535","214262.306598","215028.917803","215795.527254","201962.878578","215034.036225"
"Blocked","Male","ball","6","M_jolt.wav","None","732.268154385","437","210429.095995","202729.833718","203479.531277","204246.100987","205012.706347","205779.381254","206545.981939","207312.585838","211195.727946","211962.376846","212729.010259","213495.637535","214262.306598","215028.917803","215795.527254","216562.173816","215800.60915"
"Blocked","Male","ball","6","M_ball.wav","None","731.343296666","437","210429.095995","217328.818333","203479.531277","204246.100987","205012.706347","205779.381254","206545.981939","207312.585838","211195.727946","211962.376846","212729.010259","213495.637535","214262.306598","215028.917803","215795.527254","216562.173816","216567.161035"
"Blocked","Male","ball","6","M_knife.wav","space","555.032979286","437","210429.095995","217328.818333","218095.830455","204246.100987","205012.706347","205779.381254","206545.981939","207312.585838","211195.727946","211962.376846","212729.010259","213495.637535","214262.306598","215028.917803","215795.527254","216562.173816","217333.86078"
"Blocked","Male","ball","6","M_reek.wav","None","726.905732889","437","210429.095995","217328.818333","218095.830455","218845.395933","205012.706347","205779.381254","206545.981939","207312.585838","211195.727946","211962.376846","212729.010259","213495.637535","214262.306598","215028.917803","215795.527254","216562.173816","218101.270898"
"Blocked","Male","ball","6","M_reek.wav","None","743.376966748","437","210429.095995","217328.818333","218095.830455","218845.395933","219612.022917","205779.381254","206545.981939","207312.585838","211195.727946","211962.376846","212729.010259","213495.637535","214262.306598","215028.917803","215795.527254","216562.173816","218850.326169"
"Blocked","Male","ball","6","M_ball.wav","None","742.022262042","437","210429.095995","217328.818333","218095.830455","218845.395933","219612.022917","220378.613958","206545.981939","207312.585838","211195.727946","211962.376846","212729.010259","213495.637535","214262.306598","215028.917803","215795.527254","216562.173816","219617.089325"
"Blocked","Male","ball","6","M_reek.wav","space","552.732085227","437","210429.095995","217328.818333","218095.830455","218845.395933","219612.022917","220378.613958","221145.298801","207312.585838","211195.727946","211962.376846","212729.010259","213495.637535","214262.306598","215028.917803","215795.527254","216562.173816","220383.923489"
"Blocked","Male","ball","6","M_bluff.wav","None","738.837712452","437","210429.095995","217328.818333","218095.830455","218845.395933","219612.022917","220378.613958","221145.298801","221911.903284","211195.727946","211962.376846","212729.010259","213495.637535","214262.306598","215028.917803","215795.527254","216562.173816","221150.184036"
"Blocked","Male","ball","5","M_cad.wav","None","737.92395887","437","225011.741748","217328.818333","218095.830455","218845.395933","219612.022917","220378.613958","221145.298801","221911.903284","211195.727946","211962.376846","212729.010259","213495.637535","214262.306598","215028.917803","215795.527254","216562.173816","221916.95742"
"Blocked","Male","ball","5","M_ball.wav","space","695.200792019","437","225011.741748","217328.818333","218095.830455","218845.395933","219612.022917","220378.613958","221145.298801","221911.903284","225778.412856","211962.376846","212729.010259","213495.637535","214262.306598","215028.917803","215795.527254","216562.173816","225017.049526"
"Blocked","Male","ball","5","M_lash.wav","None","740.128130052","437","225011.741748","217328.818333","218095.830455","218845.395933","219612.022917","220378.613958","221145.298801","221911.903284","225778.412856","226545.015294","212729.010259","213495.637535","214262.306598","215028.917803","215795.527254","216562.173816","225783.528065"
"Blocked","Male","ball","5","M_ball.wav","None","739.053658697","437","225011.741748","217328.818333","218095.830455","218845.395933","219612.022917","220378.613958","221145.298801","221911.903284","225778.412856","226545.015294","227311.696046","213495.637535","214262.306598","215028.917803","215795.527254","216562.173816","226550.059787"
"Blocked","Male","ball","5","M_jolt.wav","space","547.302454484","437","225011.741748","217328.818333","218095.830455","218845.395933","219612.022917","220378.613958","221145.298801","221911.903284","225778.412856","226545.015294","227311.696046","228078.307543","214262.306598","215028.917803","215795.527254","216562.173816","227316.793429"
"Blocked","Male","ball","5","M_jaw.wav","None","735.611084034","437","225011.741748","217328.818333","218095.830455","218845.395933","219612.022917","220378.613958","221145.298801","221911.903284","225778.412856","226545.015294","227311.696046","228078.307543","228844.926052","215028.917803","215795.527254","216562.173816","228083.472427"
"Blocked","Male","ball","5","M_gnash.wav","None","734.386414613","437","225011.741748","217328.818333","218095.830455","218845.395933","219612.022917","220378.613958","221145.298801","221911.903284","225778.412856","226545.015294","227311.696046","228078.307543","228844.926052","229611.530244","215795.527254","216562.173816","228850.031325"
"Blocked","Male","ball","5","M_cad.wav","None","733.553604343","437","225011.741748","217328.818333","218095.830455","218845.395933","219612.022917","220378.613958","221145.298801","221911.903284","225778.412856","226545.015294","227311.696046","228078.307543","228844.926052","229611.530244","230378.208365","216562.173816","229616.460188"
"Blocked","Male","ball","5","M_bluff.wav","None","732.19539307","437","225011.741748","217328.818333","218095.830455","218845.395933","219612.022917","220378.613958","221145.298801","221911.903284","225778.412856","226545.015294","227311.696046","228078.307543","228844.926052","229611.530244","230378.208365","231144.787718","230383.237662"
"Blocked","Male","ball","5","M_park.wav","None","730.964879367","437","225011.741748","231911.467008","218095.830455","218845.395933","219612.022917","220378.613958","221145.298801","221911.903284","225778.412856","226545.015294","227311.696046","228078.307543","228844.926052","229611.530244","230378.208365","231144.787718","231149.861432"
"Blocked","Male","ball","5","M_ball.wav","None","729.615434517","437","225011.741748","231911.467008","232678.472118","218845.395933","219612.022917","220378.613958","221145.298801","221911.903284","225778.412856","226545.015294","227311.696046","228078.307543","228844.926052","229611.530244","230378.208365","231144.787718","231916.712837"
"Blocked","Male","ball","5","M_cad.wav","space","427.562162713","437","225011.741748","231911.467008","232678.472118","233428.059803","219612.022917","220378.613958","221145.298801","221911.903284","225778.412856","226545.015294","227311.696046","228078.307543","228844.926052","229611.530244","230378.208365","231144.787718","232684.098116"
"Blocked","Male","ball","5","M_priest.wav","None","743.346576477","437","225011.741748","231911.467008","232678.472118","233428.059803","234194.61461","220378.613958","221145.298801","221911.903284","225778.412856","226545.015294","227311.696046","228078.307543","228844.926052","229611.530244","230378.208365","231144.787718","233432.97017"
"Blocked","Male","ball","5","M_gnash.wav","None","742.024015326","437","225011.741748","231911.467008","232678.472118","233428.059803","234194.61461","234961.297407","221145.298801","221911.903284","225778.412856","226545.015294","227311.696046","228078.307543","228844.926052","229611.530244","230378.208365","231144.787718","234199.948395"
"Blocked","Male","ball","5","M_ball.wav","None","741.084546898","437","225011.741748","231911.467008","232678.472118","233428.059803","234194.61461","234961.297407","235727.923222","221911.903284","225778.412856","226545.015294","227311.696046","228078.307543","228844.926052","229611.530244","230378.208365","231144.787718","234966.321445"
"Blocked","Male","ball","5","M_gnash.wav","space","441.616201286","437","225011.741748","231911.467008","232678.472118","233428.059803","234194.61461","234961.297407","235727.923222","236494.523031","225778.412856","226545.015294","227311.696046","228078.307543","228844.926052","229611.530244","230378.208365","231144.787718","235733.813675"
"Blocked","Male","tile","13","M_lash.wav","None","738.117696837","437","239594.455588","231911.467008","232678.472118","233428.059803","234194.61461","234961.297407","235727.923222","236494.523031","225778.412856","226545.015294","227311.696046","228078.307543","228844.926052","229611.530244","230378.208365","231144.787718","236499.747819"
"Blocked","Male","tile","13","M_reek.wav","None","742.550000759","437","239594.455588","231911.467008","232678.472118","233428.059803","234194.61461","234961.297407","235727.923222","236494.523031","240361.026466","226545.015294","227311.696046","228078.307543","228844.926052","229611.530244","230378.208365","231144.787718","239599.559107"
"Blocked","Male","tile","13","M_depth.wav","None","741.366533533","437","239594.455588","231911.467008","232678.472118","233428.059803","234194.61461","234961.297407","235727.923222","236494.523031","240361.026466","241127.695529","227311.696046","228078.307543","228844.926052","229611.530244","230378.208365","231144.787718","240366.402038"
"Blocked","Male","tile","13","M_knife.wav","None","740.637751493","437","239594.455588","231911.467008","232678.472118","233428.059803","234194.61461","234961.297407","235727.923222","236494.523031","240361.026466","241127.695529","241894.311409","228078.307543","228844.926052","229611.530244","230378.208365","231144.787718","241132.766905"
"Blocked","Male","tile","13","M_tile.wav","None","739.587826127","437","239594.455588","231911.467008","232678.472118","233428.059803","234194.61461","234961.297407","235727.923222","236494.523031","240361.026466","241127.695529","241894.311409","242660.896899","228844.926052","229611.530244","230378.208365","231144.787718","241899.371973"
"Blocked","Male","tile","13","M_jaw.wav","space","524.586312455","437","239594.455588","231911.467008","232678.472118","233428.059803","234194.61461","234961.297407","235727.923222","236494.523031","240361.026466","241127.695529","241894.311409","242660.896899","243427.546383","229611.530244","230378.208365","231144.787718","242666.268087"
"Blocked","Male","tile","13","M_tile.wav","None","737.057543975","437","239594.455588","231911.467008","232678.472118","233428.059803","234194.61461","234961.297407","235727.923222","236494.523031","240361.026466","241127.695529","241894.311409","242660.896899","243427.546383","244194.215446","230378.208365","231144.787718","243432.427528"
"Blocked","Male","tile","13","M_park.wav","None","735.806867498","437","239594.455588","231911.467008","232678.472118","233428.059803","234194.61461","234961.297407","235727.923222","236494.523031","240361.026466","241127.695529","241894.311409","242660.896899","243427.546383","244194.215446","244960.825482","231144.787718","244199.191268"
"Blocked","Male","tile","13","M_greet.wav","space","32.6762606419","437","239594.455588","231911.467008","232678.472118","233428.059803","234194.61461","234961.297407","235727.923222","236494.523031","240361.026466","241127.695529","241894.311409","242660.896899","243427.546383","244194.215446","244960.825482","245727.401328","244966.054069"
"Blocked","Male","tile","13","M_cling.wav","None","732.696540301","437","239594.455588","246494.114515","232678.472118","233428.059803","234194.61461","234961.297407","235727.923222","236494.523031","240361.026466","241127.695529","241894.311409","242660.896899","243427.546383","244194.215446","244960.825482","245727.401328","245732.529978"
"Blocked","Male","tile","13","M_tile.wav","None","731.108940934","437","239594.455588","246494.114515","247260.702343","233428.059803","234194.61461","234961.297407","235727.923222","236494.523031","240361.026466","241127.695529","241894.311409","242660.896899","243427.546383","244194.215446","244960.825482","245727.401328","246499.429306"
"Blocked","Male","tile","13","M_cad.wav","space","468.799420716","437","239594.455588","246494.114515","247260.702343","248027.856773","234194.61461","234961.297407","235727.923222","236494.523031","240361.026466","241127.695529","241894.311409","242660.896899","243427.546383","244194.215446","244960.825482","245727.401328","247265.7106"
"Blocked","Male","tile","13","M_tile.wav","None","727.685944617","437","239594.455588","246494.114515","247260.702343","248027.856773","248794.260213","234961.297407","235727.923222","236494.523031","240361.026466","241127.695529","241894.311409","242660.896899","243427.546383","244194.215446","244960.825482","245727.401328","248033.21598"
"Blocked","Male","tile","13","M_gnash.wav","space","510.397855382","437","239594.455588","246494.114515","247260.702343","248027.856773","248794.260213","249543.925336","235727.923222","236494.523031","240361.026466","241127.695529","241894.311409","242660.896899","243427.546383","244194.215446","244960.825482","245727.401328","248799.971831"
"Blocked","Male","tile","13","M_reek.wav","None","742.333177877","437","239594.455588","246494.114515","247260.702343","248027.856773","248794.260213","249543.925336","250310.609009","236494.523031","240361.026466","241127.695529","241894.311409","242660.896899","243427.546383","244194.215446","244960.825482","245727.401328","249548.794208"
"Blocked","Male","tile","13","M_bluff.wav","None","740.618173146","437","239594.455588","246494.114515","247260.702343","248027.856773","248794.260213","249543.925336","250310.609009","251077.211447","240361.026466","241127.695529","241894.311409","242660.896899","243427.546383","244194.215446","244960.825482","245727.401328","250315.961203"
"Blocked","Male","cave","9","M_knife.wav","None","739.808447794","437","254193.692967","246494.114515","247260.702343","248027.856773","248794.260213","249543.925336","250310.609009","251077.211447","240361.026466","241127.695529","241894.311409","242660.896899","243427.546383","244194.215446","244960.825482","245727.401328","251082.317013"
"Blocked","Male","cave","9","M_park.wav","None","742.995042878","437","254193.692967","246494.114515","247260.702343","248027.856773","248794.260213","249543.925336","250310.609009","251077.211447","254960.319951","241127.695529","241894.311409","242660.896899","243427.546383","244194.215446","244960.825482","245727.401328","254198.828046"
"Blocked","Male","cave","9","M_depth.wav","None","741.753717255","437","254193.692967","246494.114515","247260.702343","248027.856773","248794.260213","249543.925336","250310.609009","251077.211447","254960.319951","255726.965929","241894.311409","242660.896899","243427.546383","244194.215446","244960.825482","245727.401328","254965.739354"
"Blocked","Male","cave","9","M_cave.wav","None","741.016168791","437","254193.692967","246494.114515","247260.702343","248027.856773","248794.260213","249543.925336","250310.609009","251077.211447","254960.319951","255726.965929","256493.575088","242660.896899","243427.546383","244194.215446","244960.825482","245727.401328","255732.127307"
"Blocked","Male","cave","9","M_dime.wav","space","395.046035414","437","254193.692967","246494.114515","247260.702343","248027.856773","248794.260213","249543.925336","250310.609009","251077.211447","254960.319951","255726.965929","256493.575088","257260.248534","243427.546383","244194.215446","244960.825482","245727.401328","256498.694387"
"Blocked","Male","cave","9","M_bluff.wav","None","737.979187343","437","254193.692967","246494.114515","247260.702343","248027.856773","248794.260213","249543.925336","250310.609009","251077.211447","254960.319951","255726.965929","256493.575088","257260.248534","258026.786977","244194.215446","244960.825482","245727.401328","257265.247733"
"Blocked","Male","cave","9","M_park.wav","None","736.80682425","437","254193.692967","246494.114515","247260.702343","248027.856773","248794.260213","249543.925336","250310.609009","251077.211447","254960.319951","255726.965929","256493.575088","257260.248534","258026.786977","258793.470358","244960.825482","245727.401328","258031.954784"
"Blocked","Male","cave","9","M_jolt.wav","None","735.691442918","437","254193.692967","246494.114515","247260.702343","248027.856773","248794.260213","249543.925336","250310.609009","251077.211447","254960.319951","255726.965929","256493.575088","257260.248534","258026.786977","258793.470358","259560.126272","245727.401328","258798.646347"
"Blocked","Male","cave","9","M_cave.wav","None","734.659634825","437","254193.692967","246494.114515","247260.702343","248027.856773","248794.260213","249543.925336","250310.609009","251077.211447","254960.319951","255726.965929","256493.575088","257260.248534","258026.786977","258793.470358","259560.126272","260326.782185","259565.244986"
"Blocked","Male","cave","9","M_cling.wav","space","417.442787395","437","254193.692967","261093.431377","247260.702343","248027.856773","248794.260213","249543.925336","250310.609009","251077.211447","254960.319951","255726.965929","256493.575088","257260.248534","258026.786977","258793.470358","259560.126272","260326.782185","260332.018662"
"Blocked","Male","cave","9","M_cave.wav","None","731.000821706","437","254193.692967","261093.431377","261860.004301","248027.856773","248794.260213","249543.925336","250310.609009","251077.211447","254960.319951","255726.965929","256493.575088","257260.248534","258026.786977","258793.470358","259560.126272","260326.782185","261098.471194"
"Blocked","Male","cave","9","M_cad.wav","space","668.25046725","437","254193.692967","261093.431377","261860.004301","262627.024021","248794.260213","249543.925336","250310.609009","251077.211447","254960.319951","255726.965929","256493.575088","257260.248534","258026.786977","258793.470358","259560.126272","260326.782185","261865.028923"
"Blocked","Male","cave","9","M_cave.wav","None","726.692708788","437","254193.692967","261093.431377","261860.004301","262627.024021","263376.6082","249543.925336","250310.609009","251077.211447","254960.319951","255726.965929","256493.575088","257260.248534","258026.786977","258793.470358","259560.126272","260326.782185","262632.678365"
"Blocked","Male","cave","9","M_dime.wav","space","639.506532156","437","254193.692967","261093.431377","261860.004301","262627.024021","263376.6082","264143.241029","250310.609009","251077.211447","254960.319951","255726.965929","256493.575088","257260.248534","258026.786977","258793.470358","259560.126272","260326.782185","263381.705584"
"Blocked","Male","cave","9","M_cling.wav","None","740.990453949","437","254193.692967","261093.431377","261860.004301","262627.024021","263376.6082","264143.241029","264909.872104","251077.211447","254960.319951","255726.965929","256493.575088","257260.248534","258026.786977","258793.470358","259560.126272","260326.782185","264148.537994"
"Blocked","Male","cave","9","M_reek.wav","None","740.125207911","437","254193.692967","261093.431377","261860.004301","262627.024021","263376.6082","264143.241029","264909.872104","265676.520419","254960.319951","255726.965929","256493.575088","257260.248534","258026.786977","258793.470358","259560.126272","260326.782185","264914.938805"
"Blocked","Male","done","21","M_priest.wav","None","739.210285468","437","268793.089019","261093.431377","261860.004301","262627.024021","263376.6082","264143.241029","264909.872104","265676.520419","254960.319951","255726.965929","256493.575088","257260.248534","258026.786977","258793.470358","259560.126272","260326.782185","265681.486891"
"Blocked","Male","done","21","M_greet.wav","None","742.239377138","437","268793.089019","261093.431377","261860.004301","262627.024021","263376.6082","264143.241029","264909.872104","265676.520419","269559.639443","255726.965929","256493.575088","257260.248534","258026.786977","258793.470358","259560.126272","260326.782185","268798.558975"
"Blocked","Male","done","21","M_done.wav","None","741.735307765","437","268793.089019","261093.431377","261860.004301","262627.024021","263376.6082","264143.241029","264909.872104","265676.520419","269559.639443","270326.272856","256493.575088","257260.248534","258026.786977","258793.470358","259560.126272","260326.782185","269564.791178"
"Blocked","Male","done","21","M_reek.wav","space","449.282731195","437","268793.089019","261093.431377","261860.004301","262627.024021","263376.6082","264143.241029","264909.872104","265676.520419","269559.639443","270326.272856","271092.926139","257260.248534","258026.786977","258793.470358","259560.126272","260326.782185","270331.346569"
"Blocked","Male","done","21","M_gnash.wav","None","738.853492017","437","268793.089019","261093.431377","261860.004301","262627.024021","263376.6082","264143.241029","264909.872104","265676.520419","269559.639443","270326.272856","271092.926139","271859.492927","258026.786977","258793.470358","259560.126272","260326.782185","271097.96391"
"Blocked","Male","done","21","M_done.wav","None","738.428028246","437","268793.089019","261093.431377","261860.004301","262627.024021","263376.6082","264143.241029","264909.872104","265676.520419","269559.639443","270326.272856","271092.926139","271859.492927","272626.162574","258793.470358","259560.126272","260326.782185","271864.489204"
"Blocked","Male","done","21","M_jolt.wav","space","589.098718116","437","268793.089019","261093.431377","261860.004301","262627.024021","263376.6082","264143.241029","264909.872104","265676.520419","269559.639443","270326.272856","271092.926139","271859.492927","272626.162574","273392.814981","259560.126272","260326.782185","272631.340024"
"Blocked","Male","done","21","M_done.wav","None","734.913861117","437","268793.089019","261093.431377","261860.004301","262627.024021","263376.6082","264143.241029","264909.872104","265676.520419","269559.639443","270326.272856","271092.926139","271859.492927","272626.162574","273392.814981","274159.423555","260326.782185","273398.030418"
"Blocked","Male","done","21","M_gnash.wav","space","447.971274185","437","268793.089019","261093.431377","261860.004301","262627.024021","263376.6082","264143.241029","264909.872104","265676.520419","269559.639443","270326.272856","271092.926139","271859.492927","272626.162574","273392.814981","274159.423555","274926.029792","274164.377169"
"Blocked","Male","done","21","M_done.wav","None","732.038181864","437","268793.089019","275692.781843","261860.004301","262627.024021","263376.6082","264143.241029","264909.872104","265676.520419","269559.639443","270326.272856","271092.926139","271859.492927","272626.162574","273392.814981","274159.423555","274926.029792","274931.083927"
"Blocked","Male","done","21","M_priest.wav","space","586.112874134","437","268793.089019","275692.781843","276459.696951","262627.024021","263376.6082","264143.241029","264909.872104","265676.520419","269559.639443","270326.272856","271092.926139","271859.492927","272626.162574","273392.814981","274159.423555","274926.029792","275698.125855"
"Blocked","Male","done","21","M_greet.wav","None","727.473797157","437","268793.089019","275692.781843","276459.696951","277226.235686","263376.6082","264143.241029","264909.872104","265676.520419","269559.639443","270326.272856","271092.926139","271859.492927","272626.162574","273392.814981","274159.423555","274926.029792","276465.557013"
"Blocked","Male","done","21","M_romp.wav","None","727.064112951","437","268793.089019","275692.781843","276459.696951","277226.235686","277975.932368","264143.241029","264909.872104","265676.520419","269559.639443","270326.272856","271092.926139","271859.492927","272626.162574","273392.814981","274159.423555","274926.029792","277231.553106"
"Blocked","Male","done","21","M_reek.wav","None","743.390116382","437","268793.089019","275692.781843","276459.696951","277226.235686","277975.932368","278742.595878","264909.872104","265676.520419","269559.639443","270326.272856","271092.926139","271859.492927","272626.162574","273392.814981","274159.423555","274926.029792","277980.994977"
"Blocked","Male","done","21","M_knife.wav","None","742.280287115","437","268793.089019","275692.781843","276459.696951","277226.235686","277975.932368","278742.595878","279509.219648","265676.520419","269559.639443","270326.272856","271092.926139","271859.492927","272626.162574","273392.814981","274159.423555","274926.029792","278747.716054"
"Blocked","Male","done","21","M_priest.wav","None","741.206692404","437","268793.089019","275692.781843","276459.696951","277226.235686","277975.932368","278742.595878","279509.219648","280275.798124","269559.639443","270326.272856","271092.926139","271859.492927","272626.162574","273392.814981","274159.423555","274926.029792","279514.348006"
"Blocked","Male","ball","1","M_cad.wav","None","740.481709152","437","283392.315587","275692.781843","276459.696951","277226.235686","277975.932368","278742.595878","279509.219648","280275.798124","269559.639443","270326.272856","271092.926139","271859.492927","272626.162574","273392.814981","274159.423555","274926.029792","280280.888787"
"Blocked","Male","ball","1","M_ball.wav","None","743.162189359","437","283392.315587","275692.781843","276459.696951","277226.235686","277975.932368","278742.595878","279509.219648","280275.798124","284158.956597","270326.272856","271092.926139","271859.492927","272626.162574","273392.814981","274159.423555","274926.029792","283397.338747"
"Blocked","Male","ball","1","M_greet.wav","space","423.310739337","437","283392.315587","275692.781843","276459.696951","277226.235686","277975.932368","278742.595878","279509.219648","280275.798124","284158.956597","284925.604036","271092.926139","271859.492927","272626.162574","273392.814981","274159.423555","274926.029792","284164.218497"
"Blocked","Male","ball","1","M_park.wav","None","740.041634668","437","283392.315587","275692.781843","276459.696951","277226.235686","277975.932368","278742.595878","279509.219648","280275.798124","284158.956597","284925.604036","285692.246215","271859.492927","272626.162574","273392.814981","274159.423555","274926.029792","284930.910937"
"Blocked","Male","ball","1","M_ball.wav","None","739.125251159","437","283392.315587","275692.781843","276459.696951","277226.235686","277975.932368","278742.595878","279509.219648","280275.798124","284158.956597","284925.604036","285692.246215","286458.825568","272626.162574","273392.814981","274159.423555","274926.029792","285697.539674"
"Blocked","Male","ball","1","M_cling.wav","space","451.552942774","437","283392.315587","275692.781843","276459.696951","277226.235686","277975.932368","278742.595878","279509.219648","280275.798124","284158.956597","284925.604036","285692.246215","286458.825568","287225.469208","273392.814981","274159.423555","274926.029792","286463.818923"
"Blocked","Male","ball","1","M_gnash.wav","None","736.522499905","437","283392.315587","275692.781843","276459.696951","277226.235686","277975.932368","278742.595878","279509.219648","280275.798124","284158.956597","284925.604036","285692.246215","286458.825568","287225.469208","287992.072815","274159.423555","274926.029792","287230.602534"
"Blocked","Male","ball","1","M_reek.wav","None","735.767710805","437","283392.315587","275692.781843","276459.696951","277226.235686","277975.932368","278742.595878","279509.219648","280275.798124","284158.956597","284925.604036","285692.246215","286458.825568","287225.469208","287992.072815","288758.73691","274926.029792","287997.280071"
"Blocked","Male","ball","1","M_cling.wav","None","735.004155285","437","283392.315587","275692.781843","276459.696951","277226.235686","277975.932368","278742.595878","279509.219648","280275.798124","284158.956597","284925.604036","285692.246215","286458.825568","287225.469208","287992.072815","288758.73691","289525.361557","288763.834586"
"Blocked","Male","ball","1","M_ball.wav","None","733.918579794","437","283392.315587","290292.04786","276459.696951","277226.235686","277975.932368","278742.595878","279509.219648","280275.798124","284158.956597","284925.604036","285692.246215","286458.825568","287225.469208","287992.072815","288758.73691","289525.361557","289530.523519"
"Blocked","Male","ball","1","M_greet.wav","space","489.710263846","437","283392.315587","290292.04786","291058.619323","277226.235686","277975.932368","278742.595878","279509.219648","280275.798124","284158.956597","284925.604036","285692.246215","286458.825568","287225.469208","287992.072815","288758.73691","289525.361557","290297.369372"
"Blocked","Male","ball","1","M_gnash.wav","None","730.919001751","437","283392.315587","290292.04786","291058.619323","291825.257411","277975.932368","278742.595878","279509.219648","280275.798124","284158.956597","284925.604036","285692.246215","286458.825568","287225.469208","287992.072815","288758.73691","289525.361557","291063.644822"
"Blocked","Male","ball","1","M_lash.wav","None","730.043236003","437","283392.315587","290292.04786","291058.619323","291825.257411","292591.881765","278742.595878","279509.219648","280275.798124","284158.956597","284925.604036","285692.246215","286458.825568","287225.469208","287992.072815","288758.73691","289525.361557","291830.349535"
"Blocked","Male","ball","1","M_ball.wav","None","729.178282178","437","283392.315587","290292.04786","291058.619323","291825.257411","292591.881765","293358.819373","279509.219648","280275.798124","284158.956597","284925.604036","285692.246215","286458.825568","287225.469208","287992.072815","288758.73691","289525.361557","292597.061553"
"Blocked","Male","ball","1","M_gnash.wav","space","462.43382811","437","283392.315587","290292.04786","291058.619323","291825.257411","292591.881765","293358.819373","294108.473392","280275.798124","284158.956597","284925.604036","285692.246215","286458.825568","287225.469208","287992.072815","288758.73691","289525.361557","293364.382838"
"Blocked","Male","ball","1","M_greet.wav","None","742.948580832","437","283392.315587","290292.04786","291058.619323","291825.257411","292591.881765","293358.819373","294108.473392","294875.143331","284158.956597","284925.604036","285692.246215","286458.825568","287225.469208","287992.072815","288758.73691","289525.361557","294113.748441"
"Blocked","Male","tile","18","M_gnash.wav","None","742.109049639","437","297991.624266","290292.04786","291058.619323","291825.257411","292591.881765","293358.819373","294108.473392","294875.143331","284158.956597","284925.604036","285692.246215","286458.825568","287225.469208","287992.072815","288758.73691","289525.361557","294880.183148"
"Blocked","Male","tile","18","M_gnash.wav","None","742.679159404","437","297991.624266","290292.04786","291058.619323","291825.257411","292591.881765","293358.819373","294108.473392","294875.143331","298758.251543","284925.604036","285692.246215","286458.825568","287225.469208","287992.072815","288758.73691","289525.361557","297996.698273"
"Blocked","Male","tile","18","M_tile.wav","None","741.836706067","437","297991.624266","290292.04786","291058.619323","291825.257411","292591.881765","293358.819373","294108.473392","294875.143331","298758.251543","299524.863916","285692.246215","286458.825568","287225.469208","287992.072815","288758.73691","289525.361557","298763.625945"
"Blocked","Male","tile","18","M_jaw.wav","space","608.462871856","437","297991.624266","290292.04786","291058.619323","291825.257411","292591.881765","293358.819373","294108.473392","294875.143331","298758.251543","299524.863916","300291.495283","286458.825568","287225.469208","287992.072815","288758.73691","289525.361557","299529.882986"
"Blocked","Male","tile","18","M_tile.wav","None","739.720783553","437","297991.624266","290292.04786","291058.619323","291825.257411","292591.881765","293358.819373","294108.473392","294875.143331","298758.251543","299524.863916","300291.495283","301058.10415","287225.469208","287992.072815","288758.73691","289525.361557","300296.538315"
"Blocked","Male","tile","18","M_park.wav","space","539.054126239","437","297991.624266","290292.04786","291058.619323","291825.257411","292591.881765","293358.819373","294108.473392","294875.143331","298758.251543","299524.863916","300291.495283","301058.10415","301824.751881","287992.072815","288758.73691","289525.361557","301063.113577"
"Blocked","Male","tile","18","M_jolt.wav","None","736.960528884","437","297991.624266","290292.04786","291058.619323","291825.257411","292591.881765","293358.819373","294108.473392","294875.143331","298758.251543","299524.863916","300291.495283","301058.10415","301824.751881","302591.457178","288758.73691","289525.361557","301830.024301"
"Blocked","Male","tile","18","M_tile.wav","None","736.324670939","437","297991.624266","290292.04786","291058.619323","291825.257411","292591.881765","293358.819373","294108.473392","294875.143331","298758.251543","299524.863916","300291.495283","301058.10415","301824.751881","302591.457178","303358.037116","289525.361557","302596.509561"
"Blocked","Male","tile","18","M_greet.wav","space","638.685410449","437","297991.624266","290292.04786","291058.619323","291825.257411","292591.881765","293358.819373","294108.473392","294875.143331","298758.251543","299524.863916","300291.495283","301058.10415","301824.751881","302591.457178","303358.037116","304124.662639","303363.285574"
"Blocked","Male","tile","18","M_tile.wav","None","733.869195603","437","297991.624266","304891.274428","291058.619323","291825.257411","292591.881765","293358.819373","294108.473392","294875.143331","298758.251543","299524.863916","300291.495283","301058.10415","301824.751881","302591.457178","303358.037116","304124.662639","304129.696027"
"Blocked","Male","tile","18","M_jaw.wav","space","561.608089421","437","297991.624266","304891.274428","305657.929464","291825.257411","292591.881765","293358.819373","294108.473392","294875.143331","298758.251543","299524.863916","300291.495283","301058.10415","301824.751881","302591.457178","303358.037116","304124.662639","304896.278887"
"Blocked","Male","tile","18","M_greet.wav","None","730.743088847","437","297991.624266","304891.274428","305657.929464","306424.531026","292591.881765","293358.819373","294108.473392","294875.143331","298758.251543","299524.863916","300291.495283","301058.10415","301824.751881","302591.457178","303358.037116","304124.662639","305663.329874"
"Blocked","Male","tile","18","M_jolt.wav","None","730.636430686","437","297991.624266","304891.274428","305657.929464","306424.531026","307191.203887","293358.819373","294108.473392","294875.143331","298758.251543","299524.863916","300291.495283","301058.10415","301824.751881","302591.457178","303358.037116","304124.662639","306429.420352"
"Blocked","Male","tile","18","M_lash.wav","None","729.781412141","437","297991.624266","304891.274428","305657.929464","306424.531026","307191.203887","307957.818306","294108.473392","294875.143331","298758.251543","299524.863916","300291.495283","301058.10415","301824.751881","302591.457178","303358.037116","304124.662639","307196.338966"
"Blocked","Male","tile","18","M_jolt.wav","None","729.222406513","437","297991.624266","304891.274428","305657.929464","306424.531026","307191.203887","307957.818306","308724.835688","294875.143331","298758.251543","299524.863916","300291.495283","301058.10415","301824.751881","302591.457178","303358.037116","304124.662639","307962.756433"
"Blocked","Male","tile","18","M_gnash.wav","None","728.125434671","437","297991.624266","304891.274428","305657.929464","306424.531026","307191.203887","307957.818306","308724.835688","309491.423515","298758.251543","299524.863916","300291.495283","301058.10415","301824.751881","302591.457178","303358.037116","304124.662639","308730.104601"
"Blocked","Male","ball","2","M_depth.wav","None","727.165803466","437","312590.970934","304891.274428","305657.929464","306424.531026","307191.203887","307957.818306","308724.835688","309491.423515","298758.251543","299524.863916","300291.495283","301058.10415","301824.751881","302591.457178","303358.037116","304124.662639","309496.88529"
"Blocked","Male","ball","2","M_knife.wav","None","743.017543369","437","312590.970934","304891.274428","305657.929464","306424.531026","307191.203887","307957.818306","308724.835688","309491.423515","313357.548534","299524.863916","300291.495283","301058.10415","301824.751881","302591.457178","303358.037116","304124.662639","312596.129975"
"Blocked","Male","ball","2","M_ball.wav","None","742.493019003","437","312590.970934","304891.274428","305657.929464","306424.531026","307191.203887","307957.818306","308724.835688","309491.423515","313357.548534","314124.190129","300291.495283","301058.10415","301824.751881","302591.457178","303358.037116","304124.662639","313362.669879"
"Blocked","Male","ball","2","M_greet.wav","space","463.68713451","437","312590.970934","304891.274428","305657.929464","306424.531026","307191.203887","307957.818306","308724.835688","309491.423515","313357.548534","314124.190129","314890.782047","301058.10415","301824.751881","302591.457178","303358.037116","304124.662639","314129.490893"
"Blocked","Male","ball","2","M_lash.wav","None","739.896988674","437","312590.970934","304891.274428","305657.929464","306424.531026","307191.203887","307957.818306","308724.835688","309491.423515","313357.548534","314124.190129","314890.782047","315657.472441","301824.751881","302591.457178","303358.037116","304124.662639","314895.806961"
"Blocked","Male","ball","2","M_priest.wav","None","739.269020509","437","312590.970934","304891.274428","305657.929464","306424.531026","307191.203887","307957.818306","308724.835688","309491.423515","313357.548534","314124.190129","314890.782047","315657.472441","316424.11988","302591.457178","303358.037116","304124.662639","315662.556675"
"Blocked","Male","ball","2","M_lash.wav","None","738.353805857","437","312590.970934","304891.274428","305657.929464","306424.531026","307191.203887","307957.818306","308724.835688","309491.423515","313357.548534","314124.190129","314890.782047","315657.472441","316424.11988","317190.713844","303358.037116","304124.662639","316429.397852"
"Blocked","Male","ball","2","M_ball.wav","None","738.09519635","437","312590.970934","304891.274428","305657.929464","306424.531026","307191.203887","307957.818306","308724.835688","309491.423515","313357.548534","314124.190129","314890.782047","315657.472441","316424.11988","317190.713844","317957.400732","304124.662639","317195.872592"
"Blocked","Male","ball","2","M_cling.wav","space","478.368264612","437","312590.970934","304891.274428","305657.929464","306424.531026","307191.203887","307957.818306","308724.835688","309491.423515","313357.548534","314124.190129","314890.782047","315657.472441","316424.11988","317190.713844","317957.400732","318723.957","317962.449023"
"Blocked","Male","ball","2","M_ball.wav","None","735.815049495","437","312590.970934","319490.63629","305657.929464","306424.531026","307191.203887","307957.818306","308724.835688","309491.423515","313357.548534","314124.190129","314890.782047","315657.472441","316424.11988","317190.713844","317957.400732","318723.957","318729.019025"
"Blocked","Male","ball","2","M_priest.wav","space","424.989509513","437","312590.970934","319490.63629","320257.229962","306424.531026","307191.203887","307957.818306","308724.835688","309491.423515","313357.548534","314124.190129","314890.782047","315657.472441","316424.11988","317190.713844","317957.400732","318723.957","319495.724907"
"Blocked","Male","ball","2","M_priest.wav","None","732.796185319","437","312590.970934","319490.63629","320257.229962","321023.91422","307191.203887","307957.818306","308724.835688","309491.423515","313357.548534","314124.190129","314890.782047","315657.472441","316424.11988","317190.713844","317957.400732","318723.957","320262.612546"
"Blocked","Male","ball","2","M_ball.wav","None","732.144255599","437","312590.970934","319490.63629","320257.229962","321023.91422","321790.495619","307957.818306","308724.835688","309491.423515","313357.548534","314124.190129","314890.782047","315657.472441","316424.11988","317190.713844","317957.400732","318723.957","321029.064494"
"Blocked","Male","ball","2","M_romp.wav","space","428.987583236","437","312590.970934","319490.63629","320257.229962","321023.91422","321790.495619","322557.128155","308724.835688","309491.423515","313357.548534","314124.190129","314890.782047","315657.472441","316424.11988","317190.713844","317957.400732","318723.957","321795.573423"
"Blocked","Male","ball","2","M_greet.wav","None","729.436307254","437","312590.970934","319490.63629","320257.229962","321023.91422","321790.495619","322557.128155","323324.082418","309491.423515","313357.548534","314124.190129","314890.782047","315657.472441","316424.11988","317190.713844","317957.400732","318723.957","322562.211804"
"Blocked","Male","ball","2","M_jolt.wav","None","727.843448036","437","312590.970934","319490.63629","320257.229962","321023.91422","321790.495619","322557.128155","323324.082418","324090.532613","313357.548534","314124.190129","314890.782047","315657.472441","316424.11988","317190.713844","317957.400732","318723.957","323329.724781"
"Blocked","Male","done","22","M_jolt.wav","None","726.860439699","437","327173.602953","319490.63629","320257.229962","321023.91422","321790.495619","322557.128155","323324.082418","324090.532613","313357.548534","314124.190129","314890.782047","315657.472441","316424.11988","317190.713844","317957.400732","318723.957","324096.686935"
"Blocked","Male","done","22","M_knife.wav","None","742.310092959","437","327173.602953","319490.63629","320257.229962","321023.91422","321790.495619","322557.128155","323324.082418","324090.532613","327940.222048","314124.190129","314890.782047","315657.472441","316424.11988","317190.713844","317957.400732","318723.957","327178.590756"
"Blocked","Male","done","22","M_depth.wav","None","741.303999712","437","327173.602953","319490.63629","320257.229962","321023.91422","321790.495619","322557.128155","323324.082418","324090.532613","327940.222048","328706.856921","314890.782047","315657.472441","316424.11988","317190.713844","317957.400732","318723.957","327945.442161"
"Blocked","Male","done","22","M_jolt.wav","None","740.971167816","437","327173.602953","319490.63629","320257.229962","321023.91422","321790.495619","322557.128155","323324.082418","324090.532613","327940.222048","328706.856921","329473.487412","315657.472441","316424.11988","317190.713844","317957.400732","318723.957","328711.908719"
"Blocked","Male","done","22","M_jolt.wav","None","740.251736628","437","327173.602953","319490.63629","320257.229962","321023.91422","321790.495619","322557.128155","323324.082418","324090.532613","327940.222048","328706.856921","329473.487412","330240.09248","316424.11988","317190.713844","317957.400732","318723.957","329478.572815"
"Blocked","Male","done","22","M_done.wav","None","739.827733927","437","327173.602953","319490.63629","320257.229962","321023.91422","321790.495619","322557.128155","323324.082418","324090.532613","327940.222048","328706.856921","329473.487412","330240.09248","331006.699593","317190.713844","317957.400732","318723.957","330245.268761"
"Blocked","Male","done","22","M_cling.wav","space","644.013935107","437","327173.602953","319490.63629","320257.229962","321023.91422","321790.495619","322557.128155","323324.082418","324090.532613","327940.222048","328706.856921","329473.487412","330240.09248","331006.699593","331773.354922","317957.400732","318723.957","331011.766586"
"Blocked","Male","done","22","M_done.wav","None","737.056959548","437","327173.602953","319490.63629","320257.229962","321023.91422","321790.495619","322557.128155","323324.082418","324090.532613","327940.222048","328706.856921","329473.487412","330240.09248","331006.699593","331773.354922","332540.021355","318723.957","331778.568899"
"Blocked","Male","done","22","M_knife.wav","space","430.626904505","437","327173.602953","319490.63629","320257.229962","321023.91422","321790.495619","322557.128155","323324.082418","324090.532613","327940.222048","328706.856921","329473.487412","330240.09248","331006.699593","331773.354922","332540.021355","333306.616195","332545.077828"
"Blocked","Male","done","22","M_done.wav","None","734.19501436","437","327173.602953","334073.253991","320257.229962","321023.91422","321790.495619","322557.128155","323324.082418","324090.532613","327940.222048","328706.856921","329473.487412","330240.09248","331006.699593","331773.354922","332540.021355","333306.616195","333312.025079"
"Blocked","Male","done","22","M_greet.wav","space","457.191506619","437","327173.602953","334073.253991","334839.873962","321023.91422","321790.495619","322557.128155","323324.082418","324090.532613","327940.222048","328706.856921","329473.487412","330240.09248","331006.699593","331773.354922","332540.021355","333306.616195","334078.405726"
"Blocked","Male","done","22","M_bluff.wav","None","732.040519579","437","327173.602953","334073.253991","334839.873962","335606.496855","321790.495619","322557.128155","323324.082418","324090.532613","327940.222048","328706.856921","329473.487412","330240.09248","331006.699593","331773.354922","332540.021355","333306.616195","334844.846278"
"Blocked","Male","done","22","M_park.wav","None","731.079719521","437","327173.602953","334073.253991","334839.873962","335606.496855","336373.13319","322557.128155","323324.082418","324090.532613","327940.222048","328706.856921","329473.487412","330240.09248","331006.699593","331773.354922","332540.021355","333306.616195","335611.870965"
"Blocked","Male","done","22","M_gnash.wav","None","730.783414394","437","327173.602953","334073.253991","334839.873962","335606.496855","336373.13319","337139.820955","323324.082418","324090.532613","327940.222048","328706.856921","329473.487412","330240.09248","331006.699593","331773.354922","332540.021355","333306.616195","336378.292523"
"Blocked","Male","done","22","M_done.wav","None","730.203953772","437","327173.602953","334073.253991","334839.873962","335606.496855","336373.13319","337139.820955","337906.396801","324090.532613","327940.222048","328706.856921","329473.487412","330240.09248","331006.699593","331773.354922","332540.021355","333306.616195","337144.842947"
"Blocked","Male","done","22","M_cad.wav","space","503.855473231","437","327173.602953","334073.253991","334839.873962","335606.496855","336373.13319","337139.820955","337906.396801","338673.256095","327940.222048","328706.856921","329473.487412","330240.09248","331006.699593","331773.354922","332540.021355","333306.616195","337911.393078"
"Blocked","Male","ball","3","M_romp.wav","None","727.280351406","437","341756.237895","334073.253991","334839.873962","335606.496855","336373.13319","337139.820955","337906.396801","338673.256095","327940.222048","328706.856921","329473.487412","330240.09248","331006.699593","331773.354922","332540.021355","333306.616195","338678.624946"
"Blocked","Male","ball","3","M_lash.wav","None","742.557890542","437","341756.237895","334073.253991","334839.873962","335606.496855","336373.13319","337139.820955","337906.396801","338673.256095","342522.875983","328706.856921","329473.487412","330240.09248","331006.699593","331773.354922","332540.021355","333306.616195","341761.344921"
"Blocked","Male","ball","3","M_jaw.wav","None","741.988657417","437","341756.237895","334073.253991","334839.873962","335606.496855","336373.13319","337139.820955","337906.396801","338673.256095","342522.875983","343289.490402","329473.487412","330240.09248","331006.699593","331773.354922","332540.021355","333306.616195","342528.01077"
"Blocked","Male","ball","3","M_jolt.wav","None","741.504166388","437","341756.237895","334073.253991","334839.873962","335606.496855","336373.13319","337139.820955","337906.396801","338673.256095","342522.875983","343289.490402","344056.126152","330240.09248","331006.699593","331773.354922","332540.021355","333306.616195","343294.690352"
"Blocked","Male","ball","3","M_ball.wav","None","740.947790684","437","341756.237895","334073.253991","334839.873962","335606.496855","336373.13319","337139.820955","337906.396801","338673.256095","342522.875983","343289.490402","344056.126152","344822.72859","331006.699593","331773.354922","332540.021355","333306.616195","344061.410845"
"Blocked","Male","ball","3","M_lash.wav","None","744.07039088","437","341756.237895","334073.253991","334839.873962","335606.496855","336373.13319","337139.820955","337906.396801","338673.256095","342522.875983","343289.490402","344056.126152","344822.72859","345589.358496","331773.354922","332540.021355","333306.616195","344824.358269"
"Blocked","Male","ball","3","M_ball.wav","space","164.20739255","437","341756.237895","334073.253991","334839.873962","335606.496855","336373.13319","337139.820955","337906.396801","338673.256095","342522.875983","343289.490402","344056.126152","344822.72859","345589.358496","346355.954214","332540.021355","333306.616195","345594.483056"
"Blocked","Male","ball","3","M_gnash.wav","space","525.544190372","437","341756.237895","334073.253991","334839.873962","335606.496855","336373.13319","337139.820955","337906.396801","338673.256095","342522.875983","343289.490402","344056.126152","344822.72859","345589.358496","346355.954214","347122.655128","333306.616195","346361.066792"
"Blocked","Male","ball","3","M_jaw.wav","None","736.256000615","437","341756.237895","334073.253991","334839.873962","335606.496855","336373.13319","337139.820955","337906.396801","338673.256095","342522.875983","343289.490402","344056.126152","344822.72859","345589.358496","346355.954214","347122.655128","347889.287079","347127.864429"
"Blocked","Male","ball","3","M_ball.wav","None","735.854790619","437","341756.237895","348655.908803","334839.873962","335606.496855","336373.13319","337139.820955","337906.396801","338673.256095","342522.875983","343289.490402","344056.126152","344822.72859","345589.358496","346355.954214","347122.655128","347889.287079","347894.608006"
"Blocked","Male","ball","3","M_cling.wav","space","449.576114184","437","341756.237895","348655.908803","349422.512995","335606.496855","336373.13319","337139.820955","337906.396801","338673.256095","342522.875983","343289.490402","344056.126152","344822.72859","345589.358496","346355.954214","347122.655128","347889.287079","348660.856281"
"Blocked","Male","ball","3","M_reek.wav","None","733.434380982","437","341756.237895","348655.908803","349422.512995","350189.17709","336373.13319","337139.820955","337906.396801","338673.256095","342522.875983","343289.490402","344056.126152","344822.72859","345589.358496","346355.954214","347122.655128","347889.287079","349427.812006"
"Blocked","Male","ball","3","M_ball.wav","None","733.256130359","437","341756.237895","348655.908803","349422.512995","350189.17709","350955.771638","337139.820955","337906.396801","338673.256095","342522.875983","343289.490402","344056.126152","344822.72859","345589.358496","346355.954214","347122.655128","347889.287079","350194.220998"
"Blocked","Male","ball","3","M_gnash.wav","space","461.675240229","437","341756.237895","348655.908803","349422.512995","350189.17709","350955.771638","351722.473429","337906.396801","338673.256095","342522.875983","343289.490402","344056.126152","344822.72859","345589.358496","346355.954214","347122.655128","347889.287079","350960.613626"
"Blocked","Male","ball","3","M_cad.wav","None","730.58149443","437","341756.237895","348655.908803","349422.512995","350189.17709","350955.771638","351722.473429","352489.0221","338673.256095","342522.875983","343289.490402","344056.126152","344822.72859","345589.358496","346355.954214","347122.655128","347889.287079","351727.554156"
"Blocked","Male","ball","3","M_park.wav","None","729.87462845","437","341756.237895","348655.908803","349422.512995","350189.17709","350955.771638","351722.473429","352489.0221","353255.612849","342522.875983","343289.490402","344056.126152","344822.72859","345589.358496","346355.954214","347122.655128","347889.287079","352494.362605"
"Blocked","Male","ball","4","M_jolt.wav","None","729.967260329","437","356355.528165","348655.908803","349422.512995","350189.17709","350955.771638","351722.473429","352489.0221","353255.612849","342522.875983","343289.490402","344056.126152","344822.72859","345589.358496","346355.954214","347122.655128","347889.287079","353260.478506"
"Blocked","Male","ball","4","M_ball.wav","None","742.629775217","437","356355.528165","348655.908803","349422.512995","350189.17709","350955.771638","351722.473429","352489.0221","353255.612849","357122.140539","343289.490402","344056.126152","344822.72859","345589.358496","346355.954214","347122.655128","347889.287079","356360.902275"
"Blocked","Male","ball","4","M_park.wav","space","478.524014743","437","356355.528165","348655.908803","349422.512995","350189.17709","350955.771638","351722.473429","352489.0221","353255.612849","357122.140539","357888.789731","344056.126152","344822.72859","345589.358496","346355.954214","347122.655128","347889.287079","357127.205194"
"Blocked","Male","ball","4","M_ball.wav","None","740.706129603","437","356355.528165","348655.908803","349422.512995","350189.17709","350955.771638","351722.473429","352489.0221","353255.612849","357122.140539","357888.789731","358655.403857","344822.72859","345589.358496","346355.954214","347122.655128","347889.287079","357893.86812"
"Blocked","Male","ball","4","M_gnash.wav","space","433.170628505","437","356355.528165","348655.908803","349422.512995","350189.17709","350955.771638","351722.473429","352489.0221","353255.612849","357122.140539","357888.789731","358655.403857","359422.087823","345589.358496","346355.954214","347122.655128","347889.287079","358660.474065"
"Blocked","Male","ball","4","M_ball.wav","None","738.40289783","437","356355.528165","348655.908803","349422.512995","350189.17709","350955.771638","351722.473429","352489.0221","353255.612849","357122.140539","357888.789731","358655.403857","359422.087823","360188.665423","346355.954214","347122.655128","347889.287079","359427.032086"
"Blocked","Male","ball","4","M_knife.wav","space","559.148815304","437","356355.528165","348655.908803","349422.512995","350189.17709","350955.771638","351722.473429","352489.0221","353255.612849","357122.140539","357888.789731","358655.403857","359422.087823","360188.665423","360955.298543","347122.655128","347889.287079","360190.330459"
