Condition,Talker,Target,Trial,current_stimulus,response_response,response_time_response,subject_nr,time_Audio1,time_Audio10,time_Audio11,time_Audio12,time_Audio13,time_Audio14,time_Audio15,time_Audio16,time_Audio2,time_Audio3,time_Audio4,time_Audio5,time_Audio6,time_Audio7,time_Audio8,time_Audio9,time_response,title
Mixed,Male,ball,1,F_gnash.wav,NA,NA,2190,88942.5962,NA,NA,NA,NA,NA,NA,NA,NA,NA,NA,NA,NA,NA,NA,NA,NA,Mapping
Mixed,Male,ball,1,F_greet.wav,None,732.4014553,2190,88942.5962,NA,NA,NA,NA,NA,NA,NA,89710.3518,NA,NA,NA,NA,NA,NA,NA,88956.26025,Mapping
Mixed,Male,ball,1,M_ball.wav,None,732.3284913,2190,88942.5962,NA,NA,NA,NA,NA,NA,NA,89710.3518,90477.49246,NA,NA,NA,NA,NA,NA,89720.79152,Mapping
Mixed,Male,ball,1,M_cad.wav,space,695.6789238,2190,88942.5962,NA,NA,NA,NA,NA,NA,NA,89710.3518,90477.49246,91244.16164,NA,NA,NA,NA,NA,90486.72797,Mapping
Mixed,Male,ball,1,F_done.wav,None,727.4838057,2190,88942.5962,NA,NA,NA,NA,NA,NA,NA,89710.3518,90477.49246,91244.16164,92011.49028,NA,NA,NA,NA,91253.83339,Mapping
Mixed,Male,ball,1,F_bluff.wav,None,725.537893,2190,88942.5962,NA,NA,NA,NA,NA,NA,NA,89710.3518,90477.49246,91244.16164,92011.49028,92779.03194,NA,NA,NA,92020.44229,Mapping
Mixed,Male,ball,1,F_gnash.wav,None,720.9603298,2190,88942.5962,NA,NA,NA,NA,NA,NA,NA,89710.3518,90477.49246,91244.16164,92011.49028,92779.03194,93529.44592,NA,NA,92788.98565,Mapping
Mixed,Male,ball,1,M_ball.wav,None,735.3370195,2190,88942.5962,NA,NA,NA,NA,NA,NA,NA,89710.3518,90477.49246,91244.16164,92011.49028,92779.03194,93529.44592,94296.77332,NA,93538.72131,Mapping
Mixed,Male,ball,1,M_gnash.wav,space,548.1188274,2190,88942.5962,NA,NA,NA,NA,NA,NA,NA,89710.3518,90477.49246,91244.16164,92011.49028,92779.03194,93529.44592,94296.77332,95064.29396,94306.17269,Mapping
Mixed,Male,ball,1,F_done.wav,None,728.9891519,2190,88942.5962,95831.38763,NA,NA,NA,NA,NA,NA,89710.3518,90477.49246,91244.16164,92011.49028,92779.03194,93529.44592,94296.77332,95064.29396,95073.59872,Mapping
Mixed,Male,ball,1,M_romp.wav,None,725.6649617,2190,88942.5962,95831.38763,96598.78676,NA,NA,NA,NA,NA,89710.3518,90477.49246,91244.16164,92011.49028,92779.03194,93529.44592,94296.77332,95064.29396,95840.77339,Mapping
Mixed,Male,ball,1,M_ball.wav,None,722.2118479,2190,88942.5962,95831.38763,96598.78676,97348.94814,NA,NA,NA,NA,89710.3518,90477.49246,91244.16164,92011.49028,92779.03194,93529.44592,94296.77332,95064.29396,96608.34566,Mapping
Mixed,Male,ball,1,F_done.wav,space,568.1177639,2190,88942.5962,95831.38763,96598.78676,97348.94814,98116.49073,NA,NA,NA,89710.3518,90477.49246,91244.16164,92011.49028,92779.03194,93529.44592,94296.77332,95064.29396,97358.0773,Mapping
Mixed,Male,ball,1,M_done.wav,None,732.380741,2190,88942.5962,95831.38763,96598.78676,97348.94814,98116.49073,98883.85616,NA,NA,89710.3518,90477.49246,91244.16164,92011.49028,92779.03194,93529.44592,94296.77332,95064.29396,98125.8768,Mapping
Mixed,Male,ball,1,M_ball.wav,None,729.2058797,2190,88942.5962,95831.38763,96598.78676,97348.94814,98116.49073,98883.85616,99650.9489,NA,89710.3518,90477.49246,91244.16164,92011.49028,92779.03194,93529.44592,94296.77332,95064.29396,98893.37549,Mapping
Mixed,Male,ball,1,F_tile.wav,None,725.8736511,2190,88942.5962,95831.38763,96598.78676,97348.94814,98116.49073,98883.85616,99650.9489,100418.186,89710.3518,90477.49246,91244.16164,92011.49028,92779.03194,93529.44592,94296.77332,95064.29396,99660.89612,Mapping
Mixed,Male,cave,18,F_reek.wav,space,0.038337021,2190,103553.8654,95831.38763,96598.78676,97348.94814,98116.49073,98883.85616,99650.9489,100418.186,89710.3518,90477.49246,91244.16164,92011.49028,92779.03194,93529.44592,94296.77332,95064.29396,100427.5712,Mapping
Mixed,Male,cave,18,F_park.wav,None,721.5193083,2190,103553.8654,95831.38763,96598.78676,97348.94814,98116.49073,98883.85616,99650.9489,100418.186,104304.0713,90477.49246,91244.16164,92011.49028,92779.03194,93529.44592,94296.77332,95064.29396,103563.1528,Mapping
Mixed,Male,cave,18,F_dime.wav,None,735.7259547,2190,103553.8654,95831.38763,96598.78676,97348.94814,98116.49073,98883.85616,99650.9489,100418.186,104304.0713,105071.3792,91244.16164,92011.49028,92779.03194,93529.44592,94296.77332,95064.29396,104313.3995,Mapping
Mixed,Male,cave,18,F_depth.wav,None,733.1916925,2190,103553.8654,95831.38763,96598.78676,97348.94814,98116.49073,98883.85616,99650.9489,100418.186,104304.0713,105071.3792,105839.4579,92011.49028,92779.03194,93529.44592,94296.77332,95064.29396,105080.202,Mapping
Mixed,Male,cave,18,M_jolt.wav,None,728.7776799,2190,103553.8654,95831.38763,96598.78676,97348.94814,98116.49073,98883.85616,99650.9489,100418.186,104304.0713,105071.3792,105839.4579,106606.0798,92779.03194,93529.44592,94296.77332,95064.29396,105848.8229,Mapping
Mixed,Male,cave,18,F_lash.wav,None,726.8565008,2190,103553.8654,95831.38763,96598.78676,97348.94814,98116.49073,98883.85616,99650.9489,100418.186,104304.0713,105071.3792,105839.4579,106606.0798,107373.319,93529.44592,94296.77332,95064.29396,106615.1978,Mapping
Mixed,Male,cave,18,M_cave.wav,None,722.9513812,2190,103553.8654,95831.38763,96598.78676,97348.94814,98116.49073,98883.85616,99650.9489,100418.186,104304.0713,105071.3792,105839.4579,106606.0798,107373.319,108140.6814,94296.77332,95064.29396,107382.9336,Mapping
Mixed,Male,cave,18,F_cling.wav,space,455.6935413,2190,103553.8654,95831.38763,96598.78676,97348.94814,98116.49073,98883.85616,99650.9489,100418.186,104304.0713,105071.3792,105839.4579,106606.0798,107373.319,108140.6814,108890.6523,95064.29396,108150.18,Mapping
Mixed,Male,cave,18,M_cave.wav,None,733.8817588,2190,103553.8654,95831.38763,96598.78676,97348.94814,98116.49073,98883.85616,99650.9489,100418.186,104304.0713,105071.3792,105839.4579,106606.0798,107373.319,108140.6814,108890.6523,109657.9742,108899.801,Mapping
Mixed,Male,cave,18,M_jaw.wav,space,514.9066061,2190,103553.8654,110425.6237,96598.78676,97348.94814,98116.49073,98883.85616,99650.9489,100418.186,104304.0713,105071.3792,105839.4579,106606.0798,107373.319,108140.6814,108890.6523,109657.9742,109666.9398,Mapping
Mixed,Male,cave,18,M_cad.wav,None,726.3370961,2190,103553.8654,110425.6237,111193.2204,97348.94814,98116.49073,98883.85616,99650.9489,100418.186,104304.0713,105071.3792,105839.4579,106606.0798,107373.319,108140.6814,108890.6523,109657.9742,110435.0948,Mapping
Mixed,Male,cave,18,M_cave.wav,None,722.6558152,2190,103553.8654,110425.6237,111193.2204,111959.9159,98116.49073,98883.85616,99650.9489,100418.186,104304.0713,105071.3792,105839.4579,106606.0798,107373.319,108140.6814,108890.6523,109657.9742,111202.6464,Mapping
Mixed,Male,cave,18,F_bluff.wav,space,539.8473074,2190,103553.8654,110425.6237,111193.2204,111959.9159,112710.5324,98883.85616,99650.9489,100418.186,104304.0713,105071.3792,105839.4579,106606.0798,107373.319,108140.6814,108890.6523,109657.9742,111969.924,Mapping
Mixed,Male,cave,18,F_depth.wav,None,733.4931327,2190,103553.8654,110425.6237,111193.2204,111959.9159,112710.5324,113477.8533,99650.9489,100418.186,104304.0713,105071.3792,105839.4579,106606.0798,107373.319,108140.6814,108890.6523,109657.9742,112719.7267,Mapping
Mixed,Male,cave,18,M_cave.wav,None,730.304668,2190,103553.8654,110425.6237,111193.2204,111959.9159,112710.5324,113477.8533,114245.0474,100418.186,104304.0713,105071.3792,105839.4579,106606.0798,107373.319,108140.6814,108890.6523,109657.9742,113487.0106,Mapping
Mixed,Male,cave,18,M_jaw.wav,space,535.7004173,2190,103553.8654,110425.6237,111193.2204,111959.9159,112710.5324,113477.8533,114245.0474,115011.7849,104304.0713,105071.3792,105839.4579,106606.0798,107373.319,108140.6814,108890.6523,109657.9742,114254.0028,Mapping
Mixed,Male,tile,25,F_dime.wav,None,724.4112795,2190,118131.3234,110425.6237,111193.2204,111959.9159,112710.5324,113477.8533,114245.0474,115011.7849,104304.0713,105071.3792,105839.4579,106606.0798,107373.319,108140.6814,108890.6523,109657.9742,115020.7515,Mapping
Mixed,Male,tile,25,F_done.wav,None,720.3286966,2190,118131.3234,110425.6237,111193.2204,111959.9159,112710.5324,113477.8533,114245.0474,115011.7849,118881.5974,105071.3792,105839.4579,106606.0798,107373.319,108140.6814,108890.6523,109657.9742,118140.6567,Mapping
Mixed,Male,tile,25,M_cad.wav,None,734.4370271,2190,118131.3234,110425.6237,111193.2204,111959.9159,112710.5324,113477.8533,114245.0474,115011.7849,118881.5974,119649.0271,105839.4579,106606.0798,107373.319,108140.6814,108890.6523,109657.9742,118890.8765,Mapping
Mixed,Male,tile,25,F_priest.wav,None,731.2229013,2190,118131.3234,110425.6237,111193.2204,111959.9159,112710.5324,113477.8533,114245.0474,115011.7849,118881.5974,119649.0271,120416.254,106606.0798,107373.319,108140.6814,108890.6523,109657.9742,119658.4392,Mapping
Mixed,Male,tile,25,M_tile.wav,None,728.1698528,2190,118131.3234,110425.6237,111193.2204,111959.9159,112710.5324,113477.8533,114245.0474,115011.7849,118881.5974,119649.0271,120416.254,121183.5412,107373.319,108140.6814,108890.6523,109657.9742,120425.9654,Mapping
Mixed,Male,tile,25,M_cave.wav,space,420.7450242,2190,118131.3234,110425.6237,111193.2204,111959.9159,112710.5324,113477.8533,114245.0474,115011.7849,118881.5974,119649.0271,120416.254,121183.5412,121950.5585,108140.6814,108890.6523,109657.9742,121192.7764,Mapping
Mixed,Male,tile,25,F_reek.wav,None,722.4882454,2190,118131.3234,110425.6237,111193.2204,111959.9159,112710.5324,113477.8533,114245.0474,115011.7849,118881.5974,119649.0271,120416.254,121183.5412,121950.5585,122701.5414,108890.6523,109657.9742,121959.9125,Mapping
Mixed,Male,tile,25,M_tile.wav,None,736.2268092,2190,118131.3234,110425.6237,111193.2204,111959.9159,112710.5324,113477.8533,114245.0474,115011.7849,118881.5974,119649.0271,120416.254,121183.5412,121950.5585,122701.5414,123468.4774,109657.9742,122710.7614,Mapping
Mixed,Male,tile,25,F_jaw.wav,space,463.6348684,2190,118131.3234,110425.6237,111193.2204,111959.9159,112710.5324,113477.8533,114245.0474,115011.7849,118881.5974,119649.0271,120416.254,121183.5412,121950.5585,122701.5414,123468.4774,124235.5485,123477.7797,Mapping
Mixed,Male,tile,25,M_tile.wav,None,730.4156598,2190,118131.3234,125002.4285,111193.2204,111959.9159,112710.5324,113477.8533,114245.0474,115011.7849,118881.5974,119649.0271,120416.254,121183.5412,121950.5585,122701.5414,123468.4774,124235.5485,124245.1896,Mapping
Mixed,Male,tile,25,M_park.wav,space,513.9327222,2190,118131.3234,125002.4285,125769.9269,111959.9159,112710.5324,113477.8533,114245.0474,115011.7849,118881.5974,119649.0271,120416.254,121183.5412,121950.5585,122701.5414,123468.4774,124235.5485,125011.4393,Mapping
Mixed,Male,tile,25,M_tile.wav,None,724.9520169,2190,118131.3234,125002.4285,125769.9269,126537.4834,112710.5324,113477.8533,114245.0474,115011.7849,118881.5974,119649.0271,120416.254,121183.5412,121950.5585,122701.5414,123468.4774,124235.5485,125779.1587,Mapping
Mixed,Male,tile,25,F_ball.wav,space,490.4274948,2190,118131.3234,125002.4285,125769.9269,126537.4834,127287.762,113477.8533,114245.0474,115011.7849,118881.5974,119649.0271,120416.254,121183.5412,121950.5585,122701.5414,123468.4774,124235.5485,126546.9171,Mapping
Mixed,Male,tile,25,F_knife.wav,None,735.6635024,2190,118131.3234,125002.4285,125769.9269,126537.4834,127287.762,128055.3172,114245.0474,115011.7849,118881.5974,119649.0271,120416.254,121183.5412,121950.5585,122701.5414,123468.4774,124235.5485,127296.9687,Mapping
Mixed,Male,tile,25,F_reek.wav,space,156.1710845,2190,118131.3234,125002.4285,125769.9269,126537.4834,127287.762,128055.3172,128822.4761,115011.7849,118881.5974,119649.0271,120416.254,121183.5412,121950.5585,122701.5414,123468.4774,124235.5485,128065.1361,Mapping
Mixed,Male,tile,25,M_lash.wav,None,729.751873,2190,118131.3234,125002.4285,125769.9269,126537.4834,127287.762,128055.3172,128822.4761,129589.7185,118881.5974,119649.0271,120416.254,121183.5412,121950.5585,122701.5414,123468.4774,124235.5485,128831.7429,Mapping
Mixed,Male,cave,15,F_depth.wav,None,726.7362339,2190,132725.2705,125002.4285,125769.9269,126537.4834,127287.762,128055.3172,128822.4761,129589.7185,118881.5974,119649.0271,120416.254,121183.5412,121950.5585,122701.5414,123468.4774,124235.5485,129599.0106,Mapping
Mixed,Male,cave,15,F_romp.wav,None,719.8392813,2190,132725.2705,125002.4285,125769.9269,126537.4834,127287.762,128055.3172,128822.4761,129589.7185,133475.8523,119649.0271,120416.254,121183.5412,121950.5585,122701.5414,123468.4774,124235.5485,132734.5236,Mapping
Mixed,Male,cave,15,F_cad.wav,None,733.2671299,2190,132725.2705,125002.4285,125769.9269,126537.4834,127287.762,128055.3172,128822.4761,129589.7185,133475.8523,134243.0808,120416.254,121183.5412,121950.5585,122701.5414,123468.4774,124235.5485,133485.5813,Mapping
Mixed,Male,cave,15,F_dime.wav,None,730.3476425,2190,132725.2705,125002.4285,125769.9269,126537.4834,127287.762,128055.3172,128822.4761,129589.7185,133475.8523,134243.0808,135009.9015,121183.5412,121950.5585,122701.5414,123468.4774,124235.5485,134252.4709,Mapping
Mixed,Male,cave,15,M_jolt.wav,None,728.604545,2190,132725.2705,125002.4285,125769.9269,126537.4834,127287.762,128055.3172,128822.4761,129589.7185,133475.8523,134243.0808,135009.9015,135777.4796,121950.5585,122701.5414,123468.4774,124235.5485,135018.8117,Mapping
Mixed,Male,cave,15,M_park.wav,None,724.1710548,2190,132725.2705,125002.4285,125769.9269,126537.4834,127287.762,128055.3172,128822.4761,129589.7185,133475.8523,134243.0808,135009.9015,135777.4796,136544.7928,122701.5414,123468.4774,124235.5485,135787.3668,Mapping
Mixed,Male,cave,15,F_dime.wav,None,721.5666112,2190,132725.2705,125002.4285,125769.9269,126537.4834,127287.762,128055.3172,128822.4761,129589.7185,133475.8523,134243.0808,135009.9015,135777.4796,136544.7928,137295.2847,123468.4774,124235.5485,136554.1093,Mapping
Mixed,Male,cave,15,M_cave.wav,None,735.0377434,2190,132725.2705,125002.4285,125769.9269,126537.4834,127287.762,128055.3172,128822.4761,129589.7185,133475.8523,134243.0808,135009.9015,135777.4796,136544.7928,137295.2847,138062.5054,124235.5485,137305.1428,Mapping
Mixed,Male,cave,15,M_tile.wav,space,573.1872157,2190,132725.2705,125002.4285,125769.9269,126537.4834,127287.762,128055.3172,128822.4761,129589.7185,133475.8523,134243.0808,135009.9015,135777.4796,136544.7928,137295.2847,138062.5054,138829.6931,138071.7449,Mapping
Mixed,Male,cave,15,M_cave.wav,None,729.3453151,2190,132725.2705,139597.0696,125769.9269,126537.4834,127287.762,128055.3172,128822.4761,129589.7185,133475.8523,134243.0808,135009.9015,135777.4796,136544.7928,137295.2847,138062.5054,138829.6931,138838.9212,Mapping
Mixed,Male,cave,15,F_greet.wav,None,726.304015,2190,132725.2705,139597.0696,140364.3207,126537.4834,127287.762,128055.3172,128822.4761,129589.7185,133475.8523,134243.0808,135009.9015,135777.4796,136544.7928,137295.2847,138062.5054,138829.6931,139606.2096,Mapping
Mixed,Male,cave,15,M_cave.wav,space,0.035245321,2190,132725.2705,139597.0696,140364.3207,141114.7724,127287.762,128055.3172,128822.4761,129589.7185,133475.8523,134243.0808,135009.9015,135777.4796,136544.7928,137295.2847,138062.5054,138829.6931,140374.2057,Mapping
Mixed,Male,cave,15,M_depth.wav,space,496.7886567,2190,132725.2705,139597.0696,140364.3207,141114.7724,141881.9934,128055.3172,128822.4761,129589.7185,133475.8523,134243.0808,135009.9015,135777.4796,136544.7928,137295.2847,138062.5054,138829.6931,141124.104,Mapping
Mixed,Male,cave,15,F_tile.wav,None,732.535944,2190,132725.2705,139597.0696,140364.3207,141114.7724,141881.9934,142649.4776,128822.4761,129589.7185,133475.8523,134243.0808,135009.9015,135777.4796,136544.7928,137295.2847,138062.5054,138829.6931,141891.7063,Mapping
Mixed,Male,cave,15,M_cave.wav,space,473.8226208,2190,132725.2705,139597.0696,140364.3207,141114.7724,141881.9934,142649.4776,143416.6056,129589.7185,133475.8523,134243.0808,135009.9015,135777.4796,136544.7928,137295.2847,138062.5054,138829.6931,142658.996,Mapping
Mixed,Male,cave,15,F_knife.wav,None,726.2681513,2190,132725.2705,139597.0696,140364.3207,141114.7724,141881.9934,142649.4776,143416.6056,144183.5533,133475.8523,134243.0808,135009.9015,135777.4796,136544.7928,137295.2847,138062.5054,138829.6931,143426.1468,Mapping
Mixed,Female,cave,23,F_dime.wav,None,724.5095954,2190,147302.8408,139597.0696,140364.3207,141114.7724,141881.9934,142649.4776,143416.6056,144183.5533,133475.8523,134243.0808,135009.9015,135777.4796,136544.7928,137295.2847,138062.5054,138829.6931,144192.8893,Mapping
Mixed,Female,cave,23,F_cave.wav,None,720.8094551,2190,147302.8408,139597.0696,140364.3207,141114.7724,141881.9934,142649.4776,143416.6056,144183.5533,148052.9818,134243.0808,135009.9015,135777.4796,136544.7928,137295.2847,138062.5054,138829.6931,147311.9928,Mapping
Mixed,Female,cave,23,M_cad.wav,space,30.33725443,2190,147302.8408,139597.0696,140364.3207,141114.7724,141881.9934,142649.4776,143416.6056,144183.5533,148052.9818,148820.4807,135009.9015,135777.4796,136544.7928,137295.2847,138062.5054,138829.6931,148062.3675,Mapping
Mixed,Female,cave,23,M_reek.wav,None,732.4567967,2190,147302.8408,139597.0696,140364.3207,141114.7724,141881.9934,142649.4776,143416.6056,144183.5533,148052.9818,148820.4807,149587.4393,135777.4796,136544.7928,137295.2847,138062.5054,138829.6931,148829.7725,Mapping
Mixed,Female,cave,23,F_cave.wav,None,729.4587803,2190,147302.8408,139597.0696,140364.3207,141114.7724,141881.9934,142649.4776,143416.6056,144183.5533,148052.9818,148820.4807,149587.4393,150354.7021,136544.7928,137295.2847,138062.5054,138829.6931,149596.9061,Mapping
Mixed,Female,cave,23,F_park.wav,space,496.1394008,2190,147302.8408,139597.0696,140364.3207,141114.7724,141881.9934,142649.4776,143416.6056,144183.5533,148052.9818,148820.4807,149587.4393,150354.7021,151122.1037,137295.2847,138062.5054,138829.6931,150364.461,Mapping
Mixed,Female,cave,23,M_cling.wav,None,723.2011902,2190,147302.8408,139597.0696,140364.3207,141114.7724,141881.9934,142649.4776,143416.6056,144183.5533,148052.9818,148820.4807,149587.4393,150354.7021,151122.1037,151889.3711,138062.5054,138829.6931,151131.6277,Mapping
Mixed,Female,cave,23,M_depth.wav,space,481.6980948,2190,147302.8408,139597.0696,140364.3207,141114.7724,141881.9934,142649.4776,143416.6056,144183.5533,148052.9818,148820.4807,149587.4393,150354.7021,151122.1037,151889.3711,152639.5211,138829.6931,151898.8812,Mapping
Mixed,Female,cave,23,F_cave.wav,None,734.7730943,2190,147302.8408,139597.0696,140364.3207,141114.7724,141881.9934,142649.4776,143416.6056,144183.5533,148052.9818,148820.4807,149587.4393,150354.7021,151122.1037,151889.3711,152639.5211,153407.0154,152649.0948,Mapping
Mixed,Female,cave,23,M_priest.wav,space,571.91622,2190,147302.8408,154173.9202,140364.3207,141114.7724,141881.9934,142649.4776,143416.6056,144183.5533,148052.9818,148820.4807,149587.4393,150354.7021,151122.1037,151889.3711,152639.5211,153407.0154,153416.6294,Mapping
Mixed,Female,cave,23,M_gnash.wav,None,729.5104116,2190,147302.8408,154173.9202,154941.5657,141114.7724,141881.9934,142649.4776,143416.6056,144183.5533,148052.9818,148820.4807,149587.4393,150354.7021,151122.1037,151889.3711,152639.5211,153407.0154,154182.6202,Mapping
Mixed,Female,cave,23,F_depth.wav,None,725.8581926,2190,147302.8408,154173.9202,154941.5657,155708.3206,141881.9934,142649.4776,143416.6056,144183.5533,148052.9818,148820.4807,149587.4393,150354.7021,151122.1037,151889.3711,152639.5211,153407.0154,154951.0554,Mapping
Mixed,Female,cave,23,M_jaw.wav,None,724.3769617,2190,147302.8408,154173.9202,154941.5657,155708.3206,156475.9952,142649.4776,143416.6056,144183.5533,148052.9818,148820.4807,149587.4393,150354.7021,151122.1037,151889.3711,152639.5211,153407.0154,155717.1643,Mapping
Mixed,Female,cave,23,M_lash.wav,None,720.4121724,2190,147302.8408,154173.9202,154941.5657,155708.3206,156475.9952,157226.1813,143416.6056,144183.5533,148052.9818,148820.4807,149587.4393,150354.7021,151122.1037,151889.3711,152639.5211,153407.0154,156485.4486,Mapping
Mixed,Female,cave,23,F_cave.wav,None,735.3892691,2190,147302.8408,154173.9202,154941.5657,155708.3206,156475.9952,157226.1813,157993.4184,144183.5533,148052.9818,148820.4807,149587.4393,150354.7021,151122.1037,151889.3711,152639.5211,153407.0154,157235.291,Mapping
Mixed,Female,cave,23,F_jaw.wav,space,441.976001,2190,147302.8408,154173.9202,154941.5657,155708.3206,156475.9952,157226.1813,157993.4184,158760.4842,148052.9818,148820.4807,149587.4393,150354.7021,151122.1037,151889.3711,152639.5211,153407.0154,158002.4214,Mapping
Mixed,Male,done,42,F_park.wav,None,729.4371384,2190,161896.606,154173.9202,154941.5657,155708.3206,156475.9952,157226.1813,157993.4184,158760.4842,148052.9818,148820.4807,149587.4393,150354.7021,151122.1037,151889.3711,152639.5211,153407.0154,158769.3324,Mapping
Mixed,Male,done,42,M_done.wav,None,720.8363529,2190,161896.606,154173.9202,154941.5657,155708.3206,156475.9952,157226.1813,157993.4184,158760.4842,162647.0997,148820.4807,149587.4393,150354.7021,151122.1037,151889.3711,152639.5211,153407.0154,161905.9448,Mapping
Mixed,Male,done,42,F_greet.wav,space,707.1410728,2190,161896.606,154173.9202,154941.5657,155708.3206,156475.9952,157226.1813,157993.4184,158760.4842,162647.0997,163414.4148,149587.4393,150354.7021,151122.1037,151889.3711,152639.5211,153407.0154,162657.0278,Mapping
Mixed,Male,done,42,M_greet.wav,None,731.5719536,2190,161896.606,154173.9202,154941.5657,155708.3206,156475.9952,157226.1813,157993.4184,158760.4842,162647.0997,163414.4148,164181.6955,150354.7021,151122.1037,151889.3711,152639.5211,153407.0154,163423.7285,Mapping
Mixed,Male,done,42,M_done.wav,None,729.0744826,2190,161896.606,154173.9202,154941.5657,155708.3206,156475.9952,157226.1813,157993.4184,158760.4842,162647.0997,163414.4148,164181.6955,164948.9907,151122.1037,151889.3711,152639.5211,153407.0154,164190.9629,Mapping
Mixed,Male,done,42,F_cad.wav,space,557.0396034,2190,161896.606,154173.9202,154941.5657,155708.3206,156475.9952,157226.1813,157993.4184,158760.4842,162647.0997,163414.4148,164181.6955,164948.9907,165716.1917,151889.3711,152639.5211,153407.0154,164959.116,Mapping
Mixed,Male,done,42,F_bluff.wav,None,728.9028936,2190,161896.606,154173.9202,154941.5657,155708.3206,156475.9952,157226.1813,157993.4184,158760.4842,162647.0997,163414.4148,164181.6955,164948.9907,165716.1917,166483.3973,152639.5211,153407.0154,165719.74,Mapping
Mixed,Male,done,42,M_park.wav,None,720.4004239,2190,161896.606,154173.9202,154941.5657,155708.3206,156475.9952,157226.1813,157993.4184,158760.4842,162647.0997,163414.4148,164181.6955,164948.9907,165716.1917,166483.3973,167233.921,153407.0154,166492.7283,Mapping
Mixed,Male,done,42,M_done.wav,None,734.5208121,2190,161896.606,154173.9202,154941.5657,155708.3206,156475.9952,157226.1813,157993.4184,158760.4842,162647.0997,163414.4148,164181.6955,164948.9907,165716.1917,166483.3973,167233.921,168000.6437,167243.3918,Mapping
Mixed,Male,done,42,F_cave.wav,space,418.6006248,2190,161896.606,168768.1476,154941.5657,155708.3206,156475.9952,157226.1813,157993.4184,158760.4842,162647.0997,163414.4148,164181.6955,164948.9907,165716.1917,166483.3973,167233.921,168000.6437,168009.4652,Mapping
Mixed,Male,done,42,M_done.wav,None,728.8336396,2190,161896.606,168768.1476,169535.2376,155708.3206,156475.9952,157226.1813,157993.4184,158760.4842,162647.0997,163414.4148,164181.6955,164948.9907,165716.1917,166483.3973,167233.921,168000.6437,168777.7761,Mapping
Mixed,Male,done,42,F_knife.wav,space,627.9621527,2190,161896.606,168768.1476,169535.2376,170302.8129,156475.9952,157226.1813,157993.4184,158760.4842,162647.0997,163414.4148,164181.6955,164948.9907,165716.1917,166483.3973,167233.921,168000.6437,169544.0461,Mapping
Mixed,Male,done,42,F_cave.wav,None,722.3605584,2190,161896.606,168768.1476,169535.2376,170302.8129,171070.0522,157226.1813,157993.4184,158760.4842,162647.0997,163414.4148,164181.6955,164948.9907,165716.1917,166483.3973,167233.921,168000.6437,170312.6248,Mapping
Mixed,Male,done,42,M_tile.wav,None,720.0853803,2190,161896.606,168768.1476,169535.2376,170302.8129,171070.0522,171820.6684,157993.4184,158760.4842,162647.0997,163414.4148,164181.6955,164948.9907,165716.1917,166483.3973,167233.921,168000.6437,171079.2822,Mapping
Mixed,Male,done,42,M_tile.wav,None,733.9414285,2190,161896.606,168768.1476,169535.2376,170302.8129,171070.0522,171820.6684,172587.5284,158760.4842,162647.0997,163414.4148,164181.6955,164948.9907,165716.1917,166483.3973,167233.921,168000.6437,171830.2403,Mapping
Mixed,Male,done,42,F_depth.wav,None,734.0935398,2190,161896.606,168768.1476,169535.2376,170302.8129,171070.0522,171820.6684,172587.5284,173355.0567,162647.0997,163414.4148,164181.6955,164948.9907,165716.1917,166483.3973,167233.921,168000.6437,172596.3601,Mapping
Mixed,Female,tile,32,M_cave.wav,None,729.7493996,2190,176490.6489,168768.1476,169535.2376,170302.8129,171070.0522,171820.6684,172587.5284,173355.0567,162647.0997,163414.4148,164181.6955,164948.9907,165716.1917,166483.3973,167233.921,168000.6437,173365.0169,Mapping
Mixed,Female,tile,32,F_tile.wav,None,717.8151488,2190,176490.6489,168768.1476,169535.2376,170302.8129,171070.0522,171820.6684,172587.5284,173355.0567,177241.0953,163414.4148,164181.6955,164948.9907,165716.1917,166483.3973,167233.921,168000.6437,176502.1345,Mapping
Mixed,Female,tile,32,M_reek.wav,None,734.6494266,2190,176490.6489,168768.1476,169535.2376,170302.8129,171070.0522,171820.6684,172587.5284,173355.0567,177241.0953,178008.3933,164181.6955,164948.9907,165716.1917,166483.3973,167233.921,168000.6437,177250.1193,Mapping
Mixed,Female,tile,32,M_ball.wav,space,42.09960699,2190,176490.6489,168768.1476,169535.2376,170302.8129,171070.0522,171820.6684,172587.5284,173355.0567,177241.0953,178008.3933,178775.781,164948.9907,165716.1917,166483.3973,167233.921,168000.6437,178017.7052,Mapping
Mixed,Female,tile,32,M_depth.wav,None,728.4759305,2190,176490.6489,168768.1476,169535.2376,170302.8129,171070.0522,171820.6684,172587.5284,173355.0567,177241.0953,178008.3933,178775.781,179542.8432,165716.1917,166483.3973,167233.921,168000.6437,178785.4123,Mapping
Mixed,Female,tile,32,F_jolt.wav,None,725.9976281,2190,176490.6489,168768.1476,169535.2376,170302.8129,171070.0522,171820.6684,172587.5284,173355.0567,177241.0953,178008.3933,178775.781,179542.8432,180310.0596,166483.3973,167233.921,168000.6437,179552.5186,Mapping
Mixed,Female,tile,32,F_bluff.wav,None,724.1719823,2190,176490.6489,168768.1476,169535.2376,170302.8129,171070.0522,171820.6684,172587.5284,173355.0567,177241.0953,178008.3933,178775.781,179542.8432,180310.0596,181077.5137,167233.921,168000.6437,180318.8851,Mapping
Mixed,Female,tile,32,M_knife.wav,None,720.6363202,2190,176490.6489,168768.1476,169535.2376,170302.8129,171070.0522,171820.6684,172587.5284,173355.0567,177241.0953,178008.3933,178775.781,179542.8432,180310.0596,181077.5137,181827.6594,168000.6437,181086.8457,Mapping
Mixed,Female,tile,32,F_tile.wav,None,734.8006104,2190,176490.6489,168768.1476,169535.2376,170302.8129,171070.0522,171820.6684,172587.5284,173355.0567,177241.0953,178008.3933,178775.781,179542.8432,180310.0596,181077.5137,181827.6594,182595.257,181837.3667,Mapping
Mixed,Female,tile,32,M_done.wav,space,430.6634901,2190,176490.6489,183362.4428,169535.2376,170302.8129,171070.0522,171820.6684,172587.5284,173355.0567,177241.0953,178008.3933,178775.781,179542.8432,180310.0596,181077.5137,181827.6594,182595.257,182604.9429,Mapping
Mixed,Female,tile,32,M_gnash.wav,None,729.3233641,2190,176490.6489,183362.4428,184129.5544,170302.8129,171070.0522,171820.6684,172587.5284,173355.0567,177241.0953,178008.3933,178775.781,179542.8432,180310.0596,181077.5137,181827.6594,182595.257,183372.0001,Mapping
Mixed,Female,tile,32,F_tile.wav,None,727.4318652,2190,176490.6489,183362.4428,184129.5544,184896.7229,171070.0522,171820.6684,172587.5284,173355.0567,177241.0953,178008.3933,178775.781,179542.8432,180310.0596,181077.5137,181827.6594,182595.257,184138.5444,Mapping
Mixed,Female,tile,32,F_priest.wav,space,561.889854,2190,176490.6489,183362.4428,184129.5544,184896.7229,185664.0583,171820.6684,172587.5284,173355.0567,177241.0953,178008.3933,178775.781,179542.8432,180310.0596,181077.5137,181827.6594,182595.257,184905.6977,Mapping
Mixed,Female,tile,32,F_tile.wav,None,720.4993582,2190,176490.6489,183362.4428,184129.5544,184896.7229,185664.0583,186414.1279,172587.5284,173355.0567,177241.0953,178008.3933,178775.781,179542.8432,180310.0596,181077.5137,181827.6594,182595.257,185673.7767,Mapping
Mixed,Female,tile,32,F_bluff.wav,space,588.1615299,2190,176490.6489,183362.4428,184129.5544,184896.7229,185664.0583,186414.1279,187181.3437,173355.0567,177241.0953,178008.3933,178775.781,179542.8432,180310.0596,181077.5137,181827.6594,182595.257,186423.4057,Mapping
Mixed,Female,tile,32,M_greet.wav,None,732.0527122,2190,176490.6489,183362.4428,184129.5544,184896.7229,185664.0583,186414.1279,187181.3437,187949.1432,177241.0953,178008.3933,178775.781,179542.8432,180310.0596,181077.5137,181827.6594,182595.257,187190.4839,Mapping
Mixed,Female,cave,19,F_bluff.wav,None,729.193822,2190,191084.5523,183362.4428,184129.5544,184896.7229,185664.0583,186414.1279,187181.3437,187949.1432,177241.0953,178008.3933,178775.781,179542.8432,180310.0596,181077.5137,181827.6594,182595.257,187958.3611,Mapping
Mixed,Female,cave,19,F_cave.wav,None,719.648833,2190,191084.5523,183362.4428,184129.5544,184896.7229,185664.0583,186414.1279,187181.3437,187949.1432,191835.2185,178008.3933,178775.781,179542.8432,180310.0596,181077.5137,181827.6594,182595.257,191093.717,Mapping
Mixed,Female,cave,19,F_cad.wav,space,710.4933974,2190,191084.5523,183362.4428,184129.5544,184896.7229,185664.0583,186414.1279,187181.3437,187949.1432,191835.2185,192602.5095,178775.781,179542.8432,180310.0596,181077.5137,181827.6594,182595.257,191844.8482,Mapping
Mixed,Female,cave,19,F_cave.wav,None,729.9138777,2190,191084.5523,183362.4428,184129.5544,184896.7229,185664.0583,186414.1279,187181.3437,187949.1432,191835.2185,192602.5095,193369.5809,179542.8432,180310.0596,181077.5137,181827.6594,182595.257,192611.74,Mapping
Mixed,Female,cave,19,M_jaw.wav,space,488.1600459,2190,191084.5523,183362.4428,184129.5544,184896.7229,185664.0583,186414.1279,187181.3437,187949.1432,191835.2185,192602.5095,193369.5809,194137.4298,180310.0596,181077.5137,181827.6594,182595.257,193379.1902,Mapping
Mixed,Female,cave,19,M_knife.wav,None,723.1715099,2190,191084.5523,183362.4428,184129.5544,184896.7229,185664.0583,186414.1279,187181.3437,187949.1432,191835.2185,192602.5095,193369.5809,194137.4298,194904.1052,181077.5137,181827.6594,182595.257,194147.0036,Mapping
Mixed,Female,cave,19,M_lash.wav,None,720.9668224,2190,191084.5523,183362.4428,184129.5544,184896.7229,185664.0583,186414.1279,187181.3437,187949.1432,191835.2185,192602.5095,193369.5809,194137.4298,194904.1052,195654.3794,181827.6594,182595.257,194913.6697,Mapping
Mixed,Female,cave,19,F_cave.wav,None,735.503971,2190,191084.5523,183362.4428,184129.5544,184896.7229,185664.0583,186414.1279,187181.3437,187949.1432,191835.2185,192602.5095,193369.5809,194137.4298,194904.1052,195654.3794,196421.974,182595.257,195664.1541,Mapping
Mixed,Female,cave,19,M_jaw.wav,space,387.6944985,2190,191084.5523,183362.4428,184129.5544,184896.7229,185664.0583,186414.1279,187181.3437,187949.1432,191835.2185,192602.5095,193369.5809,194137.4298,194904.1052,195654.3794,196421.974,197189.2878,196431.5712,Mapping
Mixed,Female,cave,19,F_done.wav,None,729.8956368,2190,191084.5523,197956.3156,184129.5544,184896.7229,185664.0583,186414.1279,187181.3437,187949.1432,191835.2185,192602.5095,193369.5809,194137.4298,194904.1052,195654.3794,196421.974,197189.2878,197198.5907,Mapping
Mixed,Female,cave,19,M_cling.wav,None,727.6114927,2190,191084.5523,197956.3156,198723.6742,184896.7229,185664.0583,186414.1279,187181.3437,187949.1432,191835.2185,192602.5095,193369.5809,194137.4298,194904.1052,195654.3794,196421.974,197189.2878,197965.8782,Mapping
Mixed,Female,cave,19,M_jolt.wav,None,725.4154619,2190,191084.5523,197956.3156,198723.6742,199490.9166,185664.0583,186414.1279,187181.3437,187949.1432,191835.2185,192602.5095,193369.5809,194137.4298,194904.1052,195654.3794,196421.974,197189.2878,198732.8692,Mapping
Mixed,Female,cave,19,F_cave.wav,None,722.4431066,2190,191084.5523,197956.3156,198723.6742,199490.9166,200257.7781,186414.1279,187181.3437,187949.1432,191835.2185,192602.5095,193369.5809,194137.4298,194904.1052,195654.3794,196421.974,197189.2878,199500.5884,Mapping
Mixed,Female,cave,19,M_depth.wav,space,536.4603558,2190,191084.5523,197956.3156,198723.6742,199490.9166,200257.7781,201008.7173,187181.3437,187949.1432,191835.2185,192602.5095,193369.5809,194137.4298,194904.1052,195654.3794,196421.974,197189.2878,200266.6868,Mapping
Mixed,Female,cave,19,M_jaw.wav,None,733.8372384,2190,191084.5523,197956.3156,198723.6742,199490.9166,200257.7781,201008.7173,201775.8843,187949.1432,191835.2185,192602.5095,193369.5809,194137.4298,194904.1052,195654.3794,196421.974,197189.2878,201017.9776,Mapping
Mixed,Female,cave,19,F_park.wav,None,731.0401821,2190,191084.5523,197956.3156,198723.6742,199490.9166,200257.7781,201008.7173,201775.8843,202543.1335,191835.2185,192602.5095,193369.5809,194137.4298,194904.1052,195654.3794,196421.974,197189.2878,201785.3276,Mapping
Mixed,Female,tile,33,F_depth.wav,None,727.9045854,2190,205678.7834,197956.3156,198723.6742,199490.9166,200257.7781,201008.7173,201775.8843,202543.1335,191835.2185,192602.5095,193369.5809,194137.4298,194904.1052,195654.3794,196421.974,197189.2878,202552.8667,Mapping
Mixed,Female,tile,33,F_tile.wav,None,720.1218623,2190,205678.7834,197956.3156,198723.6742,199490.9166,200257.7781,201008.7173,201775.8843,202543.1335,206429.1798,192602.5095,193369.5809,194137.4298,194904.1052,195654.3794,196421.974,197189.2878,205687.9698,Mapping
Mixed,Female,tile,33,M_depth.wav,None,734.203295,2190,205678.7834,197956.3156,198723.6742,199490.9166,200257.7781,201008.7173,201775.8843,202543.1335,206429.1798,207196.813,193369.5809,194137.4298,194904.1052,195654.3794,196421.974,197189.2878,206438.6181,Mapping
Mixed,Female,tile,33,M_done.wav,space,180.6903878,2190,205678.7834,197956.3156,198723.6742,199490.9166,200257.7781,201008.7173,201775.8843,202543.1335,206429.1798,207196.813,207963.7768,194137.4298,194904.1052,195654.3794,196421.974,197189.2878,207206.2358,Mapping
Mixed,Female,tile,33,M_jolt.wav,None,727.334786,2190,205678.7834,197956.3156,198723.6742,199490.9166,200257.7781,201008.7173,201775.8843,202543.1335,206429.1798,207196.813,207963.7768,208730.9555,194904.1052,195654.3794,196421.974,197189.2878,207974.3525,Mapping
Mixed,Female,tile,33,F_tile.wav,None,725.3193102,2190,205678.7834,197956.3156,198723.6742,199490.9166,200257.7781,201008.7173,201775.8843,202543.1335,206429.1798,207196.813,207963.7768,208730.9555,209498.1611,195654.3794,196421.974,197189.2878,208741.0839,Mapping
Mixed,Female,tile,33,M_cave.wav,space,454.284656,2190,205678.7834,197956.3156,198723.6742,199490.9166,200257.7781,201008.7173,201775.8843,202543.1335,206429.1798,207196.813,207963.7768,208730.9555,209498.1611,210264.9619,196421.974,197189.2878,209507.5901,Mapping
Mixed,Female,tile,33,F_tile.wav,None,721.0237096,2190,205678.7834,197956.3156,198723.6742,199490.9166,200257.7781,201008.7173,201775.8843,202543.1335,206429.1798,207196.813,207963.7768,208730.9555,209498.1611,210264.9619,211015.8524,197189.2878,210274.1059,Mapping
Mixed,Female,tile,33,M_jolt.wav,space,593.2584978,2190,205678.7834,197956.3156,198723.6742,199490.9166,200257.7781,201008.7173,201775.8843,202543.1335,206429.1798,207196.813,207963.7768,208730.9555,209498.1611,210264.9619,211015.8524,211783.057,211025.5652,Mapping
Mixed,Female,tile,33,M_bluff.wav,None,731.0593506,2190,205678.7834,212550.4908,198723.6742,199490.9166,200257.7781,201008.7173,201775.8843,202543.1335,206429.1798,207196.813,207963.7768,208730.9555,209498.1611,210264.9619,211015.8524,211783.057,211792.4493,Mapping
Mixed,Female,tile,33,M_park.wav,None,728.1333708,2190,205678.7834,212550.4908,213317.5294,199490.9166,200257.7781,201008.7173,201775.8843,202543.1335,206429.1798,207196.813,207963.7768,208730.9555,209498.1611,210264.9619,211015.8524,211783.057,212560.0738,Mapping
Mixed,Female,tile,33,F_tile.wav,None,726.4252094,2190,205678.7834,212550.4908,213317.5294,214084.871,200257.7781,201008.7173,201775.8843,202543.1335,206429.1798,207196.813,207963.7768,208730.9555,209498.1611,210264.9619,211015.8524,211783.057,213326.8314,Mapping
Mixed,Female,tile,33,M_done.wav,space,604.2980122,2190,205678.7834,212550.4908,213317.5294,214084.871,214851.6466,201008.7173,201775.8843,202543.1335,206429.1798,207196.813,207963.7768,208730.9555,209498.1611,210264.9619,211015.8524,211783.057,214094.3925,Mapping
Mixed,Female,tile,33,F_bluff.wav,None,721.1078037,2190,205678.7834,212550.4908,213317.5294,214084.871,214851.6466,215602.5138,201775.8843,202543.1335,206429.1798,207196.813,207963.7768,208730.9555,209498.1611,210264.9619,211015.8524,211783.057,214860.9121,Mapping
Mixed,Female,tile,33,F_jaw.wav,None,735.1530636,2190,205678.7834,212550.4908,213317.5294,214084.871,214851.6466,215602.5138,216369.784,202543.1335,206429.1798,207196.813,207963.7768,208730.9555,209498.1611,210264.9619,211015.8524,211783.057,215611.9521,Mapping
Mixed,Female,tile,33,F_bluff.wav,None,732.9258067,2190,205678.7834,212550.4908,213317.5294,214084.871,214851.6466,215602.5138,216369.784,217136.6634,206429.1798,207196.813,207963.7768,208730.9555,209498.1611,210264.9619,211015.8524,211783.057,216378.9258,Mapping
Mixed,Female,done,44,M_cad.wav,None,730.8855974,2190,220256.252,212550.4908,213317.5294,214084.871,214851.6466,215602.5138,216369.784,217136.6634,206429.1798,207196.813,207963.7768,208730.9555,209498.1611,210264.9619,211015.8524,211783.057,217145.7465,Mapping
Mixed,Female,done,44,M_greet.wav,None,735.9810195,2190,220256.252,212550.4908,213317.5294,214084.871,214851.6466,215602.5138,216369.784,217136.6634,221022.8683,207196.813,207963.7768,208730.9555,209498.1611,210264.9619,211015.8524,211783.057,220265.6495,Mapping
Mixed,Female,done,44,F_done.wav,None,734.3300545,2190,220256.252,212550.4908,213317.5294,214084.871,214851.6466,215602.5138,216369.784,217136.6634,221022.8683,221790.4205,207963.7768,208730.9555,209498.1611,210264.9619,211015.8524,211783.057,221032.0488,Mapping
Mixed,Female,done,44,M_bluff.wav,space,506.8524322,2190,220256.252,212550.4908,213317.5294,214084.871,214851.6466,215602.5138,216369.784,217136.6634,221022.8683,221790.4205,222557.2845,208730.9555,209498.1611,210264.9619,211015.8524,211783.057,221799.6365,Mapping
Mixed,Female,done,44,F_bluff.wav,None,728.9603991,2190,220256.252,212550.4908,213317.5294,214084.871,214851.6466,215602.5138,216369.784,217136.6634,221022.8683,221790.4205,222557.2845,223324.9269,209498.1611,210264.9619,211015.8524,211783.057,222566.545,Mapping
Mixed,Female,done,44,F_gnash.wav,None,726.3256569,2190,220256.252,212550.4908,213317.5294,214084.871,214851.6466,215602.5138,216369.784,217136.6634,221022.8683,221790.4205,222557.2845,223324.9269,224092.241,210264.9619,211015.8524,211783.057,223334.3482,Mapping
Mixed,Female,done,44,M_cave.wav,None,723.6318633,2190,220256.252,212550.4908,213317.5294,214084.871,214851.6466,215602.5138,216369.784,217136.6634,221022.8683,221790.4205,222557.2845,223324.9269,224092.241,224859.4979,211015.8524,211783.057,224101.8519,Mapping
Mixed,Female,done,44,F_done.wav,None,720.8845833,2190,220256.252,212550.4908,213317.5294,214084.871,214851.6466,215602.5138,216369.784,217136.6634,221022.8683,221790.4205,222557.2845,223324.9269,224092.241,224859.4979,225609.9302,211783.057,224869.3951,Mapping
Mixed,Female,done,44,M_reek.wav,space,367.0892807,2190,220256.252,212550.4908,213317.5294,214084.871,214851.6466,215602.5138,216369.784,217136.6634,221022.8683,221790.4205,222557.2845,223324.9269,224092.241,224859.4979,225609.9302,226377.0668,225619.3032,Mapping
Mixed,Female,done,44,M_knife.wav,None,732.7396867,2190,220256.252,227144.4647,213317.5294,214084.871,214851.6466,215602.5138,216369.784,217136.6634,221022.8683,221790.4205,222557.2845,223324.9269,224092.241,224859.4979,225609.9302,226377.0668,226386.3781,Mapping
Mixed,Female,done,44,F_done.wav,None,730.5668437,2190,220256.252,227144.4647,227911.6153,214084.871,214851.6466,215602.5138,216369.784,217136.6634,221022.8683,221790.4205,222557.2845,223324.9269,224092.241,224859.4979,225609.9302,226377.0668,227153.7633,Mapping
Mixed,Female,done,44,M_reek.wav,space,641.1819302,2190,220256.252,227144.4647,227911.6153,228678.5571,214851.6466,215602.5138,216369.784,217136.6634,221022.8683,221790.4205,222557.2845,223324.9269,224092.241,224859.4979,225609.9302,226377.0668,227921.1034,Mapping
Mixed,Female,done,44,F_cling.wav,None,725.6770193,2190,220256.252,227144.4647,227911.6153,228678.5571,229446.3449,215602.5138,216369.784,217136.6634,221022.8683,221790.4205,222557.2845,223324.9269,224092.241,224859.4979,225609.9302,226377.0668,228687.434,Mapping
Mixed,Female,done,44,F_cad.wav,None,722.3061446,2190,220256.252,227144.4647,227911.6153,228678.5571,229446.3449,230213.1436,216369.784,217136.6634,221022.8683,221790.4205,222557.2845,223324.9269,224092.241,224859.4979,225609.9302,226377.0668,229455.7248,Mapping
Mixed,Female,done,44,F_done.wav,None,720.3246774,2190,220256.252,227144.4647,227911.6153,228678.5571,229446.3449,230213.1436,230964.026,217136.6634,221022.8683,221790.4205,222557.2845,223324.9269,224092.241,224859.4979,225609.9302,226377.0668,230222.4654,Mapping
Mixed,Female,done,44,M_cling.wav,space,436.4437225,2190,220256.252,227144.4647,227911.6153,228678.5571,229446.3449,230213.1436,230964.026,231731.1611,221022.8683,221790.4205,222557.2845,223324.9269,224092.241,224859.4979,225609.9302,226377.0668,230973.7679,Mapping
Mixed,Male,tile,27,F_priest.wav,None,731.2705134,2190,234866.6976,227144.4647,227911.6153,228678.5571,229446.3449,230213.1436,230964.026,231731.1611,221022.8683,221790.4205,222557.2845,223324.9269,224092.241,224859.4979,225609.9302,226377.0668,231740.6764,Mapping
Mixed,Male,tile,27,M_bluff.wav,None,720.2078113,2190,234866.6976,227144.4647,227911.6153,228678.5571,229446.3449,230213.1436,230964.026,231731.1611,235617.0089,221790.4205,222557.2845,223324.9269,224092.241,224859.4979,225609.9302,226377.0668,234876.0914,Mapping
Mixed,Male,tile,27,M_gnash.wav,None,734.9592144,2190,234866.6976,227144.4647,227911.6153,228678.5571,229446.3449,230213.1436,230964.026,231731.1611,235617.0089,236384.1378,222557.2845,223324.9269,224092.241,224859.4979,225609.9302,226377.0668,235626.3681,Mapping
Mixed,Male,tile,27,M_tile.wav,None,733.1536647,2190,234866.6976,227144.4647,227911.6153,228678.5571,229446.3449,230213.1436,230964.026,231731.1611,235617.0089,236384.1378,237151.3802,223324.9269,224092.241,224859.4979,225609.9302,226377.0668,236393.032,Mapping
Mixed,Male,tile,27,M_knife.wav,space,545.6562926,2190,234866.6976,227144.4647,227911.6153,228678.5571,229446.3449,230213.1436,230964.026,231731.1611,235617.0089,236384.1378,237151.3802,237919.0131,224092.241,224859.4979,225609.9302,226377.0668,237160.3977,Mapping
Mixed,Male,tile,27,F_jolt.wav,None,726.1039824,2190,234866.6976,227144.4647,227911.6153,228678.5571,229446.3449,230213.1436,230964.026,231731.1611,235617.0089,236384.1378,237151.3802,237919.0131,238685.7966,224859.4979,225609.9302,226377.0668,237928.9405,Mapping
Mixed,Male,tile,27,F_cad.wav,None,725.3202377,2190,234866.6976,227144.4647,227911.6153,228678.5571,229446.3449,230213.1436,230964.026,231731.1611,235617.0089,236384.1378,237151.3802,237919.0131,238685.7966,239453.4082,225609.9302,226377.0668,238694.6713,Mapping
Mixed,Male,tile,27,M_tile.wav,None,721.5641378,2190,234866.6976,227144.4647,227911.6153,228678.5571,229446.3449,230213.1436,230964.026,231731.1611,235617.0089,236384.1378,237151.3802,237919.0131,238685.7966,239453.4082,240220.6864,226377.0668,239463.8105,Mapping
Mixed,Male,tile,27,F_cad.wav,space,548.1240833,2190,234866.6976,227144.4647,227911.6153,228678.5571,229446.3449,230213.1436,230964.026,231731.1611,235617.0089,236384.1378,237151.3802,237919.0131,238685.7966,239453.4082,240220.6864,240970.9693,240229.7933,Mapping
Mixed,Male,tile,27,M_tile.wav,None,733.7741678,2190,234866.6976,241738.5542,227911.6153,228678.5571,229446.3449,230213.1436,230964.026,231731.1611,235617.0089,236384.1378,237151.3802,237919.0131,238685.7966,239453.4082,240220.6864,240970.9693,240980.8068,Mapping
Mixed,Male,tile,27,F_dime.wav,space,566.0129381,2190,234866.6976,241738.5542,242506.3936,228678.5571,229446.3449,230213.1436,230964.026,231731.1611,235617.0089,236384.1378,237151.3802,237919.0131,238685.7966,239453.4082,240220.6864,240970.9693,241747.8658,Mapping
Mixed,Male,tile,27,M_tile.wav,None,733.5203396,2190,234866.6976,241738.5542,242506.3936,243272.9345,229446.3449,230213.1436,230964.026,231731.1611,235617.0089,236384.1378,237151.3802,237919.0131,238685.7966,239453.4082,240220.6864,240970.9693,242510.1482,Mapping
Mixed,Male,tile,27,F_reek.wav,space,423.7065586,2190,234866.6976,241738.5542,242506.3936,243272.9345,244040.1948,230213.1436,230964.026,231731.1611,235617.0089,236384.1378,237151.3802,237919.0131,238685.7966,239453.4082,240220.6864,240970.9693,243282.1298,Mapping
Mixed,Male,tile,27,F_park.wav,None,722.4214648,2190,234866.6976,241738.5542,242506.3936,243272.9345,244040.1948,244807.4248,230964.026,231731.1611,235617.0089,236384.1378,237151.3802,237919.0131,238685.7966,239453.4082,240220.6864,240970.9693,244050.1893,Mapping
Mixed,Male,tile,27,F_cad.wav,None,720.9155003,2190,234866.6976,241738.5542,242506.3936,243272.9345,244040.1948,244807.4248,245557.5704,231731.1611,235617.0089,236384.1378,237151.3802,237919.0131,238685.7966,239453.4082,240220.6864,240970.9693,244817.1157,Mapping
Mixed,Male,tile,27,M_dime.wav,None,736.1207641,2190,234866.6976,241738.5542,242506.3936,243272.9345,244040.1948,244807.4248,245557.5704,246324.5772,235617.0089,236384.1378,237151.3802,237919.0131,238685.7966,239453.4082,240220.6864,240970.9693,245566.8947,Mapping
Mixed,Male,ball,3,F_park.wav,None,734.418477,2190,249460.7751,241738.5542,242506.3936,243272.9345,244040.1948,244807.4248,245557.5704,246324.5772,235617.0089,236384.1378,237151.3802,237919.0131,238685.7966,239453.4082,240220.6864,240970.9693,246333.6888,Mapping
Mixed,Male,ball,3,M_ball.wav,None,719.798471,2190,249460.7751,241738.5542,242506.3936,243272.9345,244040.1948,244807.4248,245557.5704,246324.5772,250211.3922,236384.1378,237151.3802,237919.0131,238685.7966,239453.4082,240220.6864,240970.9693,249469.9475,Mapping
Mixed,Male,ball,3,F_bluff.wav,space,540.7711058,2190,249460.7751,241738.5542,242506.3936,243272.9345,244040.1948,244807.4248,245557.5704,246324.5772,250211.3922,250978.7421,237151.3802,237919.0131,238685.7966,239453.4082,240220.6864,240970.9693,250220.8614,Mapping
Mixed,Male,ball,3,M_done.wav,None,730.4533785,2190,249460.7751,241738.5542,242506.3936,243272.9345,244040.1948,244807.4248,245557.5704,246324.5772,250211.3922,250978.7421,251746.1292,237919.0131,238685.7966,239453.4082,240220.6864,240970.9693,250988.2964,Mapping
Mixed,Male,ball,3,F_bluff.wav,None,728.5352911,2190,249460.7751,241738.5542,242506.3936,243272.9345,244040.1948,244807.4248,245557.5704,246324.5772,250211.3922,250978.7421,251746.1292,252512.9922,238685.7966,239453.4082,240220.6864,240970.9693,251755.5397,Mapping
Mixed,Male,ball,3,F_greet.wav,None,726.5346554,2190,249460.7751,241738.5542,242506.3936,243272.9345,244040.1948,244807.4248,245557.5704,246324.5772,250211.3922,250978.7421,251746.1292,252512.9922,253280.281,239453.4082,240220.6864,240970.9693,252522.4899,Mapping
Mixed,Male,ball,3,F_knife.wav,None,724.5194888,2190,249460.7751,241738.5542,242506.3936,243272.9345,244040.1948,244807.4248,245557.5704,246324.5772,250211.3922,250978.7421,251746.1292,252512.9922,253280.281,254047.4677,240220.6864,240970.9693,253289.6921,Mapping
Mixed,Male,ball,3,M_ball.wav,None,722.4270298,2190,249460.7751,241738.5542,242506.3936,243272.9345,244040.1948,244807.4248,245557.5704,246324.5772,250211.3922,250978.7421,251746.1292,252512.9922,253280.281,254047.4677,254814.669,240970.9693,254056.8411,Mapping
Mixed,Male,ball,3,M_gnash.wav,space,481.430354,2190,249460.7751,241738.5542,242506.3936,243272.9345,244040.1948,244807.4248,245557.5704,246324.5772,250211.3922,250978.7421,251746.1292,252512.9922,253280.281,254047.4677,254814.669,255565.7517,254824.0792,Mapping
Mixed,Male,ball,3,M_ball.wav,None,733.7364491,2190,249460.7751,256332.5782,242506.3936,243272.9345,244040.1948,244807.4248,245557.5704,246324.5772,250211.3922,250978.7421,251746.1292,252512.9922,253280.281,254047.4677,254814.669,255565.7517,255574.7222,Mapping
Mixed,Male,ball,3,F_park.wav,space,507.4531485,2190,249460.7751,256332.5782,257099.6197,243272.9345,244040.1948,244807.4248,245557.5704,246324.5772,250211.3922,250978.7421,251746.1292,252512.9922,253280.281,254047.4677,254814.669,255565.7517,256342.0042,Mapping
Mixed,Male,ball,3,F_cling.wav,None,728.3092882,2190,249460.7751,256332.5782,257099.6197,257866.4697,244040.1948,244807.4248,245557.5704,246324.5772,250211.3922,250978.7421,251746.1292,252512.9922,253280.281,254047.4677,254814.669,255565.7517,257108.9699,Mapping
Mixed,Male,ball,3,F_cling.wav,None,726.6876943,2190,249460.7751,256332.5782,257099.6197,257866.4697,258634.182,244807.4248,245557.5704,246324.5772,250211.3922,250978.7421,251746.1292,252512.9922,253280.281,254047.4677,254814.669,255565.7517,257875.6403,Mapping
Mixed,Male,ball,3,M_cave.wav,None,724.0507879,2190,249460.7751,256332.5782,257099.6197,257866.4697,258634.182,259401.4402,245557.5704,246324.5772,250211.3922,250978.7421,251746.1292,252512.9922,253280.281,254047.4677,254814.669,255565.7517,258643.663,Mapping
Mixed,Male,ball,3,M_ball.wav,None,722.1113678,2190,249460.7751,256332.5782,257099.6197,257866.4697,258634.182,259401.4402,260168.4334,246324.5772,250211.3922,250978.7421,251746.1292,252512.9922,253280.281,254047.4677,254814.669,255565.7517,259410.6117,Mapping
Mixed,Male,ball,3,M_greet.wav,space,455.6845754,2190,249460.7751,256332.5782,257099.6197,257866.4697,258634.182,259401.4402,260168.4334,260919.1463,250211.3922,250978.7421,251746.1292,252512.9922,253280.281,254047.4677,254814.669,255565.7517,260177.6577,Mapping
Mixed,Female,tile,31,M_romp.wav,None,732.3893977,2190,264055.2399,256332.5782,257099.6197,257866.4697,258634.182,259401.4402,260168.4334,260919.1463,250211.3922,250978.7421,251746.1292,252512.9922,253280.281,254047.4677,254814.669,255565.7517,260929.0642,Mapping
Mixed,Female,tile,31,M_dime.wav,None,719.9249213,2190,264055.2399,256332.5782,257099.6197,257866.4697,258634.182,259401.4402,260168.4334,260919.1463,264805.1057,250978.7421,251746.1292,252512.9922,253280.281,254047.4677,254814.669,255565.7517,264064.63,Mapping
Mixed,Female,tile,31,F_tile.wav,None,734.7644376,2190,264055.2399,256332.5782,257099.6197,257866.4697,258634.182,259401.4402,260168.4334,260919.1463,264805.1057,265572.6799,251746.1292,252512.9922,253280.281,254047.4677,254814.669,255565.7517,264814.7744,Mapping
Mixed,Female,tile,31,M_priest.wav,space,643.3192187,2190,264055.2399,256332.5782,257099.6197,257866.4697,258634.182,259401.4402,260168.4334,260919.1463,264805.1057,265572.6799,266339.2306,252512.9922,253280.281,254047.4677,254814.669,255565.7517,265581.8304,Mapping
Mixed,Female,tile,31,M_reek.wav,None,730.1726526,2190,264055.2399,256332.5782,257099.6197,257866.4697,258634.182,259401.4402,260168.4334,260919.1463,264805.1057,265572.6799,266339.2306,267107.0218,253280.281,254047.4677,254814.669,255565.7517,266348.0596,Mapping
Mixed,Female,tile,31,M_depth.wav,None,727.3224192,2190,264055.2399,256332.5782,257099.6197,257866.4697,258634.182,259401.4402,260168.4334,260919.1463,264805.1057,265572.6799,266339.2306,267107.0218,267873.9015,254047.4677,254814.669,255565.7517,267116.4478,Mapping
Mixed,Female,tile,31,F_park.wav,None,726.3649214,2190,264055.2399,256332.5782,257099.6197,257866.4697,258634.182,259401.4402,260168.4334,260919.1463,264805.1057,265572.6799,266339.2306,267107.0218,267873.9015,268641.4447,254814.669,255565.7517,267882.7846,Mapping
Mixed,Female,tile,31,F_cad.wav,None,723.6176415,2190,264055.2399,256332.5782,257099.6197,257866.4697,258634.182,259401.4402,260168.4334,260919.1463,264805.1057,265572.6799,266339.2306,267107.0218,267873.9015,268641.4447,269408.7863,255565.7517,268651.0451,Mapping
Mixed,Female,tile,31,M_reek.wav,None,721.7394369,2190,264055.2399,256332.5782,257099.6197,257866.4697,258634.182,259401.4402,260168.4334,260919.1463,264805.1057,265572.6799,266339.2306,267107.0218,267873.9015,268641.4447,269408.7863,270159.3073,269418.007,Mapping
Mixed,Female,tile,31,F_lash.wav,None,735.7788226,2190,264055.2399,270926.0025,257099.6197,257866.4697,258634.182,259401.4402,260168.4334,260919.1463,264805.1057,265572.6799,266339.2306,267107.0218,267873.9015,268641.4447,269408.7863,270159.3073,270169.0248,Mapping
Mixed,Female,tile,31,F_tile.wav,None,734.8210156,2190,264055.2399,270926.0025,271693.384,257866.4697,258634.182,259401.4402,260168.4334,260919.1463,264805.1057,265572.6799,266339.2306,267107.0218,267873.9015,268641.4447,269408.7863,270159.3073,270935.08,Mapping
Mixed,Female,tile,31,F_done.wav,space,618.8614401,2190,264055.2399,270926.0025,271693.384,272460.8718,258634.182,259401.4402,260168.4334,260919.1463,264805.1057,265572.6799,266339.2306,267107.0218,267873.9015,268641.4447,269408.7863,270159.3073,271702.1059,Mapping
Mixed,Female,tile,31,F_tile.wav,None,729.334185,2190,264055.2399,270926.0025,271693.384,272460.8718,273228.0511,259401.4402,260168.4334,260919.1463,264805.1057,265572.6799,266339.2306,267107.0218,267873.9015,268641.4447,269408.7863,270159.3073,272470.2672,Mapping
Mixed,Female,tile,31,M_knife.wav,None,726.9919171,2190,264055.2399,270926.0025,271693.384,272460.8718,273228.0511,273995.0187,260168.4334,260919.1463,264805.1057,265572.6799,266339.2306,267107.0218,267873.9015,268641.4447,269408.7863,270159.3073,273237.773,Mapping
Mixed,Female,tile,31,F_tile.wav,space,123.8535996,2190,264055.2399,270926.0025,271693.384,272460.8718,273228.0511,273995.0187,274762.4026,260919.1463,264805.1057,265572.6799,266339.2306,267107.0218,267873.9015,268641.4447,269408.7863,270159.3073,274005.0793,Mapping
Mixed,Female,tile,31,M_knife.wav,space,621.3245933,2190,264055.2399,270926.0025,271693.384,272460.8718,273228.0511,273995.0187,274762.4026,275529.8509,264805.1057,265572.6799,266339.2306,267107.0218,267873.9015,268641.4447,269408.7863,270159.3073,274771.5887,Mapping
Mixed,Male,tile,26,M_lash.wav,None,719.557628,2190,278648.8314,270926.0025,271693.384,272460.8718,273228.0511,273995.0187,274762.4026,275529.8509,264805.1057,265572.6799,266339.2306,267107.0218,267873.9015,268641.4447,269408.7863,270159.3073,275539.2911,Mapping
Mixed,Male,tile,26,F_greet.wav,None,719.8111469,2190,278648.8314,270926.0025,271693.384,272460.8718,273228.0511,273995.0187,274762.4026,275529.8509,279399.3895,265572.6799,266339.2306,267107.0218,267873.9015,268641.4447,269408.7863,270159.3073,278658.2404,Mapping
Mixed,Male,tile,26,M_tile.wav,None,734.0950857,2190,278648.8314,270926.0025,271693.384,272460.8718,273228.0511,273995.0187,274762.4026,275529.8509,279399.3895,280166.5119,266339.2306,267107.0218,267873.9015,268641.4447,269408.7863,270159.3073,279409.1363,Mapping
Mixed,Male,tile,26,M_dime.wav,space,512.8088912,2190,278648.8314,270926.0025,271693.384,272460.8718,273228.0511,273995.0187,274762.4026,275529.8509,279399.3895,280166.5119,280933.7496,267107.0218,267873.9015,268641.4447,269408.7863,270159.3073,280175.8933,Mapping
Mixed,Male,tile,26,M_tile.wav,None,728.7569656,2190,278648.8314,270926.0025,271693.384,272460.8718,273228.0511,273995.0187,274762.4026,275529.8509,279399.3895,280166.5119,280933.7496,281700.958,267873.9015,268641.4447,269408.7863,270159.3073,280943.5225,Mapping
Mixed,Male,tile,26,F_dime.wav,space,585.9481857,2190,278648.8314,270926.0025,271693.384,272460.8718,273228.0511,273995.0187,274762.4026,275529.8509,279399.3895,280166.5119,280933.7496,281700.958,282468.3775,268641.4447,269408.7863,270159.3073,281710.7052,Mapping
Mixed,Male,tile,26,M_lash.wav,None,723.3953486,2190,278648.8314,270926.0025,271693.384,272460.8718,273228.0511,273995.0187,274762.4026,275529.8509,279399.3895,280166.5119,280933.7496,281700.958,282468.3775,283235.4966,269408.7863,270159.3073,282478.5171,Mapping
Mixed,Male,tile,26,M_tile.wav,None,727.5011192,2190,278648.8314,270926.0025,271693.384,272460.8718,273228.0511,273995.0187,274762.4026,275529.8509,279399.3895,280166.5119,280933.7496,281700.958,282468.3775,283235.4966,284002.7695,270159.3073,283239.6438,Mapping
Mixed,Male,tile,26,F_bluff.wav,space,684.6938233,2190,278648.8314,270926.0025,271693.384,272460.8718,273228.0511,273995.0187,274762.4026,275529.8509,279399.3895,280166.5119,280933.7496,281700.958,282468.3775,283235.4966,284002.7695,284753.2268,284011.9404,Mapping
Mixed,Male,tile,26,F_gnash.wav,None,733.1357328,2190,278648.8314,285520.1631,271693.384,272460.8718,273228.0511,273995.0187,274762.4026,275529.8509,279399.3895,280166.5119,280933.7496,281700.958,282468.3775,283235.4966,284002.7695,284753.2268,284763.0262,Mapping
Mixed,Male,tile,26,M_romp.wav,None,732.6225115,2190,278648.8314,285520.1631,286287.6024,272460.8718,273228.0511,273995.0187,274762.4026,275529.8509,279399.3895,280166.5119,280933.7496,281700.958,282468.3775,283235.4966,284002.7695,284753.2268,285528.997,Mapping
Mixed,Male,tile,26,F_reek.wav,None,729.5447294,2190,278648.8314,285520.1631,286287.6024,287054.9267,273228.0511,273995.0187,274762.4026,275529.8509,279399.3895,280166.5119,280933.7496,281700.958,282468.3775,283235.4966,284002.7695,284753.2268,286297.4504,Mapping
Mixed,Male,tile,26,F_park.wav,None,728.0706094,2190,278648.8314,285520.1631,286287.6024,287054.9267,287821.8794,273995.0187,274762.4026,275529.8509,279399.3895,280166.5119,280933.7496,281700.958,282468.3775,283235.4966,284002.7695,284753.2268,287064.5481,Mapping
Mixed,Male,tile,26,F_jaw.wav,None,719.4692055,2190,278648.8314,285520.1631,286287.6024,287054.9267,287821.8794,288589.0634,274762.4026,275529.8509,279399.3895,280166.5119,280933.7496,281700.958,282468.3775,283235.4966,284002.7695,284753.2268,287838.5007,Mapping
Mixed,Male,tile,26,M_tile.wav,None,724.9962281,2190,278648.8314,285520.1631,286287.6024,287054.9267,287821.8794,288589.0634,289356.9723,275529.8509,279399.3895,280166.5119,280933.7496,281700.958,282468.3775,283235.4966,284002.7695,284753.2268,288598.2497,Mapping
Mixed,Male,tile,26,F_depth.wav,space,489.9761074,2190,278648.8314,285520.1631,286287.6024,287054.9267,287821.8794,288589.0634,289356.9723,290107.3189,279399.3895,280166.5119,280933.7496,281700.958,282468.3775,283235.4966,284002.7695,284753.2268,289366.4898,Mapping
Mixed,Female,ball,7,M_cave.wav,None,735.597031,2190,293242.7456,285520.1631,286287.6024,287054.9267,287821.8794,288589.0634,289356.9723,290107.3189,279399.3895,280166.5119,280933.7496,281700.958,282468.3775,283235.4966,284002.7695,284753.2268,290117.2275,Mapping
Mixed,Female,ball,7,F_jaw.wav,None,719.9740792,2190,293242.7456,285520.1631,286287.6024,287054.9267,287821.8794,288589.0634,289356.9723,290107.3189,293993.9035,280166.5119,280933.7496,281700.958,282468.3775,283235.4966,284002.7695,284753.2268,293252.6196,Mapping
Mixed,Female,ball,7,M_cling.wav,None,733.1026517,2190,293242.7456,285520.1631,286287.6024,287054.9267,287821.8794,288589.0634,289356.9723,290107.3189,293993.9035,294760.8163,280933.7496,281700.958,282468.3775,283235.4966,284002.7695,284753.2268,294004.6654,Mapping
Mixed,Female,ball,7,F_knife.wav,None,732.2632566,2190,293242.7456,285520.1631,286287.6024,287054.9267,287821.8794,288589.0634,289356.9723,290107.3189,293993.9035,294760.8163,295527.879,281700.958,282468.3775,283235.4966,284002.7695,284753.2268,294770.6958,Mapping
Mixed,Female,ball,7,F_ball.wav,None,730.478112,2190,293242.7456,285520.1631,286287.6024,287054.9267,287821.8794,288589.0634,289356.9723,290107.3189,293993.9035,294760.8163,295527.879,296295.2021,282468.3775,283235.4966,284002.7695,284753.2268,295537.5672,Mapping
Mixed,Female,ball,7,M_jolt.wav,space,495.3432894,2190,293242.7456,285520.1631,286287.6024,287054.9267,287821.8794,288589.0634,289356.9723,290107.3189,293993.9035,294760.8163,295527.879,296295.2021,297062.7218,283235.4966,284002.7695,284753.2268,296304.9116,Mapping
Mixed,Female,ball,7,M_park.wav,None,725.4494706,2190,293242.7456,285520.1631,286287.6024,287054.9267,287821.8794,288589.0634,289356.9723,290107.3189,293993.9035,294760.8163,295527.879,296295.2021,297062.7218,297829.5079,284002.7695,284753.2268,297071.8918,Mapping
Mixed,Female,ball,7,F_done.wav,None,723.4092612,2190,293242.7456,285520.1631,286287.6024,287054.9267,287821.8794,288589.0634,289356.9723,290107.3189,293993.9035,294760.8163,295527.879,296295.2021,297062.7218,297829.5079,298596.8461,284753.2268,297839.4263,Mapping
Mixed,Female,ball,7,M_lash.wav,None,721.6204067,2190,293242.7456,285520.1631,286287.6024,287054.9267,287821.8794,288589.0634,289356.9723,290107.3189,293993.9035,294760.8163,295527.879,296295.2021,297062.7218,297829.5079,298596.8461,299363.6708,298606.3175,Mapping
Mixed,Female,ball,7,M_gnash.wav,None,719.796616,2190,293242.7456,300114.3921,286287.6024,287054.9267,287821.8794,288589.0634,289356.9723,290107.3189,293993.9035,294760.8163,295527.879,296295.2021,297062.7218,297829.5079,298596.8461,299363.6708,299374.4515,Mapping
Mixed,Female,ball,7,F_ball.wav,None,735.5438538,2190,293242.7456,300114.3921,300881.8033,287054.9267,287821.8794,288589.0634,289356.9723,290107.3189,293993.9035,294760.8163,295527.879,296295.2021,297062.7218,297829.5079,298596.8461,299363.6708,300123.9562,Mapping
Mixed,Female,ball,7,F_cad.wav,space,492.5524166,2190,293242.7456,300114.3921,300881.8033,301649.0225,287821.8794,288589.0634,289356.9723,290107.3189,293993.9035,294760.8163,295527.879,296295.2021,297062.7218,297829.5079,298596.8461,299363.6708,300891.5848,Mapping
Mixed,Female,ball,7,F_ball.wav,None,729.8962551,2190,293242.7456,300114.3921,300881.8033,301649.0225,302415.8762,288589.0634,289356.9723,290107.3189,293993.9035,294760.8163,295527.879,296295.2021,297062.7218,297829.5079,298596.8461,299363.6708,301658.842,Mapping
Mixed,Female,ball,7,M_cad.wav,None,728.9835868,2190,293242.7456,300114.3921,300881.8033,301649.0225,302415.8762,303183.1304,289356.9723,290107.3189,293993.9035,294760.8163,295527.879,296295.2021,297062.7218,297829.5079,298596.8461,299363.6708,302424.998,Mapping
Mixed,Female,ball,7,F_ball.wav,space,78.5853147,2190,293242.7456,300114.3921,300881.8033,301649.0225,302415.8762,303183.1304,303950.7406,290107.3189,293993.9035,294760.8163,295527.879,296295.2021,297062.7218,297829.5079,298596.8461,299363.6708,303192.4787,Mapping
Mixed,Female,ball,7,M_done.wav,space,543.2429157,2190,293242.7456,300114.3921,300881.8033,301649.0225,302415.8762,303183.1304,303950.7406,304718.0303,293993.9035,294760.8163,295527.879,296295.2021,297062.7218,297829.5079,298596.8461,299363.6708,303960.7438,Mapping
Mixed,Male,cave,14,F_lash.wav,None,720.165146,2190,307836.6144,300114.3921,300881.8033,301649.0225,302415.8762,303183.1304,303950.7406,304718.0303,293993.9035,294760.8163,295527.879,296295.2021,297062.7218,297829.5079,298596.8461,299363.6708,304727.545,Mapping
Mixed,Male,cave,14,F_knife.wav,None,720.6956808,2190,307836.6144,300114.3921,300881.8033,301649.0225,302415.8762,303183.1304,303950.7406,304718.0303,308587.1648,294760.8163,295527.879,296295.2021,297062.7218,297829.5079,298596.8461,299363.6708,307846.046,Mapping
Mixed,Male,cave,14,M_cave.wav,None,735.471199,2190,307836.6144,300114.3921,300881.8033,301649.0225,302415.8762,303183.1304,303950.7406,304718.0303,308587.1648,309355.0892,295527.879,296295.2021,297062.7218,297829.5079,298596.8461,299363.6708,308596.5239,Mapping
Mixed,Male,cave,14,F_done.wav,space,483.3264904,2190,307836.6144,300114.3921,300881.8033,301649.0225,302415.8762,303183.1304,303950.7406,304718.0303,308587.1648,309355.0892,310121.9689,296295.2021,297062.7218,297829.5079,298596.8461,299363.6708,309364.5587,Mapping
Mixed,Male,cave,14,F_cling.wav,None,729.7812441,2190,307836.6144,300114.3921,300881.8033,301649.0225,302415.8762,303183.1304,303950.7406,304718.0303,308587.1648,309355.0892,310121.9689,310888.9482,297062.7218,297829.5079,298596.8461,299363.6708,310131.5513,Mapping
Mixed,Male,cave,14,F_cling.wav,None,727.5991259,2190,307836.6144,300114.3921,300881.8033,301649.0225,302415.8762,303183.1304,303950.7406,304718.0303,308587.1648,309355.0892,310121.9689,310888.9482,311656.4926,297829.5079,298596.8461,299363.6708,310898.9962,Mapping
Mixed,Male,cave,14,M_cave.wav,None,726.2625863,2190,307836.6144,300114.3921,300881.8033,301649.0225,302415.8762,303183.1304,303950.7406,304718.0303,308587.1648,309355.0892,310121.9689,310888.9482,311656.4926,312424.0751,298596.8461,299363.6708,311665.9133,Mapping
Mixed,Male,cave,14,M_priest.wav,space,589.9633696,2190,307836.6144,300114.3921,300881.8033,301649.0225,302415.8762,303183.1304,303950.7406,304718.0303,308587.1648,309355.0892,310121.9689,310888.9482,311656.4926,312424.0751,313190.8423,299363.6708,312433.8009,Mapping
Mixed,Male,cave,14,M_jaw.wav,None,720.4248483,2190,307836.6144,300114.3921,300881.8033,301649.0225,302415.8762,303183.1304,303950.7406,304718.0303,308587.1648,309355.0892,310121.9689,310888.9482,311656.4926,312424.0751,313190.8423,313941.3453,313201.0127,Mapping
Mixed,Male,cave,14,F_cad.wav,None,734.7254822,2190,307836.6144,314708.127,300881.8033,301649.0225,302415.8762,303183.1304,303950.7406,304718.0303,308587.1648,309355.0892,310121.9689,310888.9482,311656.4926,312424.0751,313190.8423,313941.3453,313952.0327,Mapping
Mixed,Male,cave,14,M_cave.wav,None,734.8160689,2190,307836.6144,314708.127,315475.7385,301649.0225,302415.8762,303183.1304,303950.7406,304718.0303,308587.1648,309355.0892,310121.9689,310888.9482,311656.4926,312424.0751,313190.8423,313941.3453,314717.659,Mapping
Mixed,Male,cave,14,F_cling.wav,space,577.9360588,2190,307836.6144,314708.127,315475.7385,316242.7317,302415.8762,303183.1304,303950.7406,304718.0303,308587.1648,309355.0892,310121.9689,310888.9482,311656.4926,312424.0751,313190.8423,313941.3453,315485.7324,Mapping
Mixed,Male,cave,14,M_done.wav,None,729.2000054,2190,307836.6144,314708.127,315475.7385,316242.7317,317010.3516,303183.1304,303950.7406,304718.0303,308587.1648,309355.0892,310121.9689,310888.9482,311656.4926,312424.0751,313190.8423,313941.3453,316252.4567,Mapping
Mixed,Male,cave,14,M_cave.wav,None,727.6464288,2190,307836.6144,314708.127,315475.7385,316242.7317,317010.3516,317777.4029,303950.7406,304718.0303,308587.1648,309355.0892,310121.9689,310888.9482,311656.4926,312424.0751,313190.8423,313941.3453,317019.8137,Mapping
Mixed,Male,cave,14,F_jaw.wav,None,725.8674677,2190,307836.6144,314708.127,315475.7385,316242.7317,317010.3516,317777.4029,318544.3513,304718.0303,308587.1648,309355.0892,310121.9689,310888.9482,311656.4926,312424.0751,313190.8423,313941.3453,317787.0128,Mapping
Mixed,Male,cave,14,M_jolt.wav,space,0.01978685,2190,307836.6144,314708.127,315475.7385,316242.7317,317010.3516,317777.4029,318544.3513,319311.7467,308587.1648,309355.0892,310121.9689,310888.9482,311656.4926,312424.0751,313190.8423,313941.3453,318553.6709,Mapping
Mixed,Female,done,46,F_greet.wav,None,720.8923126,2190,322430.827,314708.127,315475.7385,316242.7317,317010.3516,317777.4029,318544.3513,319311.7467,308587.1648,309355.0892,310121.9689,310888.9482,311656.4926,312424.0751,313190.8423,313941.3453,319321.1581,Mapping
Mixed,Female,done,46,M_depth.wav,None,719.8902943,2190,322430.827,314708.127,315475.7385,316242.7317,317010.3516,317777.4029,318544.3513,319311.7467,323181.3245,309355.0892,310121.9689,310888.9482,311656.4926,312424.0751,313190.8423,313941.3453,322440.488,Mapping
Mixed,Female,done,46,M_jaw.wav,space,136.1968816,2190,322430.827,314708.127,315475.7385,316242.7317,317010.3516,317777.4029,318544.3513,319311.7467,323181.3245,323948.7375,310121.9689,310888.9482,311656.4926,312424.0751,313190.8423,313941.3453,323191.2649,Mapping
Mixed,Female,done,46,F_done.wav,None,730.8781773,2190,322430.827,314708.127,315475.7385,316242.7317,317010.3516,317777.4029,318544.3513,319311.7467,323181.3245,323948.7375,324715.9447,310888.9482,311656.4926,312424.0751,313190.8423,313941.3453,323958.6563,Mapping
Mixed,Female,done,46,M_dime.wav,space,409.7555953,2190,322430.827,314708.127,315475.7385,316242.7317,317010.3516,317777.4029,318544.3513,319311.7467,323181.3245,323948.7375,324715.9447,325483.1874,311656.4926,312424.0751,313190.8423,313941.3453,324725.6684,Mapping
Mixed,Female,done,46,M_jaw.wav,None,725.9459967,2190,322430.827,314708.127,315475.7385,316242.7317,317010.3516,317777.4029,318544.3513,319311.7467,323181.3245,323948.7375,324715.9447,325483.1874,326250.4399,312424.0751,313190.8423,313941.3453,325493.006,Mapping
Mixed,Female,done,46,M_cad.wav,None,724.5040303,2190,322430.827,314708.127,315475.7385,316242.7317,317010.3516,317777.4029,318544.3513,319311.7467,323181.3245,323948.7375,324715.9447,325483.1874,326250.4399,327017.5741,313190.8423,313941.3453,326260.4787,Mapping
Mixed,Female,done,46,M_jolt.wav,None,723.3517557,2190,322430.827,314708.127,315475.7385,316242.7317,317010.3516,317777.4029,318544.3513,319311.7467,323181.3245,323948.7375,324715.9447,325483.1874,326250.4399,327017.5741,327784.754,313941.3453,327027.3482,Mapping
Mixed,Female,done,46,F_done.wav,space,84.73809635,2190,322430.827,314708.127,315475.7385,316242.7317,317010.3516,317777.4029,318544.3513,319311.7467,323181.3245,323948.7375,324715.9447,325483.1874,326250.4399,327017.5741,327784.754,328535.1625,327794.6033,Mapping
Mixed,Female,done,46,M_greet.wav,None,735.2025307,2190,322430.827,329302.0963,315475.7385,316242.7317,317010.3516,317777.4029,318544.3513,319311.7467,323181.3245,323948.7375,324715.9447,325483.1874,326250.4399,327017.5741,327784.754,328535.1625,328544.7211,Mapping
Mixed,Female,done,46,F_done.wav,None,734.5579124,2190,322430.827,329302.0963,330069.8401,316242.7317,317010.3516,317777.4029,318544.3513,319311.7467,323181.3245,323948.7375,324715.9447,325483.1874,326250.4399,327017.5741,327784.754,328535.1625,329311.3977,Mapping
Mixed,Female,done,46,M_jaw.wav,space,407.8848109,2190,322430.827,329302.0963,330069.8401,330836.322,317010.3516,317777.4029,318544.3513,319311.7467,323181.3245,323948.7375,324715.9447,325483.1874,326250.4399,327017.5741,327784.754,328535.1625,330079.3258,Mapping
Mixed,Female,done,46,F_jolt.wav,None,730.8741581,2190,322430.827,329302.0963,330069.8401,330836.322,331604.2507,317777.4029,318544.3513,319311.7467,323181.3245,323948.7375,324715.9447,325483.1874,326250.4399,327017.5741,327784.754,328535.1625,330845.4193,Mapping
Mixed,Female,done,46,F_done.wav,None,727.9676559,2190,322430.827,329302.0963,330069.8401,330836.322,331604.2507,332371.2825,318544.3513,319311.7467,323181.3245,323948.7375,324715.9447,325483.1874,326250.4399,327017.5741,327784.754,328535.1625,331613.9385,Mapping
Mixed,Female,done,46,F_greet.wav,space,610.1657396,2190,322430.827,329302.0963,330069.8401,330836.322,331604.2507,332371.2825,333138.767,319311.7467,323181.3245,323948.7375,324715.9447,325483.1874,326250.4399,327017.5741,327784.754,328535.1625,332380.958,Mapping
Mixed,Female,done,46,F_tile.wav,None,722.7763913,2190,322430.827,329302.0963,330069.8401,330836.322,331604.2507,332371.2825,333138.767,333905.8839,323181.3245,323948.7375,324715.9447,325483.1874,326250.4399,327017.5741,327784.754,328535.1625,333148.8592,Mapping
Mixed,Male,cave,16,M_park.wav,None,721.1445948,2190,337024.941,329302.0963,330069.8401,330836.322,331604.2507,332371.2825,333138.767,333905.8839,323181.3245,323948.7375,324715.9447,325483.1874,326250.4399,327017.5741,327784.754,328535.1625,333915.8187,Mapping
Mixed,Male,cave,16,F_lash.wav,None,720.3271508,2190,337024.941,329302.0963,330069.8401,330836.322,331604.2507,332371.2825,333138.767,333905.8839,337775.201,323948.7375,324715.9447,325483.1874,326250.4399,327017.5741,327784.754,328535.1625,337034.3478,Mapping
Mixed,Male,cave,16,F_greet.wav,None,734.4515581,2190,337024.941,329302.0963,330069.8401,330836.322,331604.2507,332371.2825,333138.767,333905.8839,337775.201,338542.8527,324715.9447,325483.1874,326250.4399,327017.5741,327784.754,328535.1625,337785.8012,Mapping
Mixed,Male,cave,16,M_cave.wav,None,732.9341543,2190,337024.941,329302.0963,330069.8401,330836.322,331604.2507,332371.2825,333138.767,333905.8839,337775.201,338542.8527,339310.0664,325483.1874,326250.4399,327017.5741,327784.754,328535.1625,338552.7171,Mapping
Mixed,Male,cave,16,M_lash.wav,space,383.3664351,2190,337024.941,329302.0963,330069.8401,330836.322,331604.2507,332371.2825,333138.767,333905.8839,337775.201,338542.8527,339310.0664,340077.0868,326250.4399,327017.5741,327784.754,328535.1625,339319.6086,Mapping
Mixed,Male,cave,16,F_dime.wav,None,728.7071893,2190,337024.941,329302.0963,330069.8401,330836.322,331604.2507,332371.2825,333138.767,333905.8839,337775.201,338542.8527,339310.0664,340077.0868,340844.0441,327017.5741,327784.754,328535.1625,340086.7264,Mapping
Mixed,Male,cave,16,F_cling.wav,None,727.4463962,2190,337024.941,329302.0963,330069.8401,330836.322,331604.2507,332371.2825,333138.767,333905.8839,337775.201,338542.8527,339310.0664,340077.0868,340844.0441,341611.3335,327784.754,328535.1625,340853.3696,Mapping
Mixed,Male,cave,16,M_cave.wav,None,725.5388206,2190,337024.941,329302.0963,330069.8401,330836.322,331604.2507,332371.2825,333138.767,333905.8839,337775.201,338542.8527,339310.0664,340077.0868,340844.0441,341611.3335,342379.0068,328535.1625,341620.7681,Mapping
Mixed,Male,cave,16,F_jolt.wav,space,698.7795844,2190,337024.941,329302.0963,330069.8401,330836.322,331604.2507,332371.2825,333138.767,333905.8839,337775.201,338542.8527,339310.0664,340077.0868,340844.0441,341611.3335,342379.0068,343145.8615,342388.0853,Mapping
Mixed,Male,cave,16,M_done.wav,None,720.8202761,2190,337024.941,343896.3794,330069.8401,330836.322,331604.2507,332371.2825,333138.767,333905.8839,337775.201,338542.8527,339310.0664,340077.0868,340844.0441,341611.3335,342379.0068,343145.8615,343155.1304,Mapping
Mixed,Male,cave,16,F_cad.wav,None,735.1465711,2190,337024.941,343896.3794,344663.8694,330836.322,331604.2507,332371.2825,333138.767,333905.8839,337775.201,338542.8527,339310.0664,340077.0868,340844.0441,341611.3335,342379.0068,343145.8615,343906.1191,Mapping
Mixed,Male,cave,16,M_cave.wav,None,733.4000727,2190,337024.941,343896.3794,344663.8694,345431.0413,331604.2507,332371.2825,333138.767,333905.8839,337775.201,338542.8527,339310.0664,340077.0868,340844.0441,341611.3335,342379.0068,343145.8615,344673.467,Mapping
Mixed,Male,cave,16,M_gnash.wav,None,732.178235,2190,337024.941,343896.3794,344663.8694,345431.0413,346198.2546,332371.2825,333138.767,333905.8839,337775.201,338542.8527,339310.0664,340077.0868,340844.0441,341611.3335,342379.0068,343145.8615,345440.3015,Mapping
Mixed,Male,cave,16,F_cad.wav,space,542.8648014,2190,337024.941,343896.3794,344663.8694,345431.0413,346198.2546,346965.5697,333138.767,333905.8839,337775.201,338542.8527,339310.0664,340077.0868,340844.0441,341611.3335,342379.0068,343145.8615,346207.8825,Mapping
Mixed,Male,cave,16,M_cave.wav,None,726.3210193,2190,337024.941,343896.3794,344663.8694,345431.0413,346198.2546,346965.5697,347732.7882,333905.8839,337775.201,338542.8527,339310.0664,340077.0868,340844.0441,341611.3335,342379.0068,343145.8615,346975.8579,Mapping
Mixed,Male,cave,16,F_romp.wav,space,512.3404995,2190,337024.941,343896.3794,344663.8694,345431.0413,346198.2546,346965.5697,347732.7882,348499.8092,337775.201,338542.8527,339310.0664,340077.0868,340844.0441,341611.3335,342379.0068,343145.8615,347742.3762,Mapping
Mixed,Female,cave,22,M_jolt.wav,None,721.230544,2190,351618.7934,343896.3794,344663.8694,345431.0413,346198.2546,346965.5697,347732.7882,348499.8092,337775.201,338542.8527,339310.0664,340077.0868,340844.0441,341611.3335,342379.0068,343145.8615,348509.989,Mapping
Mixed,Female,cave,22,F_cling.wav,None,720.3831104,2190,351618.7934,343896.3794,344663.8694,345431.0413,346198.2546,346965.5697,347732.7882,348499.8092,352368.9474,338542.8527,339310.0664,340077.0868,340844.0441,341611.3335,342379.0068,343145.8615,351628.2141,Mapping
Mixed,Female,cave,22,F_cave.wav,None,736.3183234,2190,351618.7934,343896.3794,344663.8694,345431.0413,346198.2546,346965.5697,347732.7882,348499.8092,352368.9474,353136.5911,339310.0664,340077.0868,340844.0441,341611.3335,342379.0068,343145.8615,352377.8985,Mapping
Mixed,Female,cave,22,M_jolt.wav,space,492.1690465,2190,351618.7934,343896.3794,344663.8694,345431.0413,346198.2546,346965.5697,347732.7882,348499.8092,352368.9474,353136.5911,353904.0239,340077.0868,340844.0441,341611.3335,342379.0068,343145.8615,353146.3874,Mapping
Mixed,Female,cave,22,M_dime.wav,None,730.5826113,2190,351618.7934,343896.3794,344663.8694,345431.0413,346198.2546,346965.5697,347732.7882,348499.8092,352368.9474,353136.5911,353904.0239,354671.3488,340844.0441,341611.3335,342379.0068,343145.8615,353913.8258,Mapping
Mixed,Female,cave,22,M_gnash.wav,None,728.3432968,2190,351618.7934,343896.3794,344663.8694,345431.0413,346198.2546,346965.5697,347732.7882,348499.8092,352368.9474,353136.5911,353904.0239,354671.3488,355438.0678,341611.3335,342379.0068,343145.8615,354681.5527,Mapping
Mixed,Female,cave,22,F_done.wav,None,728.217774,2190,351618.7934,343896.3794,344663.8694,345431.0413,346198.2546,346965.5697,347732.7882,348499.8092,352368.9474,353136.5911,353904.0239,354671.3488,355438.0678,356205.5606,342379.0068,343145.8615,355447.2031,Mapping
Mixed,Female,cave,22,F_cave.wav,None,726.6914043,2190,351618.7934,343896.3794,344663.8694,345431.0413,346198.2546,346965.5697,347732.7882,348499.8092,352368.9474,353136.5911,353904.0239,354671.3488,355438.0678,356205.5606,356973.067,343145.8615,356214.7046,Mapping
Mixed,Female,cave,22,M_ball.wav,space,575.6525331,2190,351618.7934,343896.3794,344663.8694,345431.0413,346198.2546,346965.5697,347732.7882,348499.8092,352368.9474,353136.5911,353904.0239,354671.3488,355438.0678,356205.5606,356973.067,357740.1165,356982.7833,Mapping
Mixed,Female,cave,22,M_reek.wav,None,721.2348723,2190,351618.7934,358507.4331,344663.8694,345431.0413,346198.2546,346965.5697,347732.7882,348499.8092,352368.9474,353136.5911,353904.0239,354671.3488,355438.0678,356205.5606,356973.067,357740.1165,357749.6772,Mapping
Mixed,Female,cave,22,F_cave.wav,space,648.8808684,2190,351618.7934,358507.4331,359257.9562,345431.0413,346198.2546,346965.5697,347732.7882,348499.8092,352368.9474,353136.5911,353904.0239,354671.3488,355438.0678,356205.5606,356973.067,357740.1165,358517.5219,Mapping
Mixed,Female,cave,22,F_lash.wav,None,733.1310953,2190,351618.7934,358507.4331,359257.9562,360025.0885,346198.2546,346965.5697,347732.7882,348499.8092,352368.9474,353136.5911,353904.0239,354671.3488,355438.0678,356205.5606,356973.067,357740.1165,359267.6517,Mapping
Mixed,Female,cave,22,M_reek.wav,None,731.8786497,2190,351618.7934,358507.4331,359257.9562,360025.0885,360792.8323,346965.5697,347732.7882,348499.8092,352368.9474,353136.5911,353904.0239,354671.3488,355438.0678,356205.5606,356973.067,357740.1165,360034.7389,Mapping
Mixed,Female,cave,22,F_cave.wav,None,729.6053266,2190,351618.7934,358507.4331,359257.9562,360025.0885,360792.8323,361559.564,347732.7882,348499.8092,352368.9474,353136.5911,353904.0239,354671.3488,355438.0678,356205.5606,356973.067,357740.1165,360802.6101,Mapping
Mixed,Female,cave,22,F_cad.wav,space,660.687123,2190,351618.7934,358507.4331,359257.9562,360025.0885,360792.8323,361559.564,362326.7931,348499.8092,352368.9474,353136.5911,353904.0239,354671.3488,355438.0678,356205.5606,356973.067,357740.1165,361569.561,Mapping
Mixed,Female,cave,22,M_bluff.wav,None,725.683821,2190,351618.7934,358507.4331,359257.9562,360025.0885,360792.8323,361559.564,362326.7931,363093.6592,352368.9474,353136.5911,353904.0239,354671.3488,355438.0678,356205.5606,356973.067,357740.1165,362336.1117,Mapping
Mixed,Female,tile,35,M_depth.wav,None,725.5913794,2190,366212.8796,358507.4331,359257.9562,360025.0885,360792.8323,361559.564,362326.7931,363093.6592,352368.9474,353136.5911,353904.0239,354671.3488,355438.0678,356205.5606,356973.067,357740.1165,363102.6313,Mapping
Mixed,Female,tile,35,M_priest.wav,None,720.0841436,2190,366212.8796,358507.4331,359257.9562,360025.0885,360792.8323,361559.564,362326.7931,363093.6592,366962.9476,353136.5911,353904.0239,354671.3488,355438.0678,356205.5606,356973.067,357740.1165,366222.5117,Mapping
Mixed,Female,tile,35,M_romp.wav,None,735.7377031,2190,366212.8796,358507.4331,359257.9562,360025.0885,360792.8323,361559.564,362326.7931,363093.6592,366962.9476,367730.7421,353904.0239,354671.3488,355438.0678,356205.5606,356973.067,357740.1165,366972.3745,Mapping
Mixed,Female,tile,35,M_gnash.wav,None,733.3886335,2190,366212.8796,358507.4331,359257.9562,360025.0885,360792.8323,361559.564,362326.7931,363093.6592,366962.9476,367730.7421,368497.6825,354671.3488,355438.0678,356205.5606,356973.067,357740.1165,367740.7132,Mapping
Mixed,Female,tile,35,F_tile.wav,None,733.174379,2190,366212.8796,358507.4331,359257.9562,360025.0885,360792.8323,361559.564,362326.7931,363093.6592,366962.9476,367730.7421,368497.6825,369265.1737,355438.0678,356205.5606,356973.067,357740.1165,368506.8558,Mapping
Mixed,Female,tile,35,M_dime.wav,space,443.1227106,2190,366212.8796,358507.4331,359257.9562,360025.0885,360792.8323,361559.564,362326.7931,363093.6592,366962.9476,367730.7421,368497.6825,369265.1737,370031.9462,356205.5606,356973.067,357740.1165,369274.9181,Mapping
Mixed,Female,tile,35,M_greet.wav,None,728.5983616,2190,366212.8796,358507.4331,359257.9562,360025.0885,360792.8323,361559.564,362326.7931,363093.6592,366962.9476,367730.7421,368497.6825,369265.1737,370031.9462,370799.7058,356973.067,357740.1165,370040.9495,Mapping
Mixed,Female,tile,35,F_done.wav,None,725.7843011,2190,366212.8796,358507.4331,359257.9562,360025.0885,360792.8323,361559.564,362326.7931,363093.6592,366962.9476,367730.7421,368497.6825,369265.1737,370031.9462,370799.7058,371566.9809,357740.1165,370809.6292,Mapping
Mixed,Female,tile,35,F_tile.wav,space,580.9566446,2190,366212.8796,358507.4331,359257.9562,360025.0885,360792.8323,361559.564,362326.7931,363093.6592,366962.9476,367730.7421,368497.6825,369265.1737,370031.9462,370799.7058,371566.9809,372334.2329,371577.0469,Mapping
Mixed,Female,tile,35,F_bluff.wav,None,721.309073,2190,366212.8796,373101.1148,359257.9562,360025.0885,360792.8323,361559.564,362326.7931,363093.6592,366962.9476,367730.7421,368497.6825,369265.1737,370031.9462,370799.7058,371566.9809,372334.2329,372343.9903,Mapping
Mixed,Female,tile,35,F_tile.wav,None,720.7479304,2190,366212.8796,373101.1148,373868.6243,360025.0885,360792.8323,361559.564,362326.7931,363093.6592,366962.9476,367730.7421,368497.6825,369265.1737,370031.9462,370799.7058,371566.9809,372334.2329,373111.1789,Mapping
Mixed,Female,tile,35,F_knife.wav,space,519.1672706,2190,366212.8796,373101.1148,373868.6243,374619.2161,360792.8323,361559.564,362326.7931,363093.6592,366962.9476,367730.7421,368497.6825,369265.1737,370031.9462,370799.7058,371566.9809,372334.2329,373878.7536,Mapping
Mixed,Female,tile,35,M_cad.wav,None,732.8775763,2190,366212.8796,373101.1148,373868.6243,374619.2161,375386.1527,361559.564,362326.7931,363093.6592,366962.9476,367730.7421,368497.6825,369265.1737,370031.9462,370799.7058,371566.9809,372334.2329,374628.9453,Mapping
Mixed,Female,tile,35,F_tile.wav,None,731.6696512,2190,366212.8796,373101.1148,373868.6243,374619.2161,375386.1527,376153.4436,362326.7931,363093.6592,366962.9476,367730.7421,368497.6825,369265.1737,370031.9462,370799.7058,371566.9809,372334.2329,375395.8257,Mapping
Mixed,Female,tile,35,M_greet.wav,space,651.2747676,2190,366212.8796,373101.1148,373868.6243,374619.2161,375386.1527,376153.4436,376920.7596,363093.6592,366962.9476,367730.7421,368497.6825,369265.1737,370031.9462,370799.7058,371566.9809,372334.2329,376162.5734,Mapping
Mixed,Female,tile,35,F_jolt.wav,None,726.5321821,2190,366212.8796,373101.1148,373868.6243,374619.2161,375386.1527,376153.4436,376920.7596,377688.0288,366962.9476,367730.7421,368497.6825,369265.1737,370031.9462,370799.7058,371566.9809,372334.2329,376930.7191,Mapping
Mixed,Male,done,40,F_cling.wav,space,699.5126252,2190,380806.8071,373101.1148,373868.6243,374619.2161,375386.1527,376153.4436,376920.7596,377688.0288,366962.9476,367730.7421,368497.6825,369265.1737,370031.9462,370799.7058,371566.9809,372334.2329,377698.2939,Mapping
Mixed,Male,done,40,M_done.wav,None,720.0674484,2190,380806.8071,373101.1148,373868.6243,374619.2161,375386.1527,376153.4436,376920.7596,377688.0288,381557.5949,367730.7421,368497.6825,369265.1737,370031.9462,370799.7058,371566.9809,372334.2329,380816.7101,Mapping
Mixed,Male,done,40,M_greet.wav,None,735.40009,2190,380806.8071,373101.1148,373868.6243,374619.2161,375386.1527,376153.4436,376920.7596,377688.0288,381557.5949,382324.6669,368497.6825,369265.1737,370031.9462,370799.7058,371566.9809,372334.2329,381567.3724,Mapping
Mixed,Male,done,40,M_reek.wav,None,734.309031,2190,380806.8071,373101.1148,373868.6243,374619.2161,375386.1527,376153.4436,376920.7596,377688.0288,381557.5949,382324.6669,383091.7831,369265.1737,370031.9462,370799.7058,371566.9809,372334.2329,382334.4595,Mapping
Mixed,Male,done,40,M_romp.wav,None,733.690692,2190,380806.8071,373101.1148,373868.6243,374619.2161,375386.1527,376153.4436,376920.7596,377688.0288,381557.5949,382324.6669,383091.7831,383858.9241,370031.9462,370799.7058,371566.9809,372334.2329,383101.3182,Mapping
Mixed,Male,done,40,M_done.wav,None,732.5900487,2190,380806.8071,373101.1148,373868.6243,374619.2161,375386.1527,376153.4436,376920.7596,377688.0288,381557.5949,382324.6669,383091.7831,383858.9241,384626.4052,370799.7058,371566.9809,372334.2329,383868.3049,Mapping
Mixed,Male,done,40,F_cad.wav,space,584.7671583,2190,380806.8071,373101.1148,373868.6243,374619.2161,375386.1527,376153.4436,376920.7596,377688.0288,381557.5949,382324.6669,383091.7831,383858.9241,384626.4052,385393.7462,371566.9809,372334.2329,384636.8542,Mapping
Mixed,Male,done,40,F_lash.wav,None,728.1905671,2190,380806.8071,373101.1148,373868.6243,374619.2161,375386.1527,376153.4436,376920.7596,377688.0288,381557.5949,382324.6669,383091.7831,383858.9241,384626.4052,385393.7462,386160.6485,372334.2329,385402.9767,Mapping
Mixed,Male,done,40,F_ball.wav,None,726.4722032,2190,380806.8071,373101.1148,373868.6243,374619.2161,375386.1527,376153.4436,376920.7596,377688.0288,381557.5949,382324.6669,383091.7831,383858.9241,384626.4052,385393.7462,386160.6485,386928.1645,386170.5039,Mapping
Mixed,Male,done,40,F_dime.wav,None,725.0923798,2190,380806.8071,387695.4072,373868.6243,374619.2161,375386.1527,376153.4436,376920.7596,377688.0288,381557.5949,382324.6669,383091.7831,383858.9241,384626.4052,385393.7462,386160.6485,386928.1645,386937.8041,Mapping
Mixed,Male,done,40,M_done.wav,None,723.1783116,2190,380806.8071,387695.4072,388462.5302,374619.2161,375386.1527,376153.4436,376920.7596,377688.0288,381557.5949,382324.6669,383091.7831,383858.9241,384626.4052,385393.7462,386160.6485,386928.1645,387705.3565,Mapping
Mixed,Male,done,40,F_reek.wav,space,453.704345,2190,380806.8071,387695.4072,388462.5302,389212.5911,375386.1527,376153.4436,376920.7596,377688.0288,381557.5949,382324.6669,383091.7831,383858.9241,384626.4052,385393.7462,386160.6485,386928.1645,388471.8071,Mapping
Mixed,Male,done,40,F_knife.wav,None,736.9292422,2190,380806.8071,387695.4072,388462.5302,389212.5911,389980.2738,376153.4436,376920.7596,377688.0288,381557.5949,382324.6669,383091.7831,383858.9241,384626.4052,385393.7462,386160.6485,386928.1645,389221.6807,Mapping
Mixed,Male,done,40,F_priest.wav,None,734.6636483,2190,380806.8071,387695.4072,388462.5302,389212.5911,389980.2738,390747.4976,376920.7596,377688.0288,381557.5949,382324.6669,383091.7831,383858.9241,384626.4052,385393.7462,386160.6485,386928.1645,389990.0843,Mapping
Mixed,Male,done,40,M_done.wav,None,732.9406469,2190,380806.8071,387695.4072,388462.5302,389212.5911,389980.2738,390747.4976,391514.7579,377688.0288,381557.5949,382324.6669,383091.7831,383858.9241,384626.4052,385393.7462,386160.6485,386928.1645,390757.8656,Mapping
Mixed,Male,done,40,M_greet.wav,space,560.5536236,2190,380806.8071,387695.4072,388462.5302,389212.5911,389980.2738,390747.4976,391514.7579,392282.3227,381557.5949,382324.6669,383091.7831,383858.9241,384626.4052,385393.7462,386160.6485,386928.1645,391524.8047,Mapping
Mixed,Male,ball,6,M_park.wav,None,728.6840016,2190,395401.0185,387695.4072,388462.5302,389212.5911,389980.2738,390747.4976,391514.7579,392282.3227,381557.5949,382324.6669,383091.7831,383858.9241,384626.4052,385393.7462,386160.6485,386928.1645,392292.0458,Mapping
Mixed,Male,ball,6,F_cad.wav,None,735.930934,2190,395401.0185,387695.4072,388462.5302,389212.5911,389980.2738,390747.4976,391514.7579,392282.3227,396168.1999,382324.6669,383091.7831,383858.9241,384626.4052,385393.7462,386160.6485,386928.1645,395410.6219,Mapping
Mixed,Male,ball,6,M_knife.wav,None,734.3516963,2190,395401.0185,387695.4072,388462.5302,389212.5911,389980.2738,390747.4976,391514.7579,392282.3227,396168.1999,396935.0735,383091.7831,383858.9241,384626.4052,385393.7462,386160.6485,386928.1645,396177.9994,Mapping
Mixed,Male,ball,6,F_romp.wav,None,733.8795946,2190,395401.0185,387695.4072,388462.5302,389212.5911,389980.2738,390747.4976,391514.7579,392282.3227,396168.1999,396935.0735,397702.66,383858.9241,384626.4052,385393.7462,386160.6485,386928.1645,396944.3006,Mapping
Mixed,Male,ball,6,F_gnash.wav,None,732.2125528,2190,395401.0185,387695.4072,388462.5302,389212.5911,389980.2738,390747.4976,391514.7579,392282.3227,396168.1999,396935.0735,397702.66,398469.9036,384626.4052,385393.7462,386160.6485,386928.1645,397711.9901,Mapping
Mixed,Male,ball,6,M_ball.wav,None,730.286427,2190,395401.0185,387695.4072,388462.5302,389212.5911,389980.2738,390747.4976,391514.7579,392282.3227,396168.1999,396935.0735,397702.66,398469.9036,399236.7709,385393.7462,386160.6485,386928.1645,398480.0521,Mapping
Mixed,Male,ball,6,F_lash.wav,space,583.2135817,2190,395401.0185,387695.4072,388462.5302,389212.5911,389980.2738,390747.4976,391514.7579,392282.3227,396168.1999,396935.0735,397702.66,398469.9036,399236.7709,400004.5541,386160.6485,386928.1645,399245.9366,Mapping
Mixed,Male,ball,6,F_knife.wav,None,726.2564029,2190,395401.0185,387695.4072,388462.5302,389212.5911,389980.2738,390747.4976,391514.7579,392282.3227,396168.1999,396935.0735,397702.66,398469.9036,399236.7709,400004.5541,400771.1645,386928.1645,400014.475,Mapping
Mixed,Male,ball,6,M_ball.wav,None,726.4273736,2190,395401.0185,387695.4072,388462.5302,389212.5911,389980.2738,390747.4976,391514.7579,392282.3227,396168.1999,396935.0735,397702.66,398469.9036,399236.7709,400004.5541,400771.1645,401538.8116,400780.4266,Mapping
Mixed,Male,ball,6,F_lash.wav,space,567.891761,2190,395401.0185,402306.007,388462.5302,389212.5911,389980.2738,390747.4976,391514.7579,392282.3227,396168.1999,396935.0735,397702.66,398469.9036,399236.7709,400004.5541,400771.1645,401538.8116,401549.1539,Mapping
Mixed,Male,ball,6,M_greet.wav,None,720.7884316,2190,395401.0185,402306.007,403073.1971,389212.5911,389980.2738,390747.4976,391514.7579,392282.3227,396168.1999,396935.0735,397702.66,398469.9036,399236.7709,400004.5541,400771.1645,401538.8116,402315.7511,Mapping
Mixed,Male,ball,6,M_ball.wav,None,719.9345055,2190,395401.0185,402306.007,403073.1971,403823.6776,389980.2738,390747.4976,391514.7579,392282.3227,396168.1999,396935.0735,397702.66,398469.9036,399236.7709,400004.5541,400771.1645,401538.8116,403082.9662,Mapping
Mixed,Male,ball,6,M_bluff.wav,space,571.8039915,2190,395401.0185,402306.007,403073.1971,403823.6776,404591.1224,390747.4976,391514.7579,392282.3227,396168.1999,396935.0735,397702.66,398469.9036,399236.7709,400004.5541,400771.1645,401538.8116,403833.246,Mapping
Mixed,Male,ball,6,F_bluff.wav,None,732.7659661,2190,395401.0185,402306.007,403073.1971,403823.6776,404591.1224,405358.1027,391514.7579,392282.3227,396168.1999,396935.0735,397702.66,398469.9036,399236.7709,400004.5541,400771.1645,401538.8116,404600.3103,Mapping
Mixed,Male,ball,6,M_ball.wav,None,731.4680727,2190,395401.0185,402306.007,403073.1971,403823.6776,404591.1224,405358.1027,406125.4591,392282.3227,396168.1999,396935.0735,397702.66,398469.9036,399236.7709,400004.5541,400771.1645,401538.8116,405367.3536,Mapping
Mixed,Male,ball,6,F_jaw.wav,space,676.5481352,2190,395401.0185,402306.007,403073.1971,403823.6776,404591.1224,405358.1027,406125.4591,406892.7216,396168.1999,396935.0735,397702.66,398469.9036,399236.7709,400004.5541,400771.1645,401538.8116,406136.3747,Mapping
Mixed,Male,tile,28,F_cave.wav,None,727.243581,2190,410011.5385,402306.007,403073.1971,403823.6776,404591.1224,405358.1027,406125.4591,406892.7216,396168.1999,396935.0735,397702.66,398469.9036,399236.7709,400004.5541,400771.1645,401538.8116,406902.2808,Mapping
Mixed,Male,tile,28,F_cave.wav,None,735.9386633,2190,410011.5385,402306.007,403073.1971,403823.6776,404591.1224,405358.1027,406125.4591,406892.7216,410778.7905,396935.0735,397702.66,398469.9036,399236.7709,400004.5541,400771.1645,401538.8116,410021.0745,Mapping
Mixed,Male,tile,28,M_ball.wav,None,734.8040113,2190,410011.5385,402306.007,403073.1971,403823.6776,404591.1224,405358.1027,406125.4591,406892.7216,410778.7905,411546.0595,397702.66,398469.9036,399236.7709,400004.5541,400771.1645,401538.8116,410788.5482,Mapping
Mixed,Male,tile,28,M_gnash.wav,None,734.737849,2190,410011.5385,402306.007,403073.1971,403823.6776,404591.1224,405358.1027,406125.4591,406892.7216,410778.7905,411546.0595,412313.4991,398469.9036,399236.7709,400004.5541,400771.1645,401538.8116,411555.1521,Mapping
Mixed,Male,tile,28,F_romp.wav,None,733.0278327,2190,410011.5385,402306.007,403073.1971,403823.6776,404591.1224,405358.1027,406125.4591,406892.7216,410778.7905,411546.0595,412313.4991,413081.3848,399236.7709,400004.5541,400771.1645,401538.8116,412323.0499,Mapping
Mixed,Male,tile,28,M_tile.wav,None,731.3320381,2190,410011.5385,402306.007,403073.1971,403823.6776,404591.1224,405358.1027,406125.4591,406892.7216,410778.7905,411546.0595,412313.4991,413081.3848,413847.8707,400004.5541,400771.1645,401538.8116,413091.1614,Mapping
Mixed,Male,tile,28,F_reek.wav,space,458.7036153,2190,410011.5385,402306.007,403073.1971,403823.6776,404591.1224,405358.1027,406125.4591,406892.7216,410778.7905,411546.0595,412313.4991,413081.3848,413847.8707,414614.9916,400771.1645,401538.8116,413857.9926,Mapping
Mixed,Male,tile,28,M_done.wav,None,728.1741811,2190,410011.5385,402306.007,403073.1971,403823.6776,404591.1224,405358.1027,406125.4591,406892.7216,410778.7905,411546.0595,412313.4991,413081.3848,413847.8707,414614.9916,415382.306,401538.8116,414624.9765,Mapping
Mixed,Male,tile,28,M_tile.wav,None,727.6111835,2190,410011.5385,402306.007,403073.1971,403823.6776,404591.1224,405358.1027,406125.4591,406892.7216,410778.7905,411546.0595,412313.4991,413081.3848,413847.8707,414614.9916,415382.306,416150.0047,415391.5869,Mapping
Mixed,Male,tile,28,M_greet.wav,space,203.9575547,2190,410011.5385,416916.7172,403073.1971,403823.6776,404591.1224,405358.1027,406125.4591,406892.7216,410778.7905,411546.0595,412313.4991,413081.3848,413847.8707,414614.9916,415382.306,416150.0047,416159.7435,Mapping
Mixed,Male,tile,28,F_done.wav,None,722.4752603,2190,410011.5385,416916.7172,417683.7793,403823.6776,404591.1224,405358.1027,406125.4591,406892.7216,410778.7905,411546.0595,412313.4991,413081.3848,413847.8707,414614.9916,415382.306,416150.0047,416926.8725,Mapping
Mixed,Male,tile,28,M_tile.wav,None,722.6190241,2190,410011.5385,416916.7172,417683.7793,418450.6726,404591.1224,405358.1027,406125.4591,406892.7216,410778.7905,411546.0595,412313.4991,413081.3848,413847.8707,414614.9916,415382.306,416150.0047,417692.8806,Mapping
Mixed,Male,tile,28,F_priest.wav,None,722.1642358,2190,410011.5385,416916.7172,417683.7793,418450.6726,419218.4236,405358.1027,406125.4591,406892.7216,410778.7905,411546.0595,412313.4991,413081.3848,413847.8707,414614.9916,415382.306,416150.0047,418459.9168,Mapping
Mixed,Male,tile,28,F_priest.wav,None,720.2118306,2190,410011.5385,416916.7172,417683.7793,418450.6726,419218.4236,419969.1894,406125.4591,406892.7216,410778.7905,411546.0595,412313.4991,413081.3848,413847.8707,414614.9916,415382.306,416150.0047,419228.0017,Mapping
Mixed,Male,tile,28,M_tile.wav,None,735.2677655,2190,410011.5385,416916.7172,417683.7793,418450.6726,419218.4236,419969.1894,420736.0249,406892.7216,410778.7905,411546.0595,412313.4991,413081.3848,413847.8707,414614.9916,415382.306,416150.0047,419979.2992,Mapping
Mixed,Male,tile,28,F_knife.wav,space,618.8425808,2190,410011.5385,416916.7172,417683.7793,418450.6726,419218.4236,419969.1894,420736.0249,421503.4939,410778.7905,411546.0595,412313.4991,413081.3848,413847.8707,414614.9916,415382.306,416150.0047,420745.6744,Mapping
Mixed,Female,tile,34,M_reek.wav,None,731.227848,2190,424639.0644,416916.7172,417683.7793,418450.6726,419218.4236,419969.1894,420736.0249,421503.4939,410778.7905,411546.0595,412313.4991,413081.3848,413847.8707,414614.9916,415382.306,416150.0047,421513.2504,Mapping
Mixed,Female,tile,34,M_cave.wav,None,720.4038248,2190,424639.0644,416916.7172,417683.7793,418450.6726,419218.4236,419969.1894,420736.0249,421503.4939,425406.3102,411546.0595,412313.4991,413081.3848,413847.8707,414614.9916,415382.306,416150.0047,424648.5034,Mapping
Mixed,Female,tile,34,F_ball.wav,None,719.6194618,2190,424639.0644,416916.7172,417683.7793,418450.6726,419218.4236,419969.1894,420736.0249,421503.4939,425406.3102,426156.24,412313.4991,413081.3848,413847.8707,414614.9916,415382.306,416150.0047,425415.7464,Mapping
Mixed,Female,tile,34,F_park.wav,None,735.418331,2190,424639.0644,416916.7172,417683.7793,418450.6726,419218.4236,419969.1894,420736.0249,421503.4939,425406.3102,426156.24,426924.0179,413081.3848,413847.8707,414614.9916,415382.306,416150.0047,426166.0521,Mapping
Mixed,Female,tile,34,M_romp.wav,space,589.6273024,2190,424639.0644,416916.7172,417683.7793,418450.6726,419218.4236,419969.1894,420736.0249,421503.4939,425406.3102,426156.24,426924.0179,427691.3029,413847.8707,414614.9916,415382.306,416150.0047,426933.7456,Mapping
Mixed,Female,tile,34,M_lash.wav,None,731.3323473,2190,424639.0644,416916.7172,417683.7793,418450.6726,419218.4236,419969.1894,420736.0249,421503.4939,425406.3102,426156.24,426924.0179,427691.3029,428458.6211,414614.9916,415382.306,416150.0047,427700.9929,Mapping
Mixed,Female,tile,34,F_tile.wav,None,730.2907553,2190,424639.0644,416916.7172,417683.7793,418450.6726,419218.4236,419969.1894,420736.0249,421503.4939,425406.3102,426156.24,426924.0179,427691.3029,428458.6211,429225.7735,415382.306,416150.0047,428468.3976,Mapping
Mixed,Female,tile,34,M_knife.wav,space,487.5825173,2190,424639.0644,416916.7172,417683.7793,418450.6726,419218.4236,419969.1894,420736.0249,421503.4939,425406.3102,426156.24,426924.0179,427691.3029,428458.6211,429225.7735,429992.9361,416150.0047,429235.6938,Mapping
Mixed,Female,tile,34,F_tile.wav,None,726.3114351,2190,424639.0644,416916.7172,417683.7793,418450.6726,419218.4236,419969.1894,420736.0249,421503.4939,425406.3102,426156.24,426924.0179,427691.3029,428458.6211,429225.7735,429992.9361,430760.0601,430002.567,Mapping
Mixed,Female,tile,34,M_priest.wav,space,561.957253,2190,424639.0644,431527.4867,417683.7793,418450.6726,419218.4236,419969.1894,420736.0249,421503.4939,425406.3102,426156.24,426924.0179,427691.3029,428458.6211,429225.7735,429992.9361,430760.0601,430770.2552,Mapping
Mixed,Female,tile,34,F_ball.wav,None,722.6774571,2190,424639.0644,431527.4867,432294.7937,418450.6726,419218.4236,419969.1894,420736.0249,421503.4939,425406.3102,426156.24,426924.0179,427691.3029,428458.6211,429225.7735,429992.9361,430760.0601,431536.6196,Mapping
Mixed,Female,tile,34,F_tile.wav,None,720.8066726,2190,424639.0644,431527.4867,432294.7937,433062.0438,419218.4236,419969.1894,420736.0249,421503.4939,425406.3102,426156.24,426924.0179,427691.3029,428458.6211,429225.7735,429992.9361,430760.0601,432304.4639,Mapping
Mixed,Female,tile,34,M_bluff.wav,space,579.7468644,2190,424639.0644,431527.4867,432294.7937,433062.0438,433812.4139,419969.1894,420736.0249,421503.4939,425406.3102,426156.24,426924.0179,427691.3029,428458.6211,429225.7735,429992.9361,430760.0601,433072.4168,Mapping
