"Condition","Talker","Target","Trial","current_stimulus","response_response","response_time_response","subject_nr","time_Audio1","time_Audio10","time_Audio11","time_Audio12","time_Audio13","time_Audio14","time_Audio15","time_Audio16","time_Audio2","time_Audio3","time_Audio4","time_Audio5","time_Audio6","time_Audio7","time_Audio8","time_Audio9","time_response"
"Mixed","Male","cave","15","M_dime.wav","NA","NA","425","102429.074079","NA","NA","NA","NA","NA","NA","NA","NA","NA","NA","NA","NA","NA","NA","NA","NA"
"Mixed","Male","cave","15","F_cad.wav","None","740.38060306","425","102429.074079","NA","NA","NA","NA","NA","NA","NA","103195.724148","NA","NA","NA","NA","NA","NA","NA","102435.922117"
"Mixed","Male","cave","15","M_cave.wav","None","739.449316628","425","102429.074079","NA","NA","NA","NA","NA","NA","NA","103195.724148","103962.336521","NA","NA","NA","NA","NA","NA","103201.040984"
"Mixed","Male","cave","15","F_romp.wav","None","737.044978768","425","102429.074079","NA","NA","NA","NA","NA","NA","NA","103195.724148","103962.336521","104728.91003","NA","NA","NA","NA","NA","103967.582057"
"Mixed","Male","cave","15","F_priest.wav","space","416.426174438","425","102429.074079","NA","NA","NA","NA","NA","NA","NA","103195.724148","103962.336521","104728.91003","105495.569742","NA","NA","NA","NA","104734.136864"
"Mixed","Male","cave","15","M_cave.wav","None","732.042272864","425","102429.074079","NA","NA","NA","NA","NA","NA","NA","103195.724148","103962.336521","104728.91003","105495.569742","106262.224194","NA","NA","NA","105500.863785"
"Mixed","Male","cave","15","F_priest.wav","space","578.728623075","425","102429.074079","NA","NA","NA","NA","NA","NA","NA","103195.724148","103962.336521","104728.91003","105495.569742","106262.224194","107012.159614","NA","NA","106267.692689"
"Mixed","Male","cave","15","M_knife.wav","None","743.686129296","425","102429.074079","NA","NA","NA","NA","NA","NA","NA","103195.724148","103962.336521","104728.91003","105495.569742","106262.224194","107012.159614","107778.834521","NA","107017.273946"
"Mixed","Male","cave","15","F_greet.wav","None","741.145619652","425","102429.074079","NA","NA","NA","NA","NA","NA","NA","103195.724148","103962.336521","104728.91003","105495.569742","106262.224194","107012.159614","107778.834521","108545.41855","107784.012848"
"Mixed","Male","cave","15","M_dime.wav","None","738.326045513","425","102429.074079","109312.029462","NA","NA","NA","NA","NA","NA","103195.724148","103962.336521","104728.91003","105495.569742","106262.224194","107012.159614","107778.834521","108545.41855","108550.900779"
"Mixed","Male","cave","15","F_lash.wav","None","736.425484813","425","102429.074079","109312.029462","110078.669596","NA","NA","NA","NA","NA","103195.724148","103962.336521","104728.91003","105495.569742","106262.224194","107012.159614","107778.834521","108545.41855","109317.197561"
"Mixed","Male","cave","15","M_cave.wav","None","733.970593908","425","102429.074079","109312.029462","110078.669596","110845.343334","NA","NA","NA","NA","103195.724148","103962.336521","104728.91003","105495.569742","106262.224194","107012.159614","107778.834521","108545.41855","110083.800876"
"Mixed","Male","cave","15","F_jolt.wav","space","587.539755733","425","102429.074079","109312.029462","110078.669596","110845.343334","111611.944311","NA","NA","NA","103195.724148","103962.336521","104728.91003","105495.569742","106262.224194","107012.159614","107778.834521","108545.41855","110850.509972"
"Mixed","Male","cave","15","M_cave.wav","None","729.054091174","425","102429.074079","109312.029462","110078.669596","110845.343334","111611.944311","112361.864829","NA","NA","103195.724148","103962.336521","104728.91003","105495.569742","106262.224194","107012.159614","107778.834521","108545.41855","111616.939712"
"Mixed","Male","cave","15","M_jolt.wav","space","687.0398358","425","102429.074079","109312.029462","110078.669596","110845.343334","111611.944311","112361.864829","113128.515774","NA","103195.724148","103962.336521","104728.91003","105495.569742","106262.224194","107012.159614","107778.834521","108545.41855","112366.890327"
"Mixed","Male","cave","15","F_cad.wav","None","741.032240569","425","102429.074079","109312.029462","110078.669596","110845.343334","111611.944311","112361.864829","113128.515774","113895.276592","103195.724148","103962.336521","104728.91003","105495.569742","106262.224194","107012.159614","107778.834521","108545.41855","113133.325327"
"Mixed","Male","done","37","M_cad.wav","None","738.375429701","425","117011.686227","109312.029462","110078.669596","110845.343334","111611.944311","112361.864829","113128.515774","113895.276592","103195.724148","103962.336521","104728.91003","105495.569742","106262.224194","107012.159614","107778.834521","108545.41855","113900.190757"
"Mixed","Male","done","37","M_done.wav","None","742.052360097","425","117011.686227","109312.029462","110078.669596","110845.343334","111611.944311","112361.864829","113128.515774","113895.276592","117778.294802","103962.336521","104728.91003","105495.569742","106262.224194","107012.159614","107778.834521","108545.41855","117016.740071"
"Mixed","Male","done","37","F_lash.wav","space","613.74435004","425","117011.686227","109312.029462","110078.669596","110845.343334","111611.944311","112361.864829","113128.515774","113895.276592","117778.294802","118544.934936","104728.91003","105495.569742","106262.224194","107012.159614","107778.834521","108545.41855","117783.718004"
"Mixed","Male","done","37","M_done.wav","None","737.319075622","425","117011.686227","109312.029462","110078.669596","110845.343334","111611.944311","112361.864829","113128.515774","113895.276592","117778.294802","118544.934936","119311.643447","105495.569742","106262.224194","107012.159614","107778.834521","108545.41855","118549.88592"
"Mixed","Male","done","37","F_depth.wav","space","616.673504478","425","117011.686227","109312.029462","110078.669596","110845.343334","111611.944311","112361.864829","113128.515774","113895.276592","117778.294802","118544.934936","119311.643447","120078.219294","106262.224194","107012.159614","107778.834521","108545.41855","119316.718622"
"Mixed","Male","done","37","M_done.wav","None","732.1650028","425","117011.686227","109312.029462","110078.669596","110845.343334","111611.944311","112361.864829","113128.515774","113895.276592","117778.294802","118544.934936","119311.643447","120078.219294","120844.866733","107012.159614","107778.834521","108545.41855","120083.485285"
"Mixed","Male","done","37","F_knife.wav","None","729.944759841","425","117011.686227","109312.029462","110078.669596","110845.343334","111611.944311","112361.864829","113128.515774","113895.276592","117778.294802","118544.934936","119311.643447","120078.219294","120844.866733","121611.899894","107778.834521","108545.41855","120850.001227"
"Mixed","Male","done","37","F_depth.wav","space","0.0216238459107","425","117011.686227","109312.029462","110078.669596","110845.343334","111611.944311","112361.864829","113128.515774","113895.276592","117778.294802","118544.934936","119311.643447","120078.219294","120844.866733","121611.899894","122361.46245","108545.41855","121617.60859"
"Mixed","Male","done","37","F_cad.wav","None","742.984230958","425","117011.686227","109312.029462","110078.669596","110845.343334","111611.944311","112361.864829","113128.515774","113895.276592","117778.294802","118544.934936","119311.643447","120078.219294","120844.866733","121611.899894","122361.46245","123128.055245","122366.519508"
"Mixed","Male","done","37","M_done.wav","None","740.574925456","425","117011.686227","123894.705606","110078.669596","110845.343334","111611.944311","112361.864829","113128.515774","113895.276592","117778.294802","118544.934936","119311.643447","120078.219294","120844.866733","121611.899894","122361.46245","123128.055245","123133.257533"
"Mixed","Male","done","37","M_lash.wav","space","737.569503131","425","117011.686227","123894.705606","124661.34574","110845.343334","111611.944311","112361.864829","113128.515774","113895.276592","117778.294802","118544.934936","119311.643447","120078.219294","120844.866733","121611.899894","122361.46245","123128.055245","123899.416098"
"Mixed","Male","done","37","F_greet.wav","None","735.797516647","425","117011.686227","123894.705606","124661.34574","125427.980029","111611.944311","112361.864829","113128.515774","113895.276592","117778.294802","118544.934936","119311.643447","120078.219294","120844.866733","121611.899894","122361.46245","123128.055245","124666.607932"
"Mixed","Male","done","37","F_bluff.wav","None","734.083680776","425","117011.686227","123894.705606","124661.34574","125427.980029","126194.563473","112361.864829","113128.515774","113895.276592","117778.294802","118544.934936","119311.643447","120078.219294","120844.866733","121611.899894","122361.46245","123128.055245","125433.127965"
"Mixed","Male","done","37","F_depth.wav","None","731.723467249","425","117011.686227","123894.705606","124661.34574","125427.980029","126194.563473","126961.292148","113128.515774","113895.276592","117778.294802","118544.934936","119311.643447","120078.219294","120844.866733","121611.899894","122361.46245","123128.055245","126199.734202"
"Mixed","Male","done","37","M_knife.wav","None","729.244030358","425","117011.686227","123894.705606","124661.34574","125427.980029","126194.563473","126961.292148","127711.286595","113895.276592","117778.294802","118544.934936","119311.643447","120078.219294","120844.866733","121611.899894","122361.46245","123128.055245","126966.511092"
"Mixed","Male","done","37","M_priest.wav","None","743.762689399","425","117011.686227","123894.705606","124661.34574","125427.980029","126194.563473","126961.292148","127711.286595","128477.810136","117778.294802","118544.934936","119311.643447","120078.219294","120844.866733","121611.899894","122361.46245","123128.055245","127716.312678"
"Mixed","Male","tile","30","M_priest.wav","None","741.588031844","425","131577.688049","123894.705606","124661.34574","125427.980029","126194.563473","126961.292148","127711.286595","128477.810136","117778.294802","118544.934936","119311.643447","120078.219294","120844.866733","121611.899894","122361.46245","123128.055245","128482.866317"
"Mixed","Male","tile","30","F_park.wav","None","741.966156928","425","131577.688049","123894.705606","124661.34574","125427.980029","126194.563473","126961.292148","127711.286595","128477.810136","132344.272077","118544.934936","119311.643447","120078.219294","120844.866733","121611.899894","122361.46245","123128.055245","131582.844751"
"Mixed","Male","tile","30","M_tile.wav","None","739.69360764","425","131577.688049","123894.705606","124661.34574","125427.980029","126194.563473","126961.292148","127711.286595","128477.810136","132344.272077","133110.888834","119311.643447","120078.219294","120844.866733","121611.899894","122361.46245","123128.055245","132349.487515"
"Mixed","Male","tile","30","F_cling.wav","space","595.866397362","425","131577.688049","123894.705606","124661.34574","125427.980029","126194.563473","126961.292148","127711.286595","128477.810136","132344.272077","133110.888834","133877.563448","120078.219294","120844.866733","121611.899894","122361.46245","123128.055245","133112.434354"
"Mixed","Male","tile","30","M_tile.wav","None","735.066689109","425","131577.688049","123894.705606","124661.34574","125427.980029","126194.563473","126961.292148","127711.286595","128477.810136","132344.272077","133110.888834","133877.563448","134644.147185","120844.866733","121611.899894","122361.46245","123128.055245","133882.610863"
"Mixed","Male","tile","30","M_jolt.wav","space","658.837957914","425","131577.688049","123894.705606","124661.34574","125427.980029","126194.563473","126961.292148","127711.286595","128477.810136","132344.272077","133110.888834","133877.563448","134644.147185","135410.815663","121611.899894","122361.46245","123128.055245","134649.314115"
"Mixed","Male","tile","30","M_romp.wav","None","730.160998297","425","131577.688049","123894.705606","124661.34574","125427.980029","126194.563473","126961.292148","127711.286595","128477.810136","132344.272077","133110.888834","133877.563448","134644.147185","135410.815663","136177.677295","122361.46245","123128.055245","135416.172533"
"Mixed","Male","tile","30","M_tile.wav","None","727.555617115","425","131577.688049","123894.705606","124661.34574","125427.980029","126194.563473","126961.292148","127711.286595","128477.810136","132344.272077","133110.888834","133877.563448","134644.147185","135410.815663","136177.677295","136927.40612","123128.055245","136183.177934"
"Mixed","Male","tile","30","F_cad.wav","space","639.442245046","425","131577.688049","123894.705606","124661.34574","125427.980029","126194.563473","126961.292148","127711.286595","128477.810136","132344.272077","133110.888834","133877.563448","134644.147185","135410.815663","136177.677295","136927.40612","137694.033104","136932.515484"
"Mixed","Male","tile","30","M_reek.wav","None","740.178683096","425","131577.688049","138460.673238","124661.34574","125427.980029","126194.563473","126961.292148","127711.286595","128477.810136","132344.272077","133110.888834","133877.563448","134644.147185","135410.815663","136177.677295","136927.40612","137694.033104","137699.236854"
"Mixed","Male","tile","30","M_tile.wav","None","737.98123284","425","131577.688049","138460.673238","139227.364217","125427.980029","126194.563473","126961.292148","127711.286595","128477.810136","132344.272077","133110.888834","133877.563448","134644.147185","135410.815663","136177.677295","136927.40612","137694.033104","138465.793998"
"Mixed","Male","tile","30","F_jolt.wav","space","571.435250609","425","131577.688049","138460.673238","139227.364217","139993.937141","126194.563473","126961.292148","127711.286595","128477.810136","132344.272077","133110.888834","133877.563448","134644.147185","135410.815663","136177.677295","136927.40612","137694.033104","139232.336825"
"Mixed","Male","tile","30","F_cling.wav","None","733.317203114","425","131577.688049","138460.673238","139227.364217","139993.937141","140760.565002","126961.292148","127711.286595","128477.810136","132344.272077","133110.888834","133877.563448","134644.147185","135410.815663","136177.677295","136927.40612","137694.033104","139999.111961"
"Mixed","Male","tile","30","F_cling.wav","None","731.13553242","425","131577.688049","138460.673238","139227.364217","139993.937141","140760.565002","141527.208934","127711.286595","128477.810136","132344.272077","133110.888834","133877.563448","134644.147185","135410.815663","136177.677295","136927.40612","137694.033104","140765.692483"
"Mixed","Male","tile","30","F_romp.wav","None","729.178574393","425","131577.688049","138460.673238","139227.364217","139993.937141","140760.565002","141527.208934","142277.149323","128477.810136","132344.272077","133110.888834","133877.563448","134644.147185","135410.815663","136177.677295","136927.40612","137694.033104","141532.248167"
"Mixed","Male","tile","30","F_reek.wav","None","743.688759223","425","131577.688049","138460.673238","139227.364217","139993.937141","140760.565002","141527.208934","142277.149323","143043.824814","132344.272077","133110.888834","133877.563448","134644.147185","135410.815663","136177.677295","136927.40612","137694.033104","142282.151444"
"Mixed","Male","cave","13","F_bluff.wav","None","741.246725741","425","146143.669415","138460.673238","139227.364217","139993.937141","140760.565002","141527.208934","142277.149323","143043.824814","132344.272077","133110.888834","133877.563448","134644.147185","135410.815663","136177.677295","136927.40612","137694.033104","143048.98853"
"Mixed","Male","cave","13","M_cave.wav","None","741.771542318","425","146143.669415","138460.673238","139227.364217","139993.937141","140760.565002","141527.208934","142277.149323","143043.824814","146910.271853","133110.888834","133877.563448","134644.147185","135410.815663","136177.677295","136927.40612","137694.033104","146148.786961"
"Mixed","Male","cave","13","F_dime.wav","space","727.581916387","425","146143.669415","138460.673238","139227.364217","139993.937141","140760.565002","141527.208934","142277.149323","143043.824814","146910.271853","147676.883642","133877.563448","134644.147185","135410.815663","136177.677295","136927.40612","137694.033104","146915.569987"
"Mixed","Male","cave","13","F_romp.wav","None","736.727342009","425","146143.669415","138460.673238","139227.364217","139993.937141","140760.565002","141527.208934","142277.149323","143043.824814","146910.271853","147676.883642","148443.605595","134644.147185","135410.815663","136177.677295","136927.40612","137694.033104","147681.972843"
"Mixed","Male","cave","13","M_cave.wav","None","734.496871555","425","146143.669415","138460.673238","139227.364217","139993.937141","140760.565002","141527.208934","142277.149323","143043.824814","146910.271853","147676.883642","148443.605595","149210.162155","135410.815663","136177.677295","136927.40612","137694.033104","148448.574404"
"Mixed","Male","cave","13","F_priest.wav","space","619.474376912","425","146143.669415","138460.673238","139227.364217","139993.937141","140760.565002","141527.208934","142277.149323","143043.824814","146910.271853","147676.883642","148443.605595","149210.162155","149976.798198","136177.677295","136927.40612","137694.033104","149215.517856"
"Mixed","Male","cave","13","M_gnash.wav","None","729.572771254","425","146143.669415","138460.673238","139227.364217","139993.937141","140760.565002","141527.208934","142277.149323","143043.824814","146910.271853","147676.883642","148443.605595","149210.162155","149976.798198","150743.949999","136927.40612","137694.033104","149981.965713"
"Mixed","Male","cave","13","F_bluff.wav","None","726.990182774","425","146143.669415","138460.673238","139227.364217","139993.937141","140760.565002","141527.208934","142277.149323","143043.824814","146910.271853","147676.883642","148443.605595","149210.162155","149976.798198","150743.949999","151493.376967","137694.033104","150749.330537"
"Mixed","Male","cave","13","M_gnash.wav","None","742.492142362","425","146143.669415","138460.673238","139227.364217","139993.937141","140760.565002","141527.208934","142277.149323","143043.824814","146910.271853","147676.883642","148443.605595","149210.162155","149976.798198","150743.949999","151493.376967","152260.042815","151498.28558"
"Mixed","Male","cave","13","F_cling.wav","None","739.986990628","425","146143.669415","153026.623045","139227.364217","139993.937141","140760.565002","141527.208934","142277.149323","143043.824814","146910.271853","147676.883642","148443.605595","149210.162155","149976.798198","150743.949999","151493.376967","152260.042815","152265.198934"
"Mixed","Male","cave","13","M_romp.wav","None","737.554015782","425","146143.669415","153026.623045","153793.281004","139993.937141","140760.565002","141527.208934","142277.149323","143043.824814","146910.271853","147676.883642","148443.605595","149210.162155","149976.798198","150743.949999","151493.376967","152260.042815","153031.987512"
"Mixed","Male","cave","13","M_dime.wav","None","735.663682575","425","146143.669415","153026.623045","153793.281004","154559.931657","140760.565002","141527.208934","142277.149323","143043.824814","146910.271853","147676.883642","148443.605595","149210.162155","149976.798198","150743.949999","151493.376967","152260.042815","153798.280495"
"Mixed","Male","cave","13","M_cave.wav","None","733.690068343","425","146143.669415","153026.623045","153793.281004","154559.931657","155326.544907","141527.208934","142277.149323","143043.824814","146910.271853","147676.883642","148443.605595","149210.162155","149976.798198","150743.949999","151493.376967","152260.042815","154565.026703"
"Mixed","Male","cave","13","F_depth.wav","space","662.822297574","425","146143.669415","153026.623045","153793.281004","154559.931657","155326.544907","156093.193223","142277.149323","143043.824814","146910.271853","147676.883642","148443.605595","149210.162155","149976.798198","150743.949999","151493.376967","152260.042815","155331.662453"
"Mixed","Male","cave","13","M_cave.wav","None","728.568139075","425","146143.669415","153026.623045","153793.281004","154559.931657","155326.544907","156093.193223","156843.138286","143043.824814","146910.271853","147676.883642","148443.605595","149210.162155","149976.798198","150743.949999","151493.376967","152260.042815","156098.545709"
"Mixed","Male","cave","13","F_depth.wav","None","743.432487432","425","146143.669415","153026.623045","153793.281004","154559.931657","155326.544907","156093.193223","156843.138286","157609.736341","146910.271853","147676.883642","148443.605595","149210.162155","149976.798198","150743.949999","151493.376967","152260.042815","156848.058003"
"Mixed","Male","cave","17","F_reek.wav","space","0.020454989688","425","160726.304064","153026.623045","153793.281004","154559.931657","155326.544907","156093.193223","156843.138286","157609.736341","146910.271853","147676.883642","148443.605595","149210.162155","149976.798198","150743.949999","151493.376967","152260.042815","157614.795736"
"Mixed","Male","cave","17","M_cave.wav","None","741.912973956","425","160726.304064","153026.623045","153793.281004","154559.931657","155326.544907","156093.193223","156843.138286","157609.736341","161492.891307","147676.883642","148443.605595","149210.162155","149976.798198","150743.949999","151493.376967","152260.042815","160731.534989"
"Mixed","Male","cave","17","F_reek.wav","space","624.006618065","425","160726.304064","153026.623045","153793.281004","154559.931657","155326.544907","156093.193223","156843.138286","157609.736341","161492.891307","162259.541668","148443.605595","149210.162155","149976.798198","150743.949999","151493.376967","152260.042815","161497.945735"
"Mixed","Male","cave","17","F_cad.wav","None","737.011374143","425","160726.304064","153026.623045","153793.281004","154559.931657","155326.544907","156093.193223","156843.138286","157609.736341","161492.891307","162259.541668","163026.186185","149210.162155","149976.798198","150743.949999","151493.376967","152260.042815","162264.631746"
"Mixed","Male","cave","17","F_depth.wav","None","734.87149007","425","160726.304064","153026.623045","153793.281004","154559.931657","155326.544907","156093.193223","156843.138286","157609.736341","161492.891307","162259.541668","163026.186185","163792.800896","149976.798198","150743.949999","151493.376967","152260.042815","163031.276263"
"Mixed","Male","cave","17","F_lash.wav","None","732.681929595","425","160726.304064","153026.623045","153793.281004","154559.931657","155326.544907","156093.193223","156843.138286","157609.736341","161492.891307","162259.541668","163026.186185","163792.800896","164559.439568","150743.949999","151493.376967","152260.042815","163797.997047"
"Mixed","Male","cave","17","M_cave.wav","None","730.313534073","425","160726.304064","153026.623045","153793.281004","154559.931657","155326.544907","156093.193223","156843.138286","157609.736341","161492.891307","162259.541668","163026.186185","163792.800896","164559.439568","165326.347955","151493.376967","152260.042815","164564.745008"
"Mixed","Male","cave","17","F_reek.wav","space","661.558763678","425","160726.304064","153026.623045","153793.281004","154559.931657","155326.544907","156093.193223","156843.138286","157609.736341","161492.891307","162259.541668","163026.186185","163792.800896","164559.439568","165326.347955","166076.045221","152260.042815","165332.108664"
"Mixed","Male","cave","17","F_dime.wav","None","742.61516451","425","160726.304064","153026.623045","153793.281004","154559.931657","155326.544907","156093.193223","156843.138286","157609.736341","161492.891307","162259.541668","163026.186185","163792.800896","164559.439568","165326.347955","166076.045221","166842.654672","166081.051433"
"Mixed","Male","cave","17","M_priest.wav","None","740.497488712","425","160726.304064","167609.293052","153793.281004","154559.931657","155326.544907","156093.193223","156843.138286","157609.736341","161492.891307","162259.541668","163026.186185","163792.800896","164559.439568","165326.347955","166076.045221","166842.654672","166847.862804"
"Mixed","Male","cave","17","F_reek.wav","None","738.595759155","425","160726.304064","167609.293052","168376.029032","154559.931657","155326.544907","156093.193223","156843.138286","157609.736341","161492.891307","162259.541668","163026.186185","163792.800896","164559.439568","165326.347955","166076.045221","166842.654672","167614.323811"
"Mixed","Male","cave","17","M_cave.wav","None","736.468440289","425","160726.304064","167609.293052","168376.029032","169142.533286","155326.544907","156093.193223","156843.138286","157609.736341","161492.891307","162259.541668","163026.186185","163792.800896","164559.439568","165326.347955","166076.045221","166842.654672","168381.071187"
"Mixed","Male","cave","17","M_gnash.wav","space","661.651395557","425","160726.304064","167609.293052","168376.029032","169142.533286","169909.204979","156093.193223","156843.138286","157609.736341","161492.891307","162259.541668","163026.186185","163792.800896","164559.439568","165326.347955","166076.045221","166842.654672","169147.714243"
"Mixed","Male","cave","17","M_reek.wav","None","731.902302296","425","160726.304064","167609.293052","168376.029032","169142.533286","169909.204979","170675.822028","156843.138286","157609.736341","161492.891307","162259.541668","163026.186185","163792.800896","164559.439568","165326.347955","166076.045221","166842.654672","169914.328369"
"Mixed","Male","cave","17","M_cave.wav","None","729.445365893","425","160726.304064","167609.293052","168376.029032","169142.533286","169909.204979","170675.822028","171442.859572","157609.736341","161492.891307","162259.541668","163026.186185","163792.800896","164559.439568","165326.347955","166076.045221","166842.654672","170681.215716"
"Mixed","Male","cave","17","M_lash.wav","None","726.768100036","425","160726.304064","167609.293052","168376.029032","169142.533286","169909.204979","170675.822028","171442.859572","172192.424466","161492.891307","162259.541668","163026.186185","163792.800896","164559.439568","165326.347955","166076.045221","166842.654672","171448.351153"
"Mixed","Male","tile","26","F_romp.wav","space","0.0207472030597","425","175292.292443","167609.293052","168376.029032","169142.533286","169909.204979","170675.822028","171442.859572","172192.424466","161492.891307","162259.541668","163026.186185","163792.800896","164559.439568","165326.347955","166076.045221","166842.654672","172197.554577"
"Mixed","Male","tile","26","F_jaw.wav","None","742.045054743","425","175292.292443","167609.293052","168376.029032","169142.533286","169909.204979","170675.822028","171442.859572","172192.424466","176058.896342","162259.541668","163026.186185","163792.800896","164559.439568","165326.347955","166076.045221","166842.654672","175297.376385"
"Mixed","Male","tile","26","F_depth.wav","None","740.01270547","425","175292.292443","167609.293052","168376.029032","169142.533286","169909.204979","170675.822028","171442.859572","172192.424466","176058.896342","176825.501995","163026.186185","163792.800896","164559.439568","165326.347955","166076.045221","166842.654672","176064.058597"
"Mixed","Male","tile","26","F_gnash.wav","None","738.470983722","425","175292.292443","167609.293052","168376.029032","169142.533286","169909.204979","170675.822028","171442.859572","172192.424466","176058.896342","176825.501995","177592.132193","163792.800896","164559.439568","165326.347955","166076.045221","166842.654672","176830.667756"
"Mixed","Male","tile","26","M_tile.wav","None","736.549675818","425","175292.292443","167609.293052","168376.029032","169142.533286","169909.204979","170675.822028","171442.859572","172192.424466","176058.896342","176825.501995","177592.132193","178358.781093","164559.439568","165326.347955","166076.045221","166842.654672","177597.191588"
"Mixed","Male","tile","26","F_priest.wav","None","734.450993938","425","175292.292443","167609.293052","168376.029032","169142.533286","169909.204979","170675.822028","171442.859572","172192.424466","176058.896342","176825.501995","177592.132193","178358.781093","179125.413337","165326.347955","166076.045221","166842.654672","178363.933413"
"Mixed","Male","tile","26","M_jolt.wav","space","0.0201627745118","425","175292.292443","167609.293052","168376.029032","169142.533286","169909.204979","170675.822028","171442.859572","172192.424466","176058.896342","176825.501995","177592.132193","178358.781093","179125.413337","179892.066328","166076.045221","166842.654672","179130.579683"
"Mixed","Male","tile","26","M_tile.wav","None","730.132653526","425","175292.292443","167609.293052","168376.029032","169142.533286","169909.204979","170675.822028","171442.859572","172192.424466","176058.896342","176825.501995","177592.132193","178358.781093","179125.413337","179892.066328","180659.088093","166842.654672","179897.165172"
"Mixed","Male","tile","26","F_greet.wav","space","679.61818133","425","175292.292443","167609.293052","168376.029032","169142.533286","169909.204979","170675.822028","171442.859572","172192.424466","176058.896342","176825.501995","177592.132193","178358.781093","179125.413337","179892.066328","180659.088093","181408.709384","180664.739514"
"Mixed","Male","tile","26","M_cling.wav","None","742.264507555","425","175292.292443","182175.272665","168376.029032","169142.533286","169909.204979","170675.822028","171442.859572","172192.424466","176058.896342","176825.501995","177592.132193","178358.781093","179125.413337","179892.066328","180659.088093","181408.709384","181413.806475"
"Mixed","Male","tile","26","M_tile.wav","None","740.513852703","425","175292.292443","182175.272665","182941.921273","169142.533286","169909.204979","170675.822028","171442.859572","172192.424466","176058.896342","176825.501995","177592.132193","178358.781093","179125.413337","179892.066328","180659.088093","181408.709384","182180.300501"
"Mixed","Male","tile","26","F_park.wav","space","572.962361652","425","175292.292443","182175.272665","182941.921273","183708.544458","169909.204979","170675.822028","171442.859572","172192.424466","176058.896342","176825.501995","177592.132193","178358.781093","179125.413337","179892.066328","180659.088093","181408.709384","182947.299182"
"Mixed","Male","tile","26","M_gnash.wav","None","735.995345613","425","175292.292443","182175.272665","182941.921273","183708.544458","184475.202125","170675.822028","171442.859572","172192.424466","176058.896342","176825.501995","177592.132193","178358.781093","179125.413337","179892.066328","180659.088093","181408.709384","183713.636581"
"Mixed","Male","tile","26","M_priest.wav","None","734.209332852","425","175292.292443","182175.272665","182941.921273","183708.544458","184475.202125","185241.80953","171442.859572","172192.424466","176058.896342","176825.501995","177592.132193","178358.781093","179125.413337","179892.066328","180659.088093","181408.709384","184480.298631"
"Mixed","Male","tile","26","M_tile.wav","None","732.353480914","425","175292.292443","182175.272665","182941.921273","183708.544458","184475.202125","185241.80953","186008.415475","172192.424466","176058.896342","176825.501995","177592.132193","178358.781093","179125.413337","179892.066328","180659.088093","181408.709384","185246.856068"
"Mixed","Male","tile","26","F_romp.wav","space","706.512108769","425","175292.292443","182175.272665","182941.921273","183708.544458","184475.202125","185241.80953","186008.415475","186775.313633","176058.896342","176825.501995","177592.132193","178358.781093","179125.413337","179892.066328","180659.088093","181408.709384","186013.510813"
"Mixed","Male","cave","14","F_gnash.wav","None","726.795860378","425","189875.322166","182175.272665","182941.921273","183708.544458","184475.202125","185241.80953","186008.415475","186775.313633","176058.896342","176825.501995","177592.132193","178358.781093","179125.413337","179892.066328","180659.088093","181408.709384","186781.133662"
"Mixed","Male","cave","14","F_reek.wav","None","724.398535657","425","189875.322166","182175.272665","182941.921273","183708.544458","184475.202125","185241.80953","186008.415475","186775.313633","190624.878001","176825.501995","177592.132193","178358.781093","179125.413337","179892.066328","180659.088093","181408.709384","189880.686341"
"Mixed","Male","cave","14","M_cave.wav","None","739.689516643","425","189875.322166","182175.272665","182941.921273","183708.544458","184475.202125","185241.80953","186008.415475","186775.313633","190624.878001","191391.544726","177592.132193","178358.781093","179125.413337","179892.066328","180659.088093","181408.709384","190629.956098"
"Mixed","Male","cave","14","F_dime.wav","space","634.767403397","425","189875.322166","182175.272665","182941.921273","183708.544458","184475.202125","185241.80953","186008.415475","186775.313633","190624.878001","191391.544726","192158.119696","178358.781093","179125.413337","179892.066328","180659.088093","181408.709384","191396.839354"
"Mixed","Male","cave","14","M_cave.wav","None","735.140911497","425","189875.322166","182175.272665","182941.921273","183708.544458","184475.202125","185241.80953","186008.415475","186775.313633","190624.878001","191391.544726","192158.119696","192924.77181","179125.413337","179892.066328","180659.088093","181408.709384","192163.184351"
"Mixed","Male","cave","14","F_jolt.wav","space","613.554995284","425","189875.322166","182175.272665","182941.921273","183708.544458","184475.202125","185241.80953","186008.415475","186775.313633","190624.878001","191391.544726","192158.119696","192924.77181","193691.457237","179892.066328","180659.088093","181408.709384","192929.954812"
"Mixed","Male","cave","14","M_lash.wav","None","730.262688815","425","189875.322166","182175.272665","182941.921273","183708.544458","184475.202125","185241.80953","186008.415475","186775.313633","190624.878001","191391.544726","192158.119696","192924.77181","193691.457237","194458.446859","180659.088093","181408.709384","193696.707448"
"Mixed","Male","cave","14","M_cling.wav","None","727.697340969","425","189875.322166","182175.272665","182941.921273","183708.544458","184475.202125","185241.80953","186008.415475","186775.313633","190624.878001","191391.544726","192158.119696","192924.77181","193691.457237","194458.446859","195207.979316","181408.709384","194464.053279"
"Mixed","Male","cave","14","M_cave.wav","None","743.386902028","425","189875.322166","182175.272665","182941.921273","183708.544458","184475.202125","185241.80953","186008.415475","186775.313633","190624.878001","191391.544726","192158.119696","192924.77181","193691.457237","194458.446859","195207.979316","195974.610099","195213.053322"
"Mixed","Male","cave","14","F_dime.wav","space","635.506120717","425","189875.322166","196741.264843","182941.921273","183708.544458","184475.202125","185241.80953","186008.415475","186775.313633","190624.878001","191391.544726","192158.119696","192924.77181","193691.457237","194458.446859","195207.979316","195974.610099","195979.736119"
"Mixed","Male","cave","14","M_cave.wav","None","738.767288849","425","189875.322166","196741.264843","197507.879262","183708.544458","184475.202125","185241.80953","186008.415475","186775.313633","190624.878001","191391.544726","192158.119696","192924.77181","193691.457237","194458.446859","195207.979316","195974.610099","196746.460118"
"Mixed","Male","cave","14","F_lash.wav","space","590.069161241","425","189875.322166","196741.264843","197507.879262","198274.570825","184475.202125","185241.80953","186008.415475","186775.313633","190624.878001","191391.544726","192158.119696","192924.77181","193691.457237","194458.446859","195207.979316","195974.610099","197513.03275"
"Mixed","Male","cave","14","M_jaw.wav","None","734.056504862","425","189875.322166","196741.264843","197507.879262","198274.570825","199041.103132","185241.80953","186008.415475","186775.313633","190624.878001","191391.544726","192158.119696","192924.77181","193691.457237","194458.446859","195207.979316","195974.610099","198279.898181"
"Mixed","Male","cave","14","F_reek.wav","space","560.625665517","425","189875.322166","196741.264843","197507.879262","198274.570825","199041.103132","199807.799078","186008.415475","186775.313633","190624.878001","191391.544726","192158.119696","192924.77181","193691.457237","194458.446859","195207.979316","195974.610099","199046.358018"
"Mixed","Male","cave","14","F_greet.wav","None","734.274204389","425","189875.322166","196741.264843","197507.879262","198274.570825","199041.103132","199807.799078","200574.407653","186775.313633","190624.878001","191391.544726","192158.119696","192924.77181","193691.457237","194458.446859","195207.979316","195974.610099","199809.417068"
"Mixed","Male","cave","14","M_lash.wav","None","729.280849338","425","189875.322166","196741.264843","197507.879262","198274.570825","199041.103132","199807.799078","200574.407653","201341.247661","190624.878001","191391.544726","192158.119696","192924.77181","193691.457237","194458.446859","195207.979316","195974.610099","200579.768613"
"Mixed","Female","ball","11","M_jolt.wav","None","727.154407115","425","204424.221571","196741.264843","197507.879262","198274.570825","199041.103132","199807.799078","200574.407653","201341.247661","190624.878001","191391.544726","192158.119696","192924.77181","193691.457237","194458.446859","195207.979316","195974.610099","201346.986162"
"Mixed","Female","ball","11","F_ball.wav","None","741.916188313","425","204424.221571","196741.264843","197507.879262","198274.570825","199041.103132","199807.799078","200574.407653","201341.247661","205190.877776","191391.544726","192158.119696","192924.77181","193691.457237","194458.446859","195207.979316","195974.610099","204429.247946"
"Mixed","Female","ball","11","M_cling.wav","space","594.767672234","425","204424.221571","196741.264843","197507.879262","198274.570825","199041.103132","199807.799078","200574.407653","201341.247661","205190.877776","205957.484305","192158.119696","192924.77181","193691.457237","194458.446859","195207.979316","195974.610099","205195.813273"
"Mixed","Female","ball","11","M_dime.wav","None","737.156604566","425","204424.221571","196741.264843","197507.879262","198274.570825","199041.103132","199807.799078","200574.407653","201341.247661","205190.877776","205957.484305","206724.177914","192924.77181","193691.457237","194458.446859","195207.979316","195974.610099","205962.757894"
"Mixed","Female","ball","11","F_romp.wav","None","735.396014433","425","204424.221571","196741.264843","197507.879262","198274.570825","199041.103132","199807.799078","200574.407653","201341.247661","205190.877776","205957.484305","206724.177914","207490.705253","193691.457237","194458.446859","195207.979316","195974.610099","206729.326727"
"Mixed","Female","ball","11","M_reek.wav","None","733.710231119","425","204424.221571","196741.264843","197507.879262","198274.570825","199041.103132","199807.799078","200574.407653","201341.247661","205190.877776","205957.484305","206724.177914","207490.705253","208257.34188","194458.446859","195207.979316","195974.610099","207495.759096"
"Mixed","Female","ball","11","F_ball.wav","None","731.989089893","425","204424.221571","196741.264843","197507.879262","198274.570825","199041.103132","199807.799078","200574.407653","201341.247661","205190.877776","205957.484305","206724.177914","207490.705253","208257.34188","209023.996624","195207.979316","195974.610099","208262.41501"
"Mixed","Female","ball","11","M_gnash.wav","space","569.155980396","425","204424.221571","196741.264843","197507.879262","198274.570825","199041.103132","199807.799078","200574.407653","201341.247661","205190.877776","205957.484305","206724.177914","207490.705253","208257.34188","209023.996624","209790.908225","195974.610099","209029.032643"
"Mixed","Female","ball","11","M_park.wav","None","726.884693473","425","204424.221571","196741.264843","197507.879262","198274.570825","199041.103132","199807.799078","200574.407653","201341.247661","205190.877776","205957.484305","206724.177914","207490.705253","208257.34188","209023.996624","209790.908225","210540.650492","209796.733514"
"Mixed","Female","ball","11","F_ball.wav","None","742.716270599","425","204424.221571","211307.228092","197507.879262","198274.570825","199041.103132","199807.799078","200574.407653","201341.247661","205190.877776","205957.484305","206724.177914","207490.705253","208257.34188","209023.996624","209790.908225","210540.650492","210545.717193"
"Mixed","Female","ball","11","F_bluff.wav","space","541.638468003","425","204424.221571","211307.228092","212073.884882","198274.570825","199041.103132","199807.799078","200574.407653","201341.247661","205190.877776","205957.484305","206724.177914","207490.705253","208257.34188","209023.996624","209790.908225","210540.650492","211312.412555"
"Mixed","Female","ball","11","M_jolt.wav","None","738.396761332","425","204424.221571","211307.228092","212073.884882","212840.448747","199041.103132","199807.799078","200574.407653","201341.247661","205190.877776","205957.484305","206724.177914","207490.705253","208257.34188","209023.996624","209790.908225","210540.650492","212078.980219"
"Mixed","Female","ball","11","F_ball.wav","None","737.516612374","425","204424.221571","211307.228092","212073.884882","212840.448747","213607.130083","199807.799078","200574.407653","201341.247661","205190.877776","205957.484305","206724.177914","207490.705253","208257.34188","209023.996624","209790.908225","210540.650492","212845.390381"
"Mixed","Female","ball","11","F_jaw.wav","space","505.565218103","425","204424.221571","211307.228092","212073.884882","212840.448747","213607.130083","214373.722878","200574.407653","201341.247661","205190.877776","205957.484305","206724.177914","207490.705253","208257.34188","209023.996624","209790.908225","210540.650492","213612.25961"
"Mixed","Female","ball","11","F_cad.wav","None","733.429705554","425","204424.221571","211307.228092","212073.884882","212840.448747","213607.130083","214373.722878","215140.3522","201341.247661","205190.877776","205957.484305","206724.177914","207490.705253","208257.34188","209023.996624","209790.908225","210540.650492","214378.909387"
"Mixed","Female","ball","11","M_romp.wav","None","735.11490444","425","204424.221571","211307.228092","212073.884882","212840.448747","213607.130083","214373.722878","215140.3522","215907.034705","205190.877776","205957.484305","206724.177914","207490.705253","208257.34188","209023.996624","209790.908225","210540.650492","215142.029801"
"Mixed","Male","cave","18","M_dime.wav","None","729.919629426","425","219006.828168","211307.228092","212073.884882","212840.448747","213607.130083","214373.722878","215140.3522","215907.034705","205190.877776","205957.484305","206724.177914","207490.705253","208257.34188","209023.996624","209790.908225","210540.650492","215912.084165"
"Mixed","Male","cave","18","F_gnash.wav","None","742.015833331","425","219006.828168","211307.228092","212073.884882","212840.448747","213607.130083","214373.722878","215140.3522","215907.034705","219773.472392","205957.484305","206724.177914","207490.705253","208257.34188","209023.996624","209790.908225","210540.650492","219011.804282"
"Mixed","Male","cave","18","M_cave.wav","None","739.973548777","425","219006.828168","211307.228092","212073.884882","212840.448747","213607.130083","214373.722878","215140.3522","215907.034705","219773.472392","220540.116909","206724.177914","207490.705253","208257.34188","209023.996624","209790.908225","210540.650492","219778.501982"
"Mixed","Male","cave","18","F_priest.wav","space","619.736200772","425","219006.828168","211307.228092","212073.884882","212840.448747","213607.130083","214373.722878","215140.3522","215907.034705","219773.472392","220540.116909","221306.817239","207490.705253","208257.34188","209023.996624","209790.908225","210540.650492","220545.555014"
"Mixed","Male","cave","18","M_cave.wav","None","735.322376472","425","219006.828168","211307.228092","212073.884882","212840.448747","213607.130083","214373.722878","215140.3522","215907.034705","219773.472392","220540.116909","221306.817239","222073.386949","208257.34188","209023.996624","209790.908225","210540.650492","221311.793061"
"Mixed","Male","cave","18","F_priest.wav","space","670.6483764","425","219006.828168","211307.228092","212073.884882","212840.448747","213607.130083","214373.722878","215140.3522","215907.034705","219773.472392","220540.116909","221306.817239","222073.386949","222840.013348","209023.996624","209790.908225","210540.650492","222078.49456"
"Mixed","Male","cave","18","M_romp.wav","None","730.994977424","425","219006.828168","211307.228092","212073.884882","212840.448747","213607.130083","214373.722878","215140.3522","215907.034705","219773.472392","220540.116909","221306.817239","222073.386949","222840.013348","223606.662833","209790.908225","210540.650492","222845.050828"
"Mixed","Male","cave","18","M_cave.wav","None","729.46991188","425","219006.828168","211307.228092","212073.884882","212840.448747","213607.130083","214373.722878","215140.3522","215907.034705","219773.472392","220540.116909","221306.817239","222073.386949","222840.013348","223606.662833","224373.606285","210540.650492","223611.502483"
"Mixed","Male","cave","18","M_gnash.wav","space","665.437614037","425","219006.828168","211307.228092","212073.884882","212840.448747","213607.130083","214373.722878","215140.3522","215907.034705","219773.472392","220540.116909","221306.817239","222073.386949","222840.013348","223606.662833","224373.606285","225123.264686","224379.485049"
"Mixed","Male","cave","18","M_cave.wav","None","741.30049314","425","219006.828168","225889.870923","212073.884882","212840.448747","213607.130083","214373.722878","215140.3522","215907.034705","219773.472392","220540.116909","221306.817239","222073.386949","222840.013348","223606.662833","224373.606285","225123.264686","225128.499118"
"Mixed","Male","cave","18","F_romp.wav","space","733.833545481","425","219006.828168","225889.870923","226656.489433","212840.448747","213607.130083","214373.722878","215140.3522","215907.034705","219773.472392","220540.116909","221306.817239","222073.386949","222840.013348","223606.662833","224373.606285","225123.264686","225894.979118"
"Mixed","Male","cave","18","F_greet.wav","None","737.087057602","425","219006.828168","225889.870923","226656.489433","227423.12343","213607.130083","214373.722878","215140.3522","215907.034705","219773.472392","220540.116909","221306.817239","222073.386949","222840.013348","223606.662833","224373.606285","225123.264686","226661.775587"
"Mixed","Male","cave","18","M_gnash.wav","None","735.942454856","425","219006.828168","225889.870923","226656.489433","227423.12343","228189.755382","214373.722878","215140.3522","215907.034705","219773.472392","220540.116909","221306.817239","222073.386949","222840.013348","223606.662833","224373.606285","225123.264686","227428.247405"
"Mixed","Male","cave","18","F_dime.wav","None","734.104427978","425","219006.828168","225889.870923","226656.489433","227423.12343","228189.755382","228956.353436","215140.3522","215907.034705","219773.472392","220540.116909","221306.817239","222073.386949","222840.013348","223606.662833","224373.606285","225123.264686","228194.997119"
"Mixed","Male","cave","18","F_gnash.wav","None","732.997520856","425","219006.828168","225889.870923","226656.489433","227423.12343","228189.755382","228956.353436","229722.995031","215907.034705","219773.472392","220540.116909","221306.817239","222073.386949","222840.013348","223606.662833","224373.606285","225123.264686","228961.502542"
"Mixed","Male","cave","18","F_romp.wav","None","731.4143047","425","219006.828168","225889.870923","226656.489433","227423.12343","228189.755382","228956.353436","229722.995031","230489.656789","219773.472392","220540.116909","221306.817239","222073.386949","222840.013348","223606.662833","224373.606285","225123.264686","229728.156702"
"Mixed","Female","ball","9","M_romp.wav","None","729.576862252","425","233589.539377","225889.870923","226656.489433","227423.12343","228189.755382","228956.353436","229722.995031","230489.656789","219773.472392","220540.116909","221306.817239","222073.386949","222840.013348","223606.662833","224373.606285","225123.264686","230494.951124"
"Mixed","Female","ball","9","M_cad.wav","None","742.001222624","425","233589.539377","225889.870923","226656.489433","227423.12343","228189.755382","228956.353436","229722.995031","230489.656789","234356.117561","220540.116909","221306.817239","222073.386949","222840.013348","223606.662833","224373.606285","225123.264686","233594.651955"
"Mixed","Female","ball","9","M_depth.wav","None","740.389661698","425","233589.539377","225889.870923","226656.489433","227423.12343","228189.755382","228956.353436","229722.995031","230489.656789","234356.117561","235122.794514","221306.817239","222073.386949","222840.013348","223606.662833","224373.606285","225123.264686","234361.343227"
"Mixed","Female","ball","9","F_lash.wav","None","739.021807356","425","233589.539377","225889.870923","226656.489433","227423.12343","228189.755382","228956.353436","229722.995031","230489.656789","234356.117561","235122.794514","235889.403965","222073.386949","222840.013348","223606.662833","224373.606285","225123.264686","235127.823227"
"Mixed","Female","ball","9","F_ball.wav","None","737.37839509","425","233589.539377","225889.870923","226656.489433","227423.12343","228189.755382","228956.353436","229722.995031","230489.656789","234356.117561","235122.794514","235889.403965","236656.030949","222840.013348","223606.662833","224373.606285","225123.264686","235894.525602"
"Mixed","Female","ball","9","F_lash.wav","space","574.758601908","425","233589.539377","225889.870923","226656.489433","227423.12343","228189.755382","228956.353436","229722.995031","230489.656789","234356.117561","235122.794514","235889.403965","236656.030949","237422.689492","223606.662833","224373.606285","225123.264686","236661.194373"
"Mixed","Female","ball","9","M_jaw.wav","None","733.051872683","425","233589.539377","225889.870923","226656.489433","227423.12343","228189.755382","228956.353436","229722.995031","230489.656789","234356.117561","235122.794514","235889.403965","236656.030949","237422.689492","238189.288424","224373.606285","225123.264686","237427.816097"
"Mixed","Female","ball","9","M_gnash.wav","None","731.401447278","425","233589.539377","225889.870923","226656.489433","227423.12343","228189.755382","228956.353436","229722.995031","230489.656789","234356.117561","235122.794514","235889.403965","236656.030949","237422.689492","238189.288424","238955.920375","225123.264686","238194.352202"
"Mixed","Female","ball","9","F_ball.wav","None","729.51520507","425","233589.539377","225889.870923","226656.489433","227423.12343","228189.755382","228956.353436","229722.995031","230489.656789","234356.117561","235122.794514","235889.403965","236656.030949","237422.689492","238189.288424","238955.920375","239722.785514","238961.213834"
"Mixed","Female","ball","9","M_depth.wav","space","499.093843983","425","233589.539377","240472.520183","226656.489433","227423.12343","228189.755382","228956.353436","229722.995031","230489.656789","234356.117561","235122.794514","235889.403965","236656.030949","237422.689492","238189.288424","238955.920375","239722.785514","239728.65931"
"Mixed","Female","ball","9","M_gnash.wav","None","742.652567919","425","233589.539377","240472.520183","241239.179019","227423.12343","228189.755382","228956.353436","229722.995031","230489.656789","234356.117561","235122.794514","235889.403965","236656.030949","237422.689492","238189.288424","238955.920375","239722.785514","240477.569351"
"Mixed","Female","ball","9","F_ball.wav","None","741.119612595","425","233589.539377","240472.520183","241239.179019","242005.779703","228189.755382","228956.353436","229722.995031","230489.656789","234356.117561","235122.794514","235889.403965","236656.030949","237422.689492","238189.288424","238955.920375","239722.785514","241244.266467"
"Mixed","Female","ball","9","F_dime.wav","space","520.549666467","425","233589.539377","240472.520183","241239.179019","242005.779703","242772.406395","228956.353436","229722.995031","230489.656789","234356.117561","235122.794514","235889.403965","236656.030949","237422.689492","238189.288424","238955.920375","239722.785514","242010.992803"
"Mixed","Female","ball","9","F_ball.wav","None","736.955561244","425","233589.539377","240472.520183","241239.179019","242005.779703","242772.406395","243539.047698","229722.995031","230489.656789","234356.117561","235122.794514","235889.403965","236656.030949","237422.689492","238189.288424","238955.920375","239722.785514","242777.448258"
"Mixed","Female","ball","9","M_knife.wav","None","735.476373319","425","233589.539377","240472.520183","241239.179019","242005.779703","242772.406395","243539.047698","244305.69163","230489.656789","234356.117561","235122.794514","235889.403965","236656.030949","237422.689492","238189.288424","238955.920375","239722.785514","243543.986701"
"Mixed","Female","ball","9","F_dime.wav","space","20.7995095479","425","233589.539377","240472.520183","241239.179019","242005.779703","242772.406395","243539.047698","244305.69163","245072.27712","234356.117561","235122.794514","235889.403965","236656.030949","237422.689492","238189.288424","238955.920375","239722.785514","244310.589139"
"Mixed","Male","done","41","M_romp.wav","None","731.645153863","425","248155.498535","240472.520183","241239.179019","242005.779703","242772.406395","243539.047698","244305.69163","245072.27712","234356.117561","235122.794514","235889.403965","236656.030949","237422.689492","238189.288424","238955.920375","239722.785514","245077.308755"
"Mixed","Male","done","41","F_romp.wav","space","0.0210394173337","425","248155.498535","240472.520183","241239.179019","242005.779703","242772.406395","243539.047698","244305.69163","245072.27712","248922.075258","235122.794514","235889.403965","236656.030949","237422.689492","238189.288424","238955.920375","239722.785514","248160.664004"
"Mixed","Male","done","41","M_done.wav","None","739.632534887","425","248155.498535","240472.520183","241239.179019","242005.779703","242772.406395","243539.047698","244305.69163","245072.27712","248922.075258","249688.748704","235889.403965","236656.030949","237422.689492","238189.288424","238955.920375","239722.785514","248927.210337"
"Mixed","Male","done","41","F_romp.wav","space","733.107101154","425","248155.498535","240472.520183","241239.179019","242005.779703","242772.406395","243539.047698","244305.69163","245072.27712","248922.075258","249688.748704","250455.355233","236656.030949","237422.689492","238189.288424","238955.920375","239722.785514","249693.785307"
"Mixed","Male","done","41","M_done.wav","None","735.391046793","425","248155.498535","240472.520183","241239.179019","242005.779703","242772.406395","243539.047698","244305.69163","245072.27712","248922.075258","249688.748704","250455.355233","251222.002964","237422.689492","238189.288424","238955.920375","239722.785514","250460.697784"
"Mixed","Male","done","41","M_depth.wav","space","607.517266933","425","248155.498535","240472.520183","241239.179019","242005.779703","242772.406395","243539.047698","244305.69163","245072.27712","248922.075258","249688.748704","250455.355233","251222.002964","251988.617091","238189.288424","238955.920375","239722.785514","251227.217525"
"Mixed","Male","done","41","M_done.wav","None","731.369595937","425","248155.498535","240472.520183","241239.179019","242005.779703","242772.406395","243539.047698","244305.69163","245072.27712","248922.075258","249688.748704","250455.355233","251222.002964","251988.617091","252755.278556","238955.920375","239722.785514","251993.782852"
"Mixed","Male","done","41","M_lash.wav","None","729.683228195","425","248155.498535","240472.520183","241239.179019","242005.779703","242772.406395","243539.047698","244305.69163","245072.27712","248922.075258","249688.748704","250455.355233","251222.002964","251988.617091","252755.278556","253522.269054","239722.785514","252760.466526"
"Mixed","Male","done","41","F_bluff.wav","space","10.7315639188","425","248155.498535","240472.520183","241239.179019","242005.779703","242772.406395","243539.047698","244305.69163","245072.27712","248922.075258","249688.748704","250455.355233","251222.002964","251988.617091","252755.278556","253522.269054","254271.898527","253527.980672"
"Mixed","Male","done","41","F_priest.wav","None","742.104081998","425","248155.498535","255038.493367","241239.179019","242005.779703","242772.406395","243539.047698","244305.69163","245072.27712","248922.075258","249688.748704","250455.355233","251222.002964","251988.617091","252755.278556","253522.269054","254271.898527","254277.146108"
"Mixed","Male","done","41","F_lash.wav","None","740.678077044","425","248155.498535","255038.493367","255805.150449","242005.779703","242772.406395","243539.047698","244305.69163","245072.27712","248922.075258","249688.748704","250455.355233","251222.002964","251988.617091","252755.278556","253522.269054","254271.898527","255043.616173"
"Mixed","Male","done","41","M_done.wav","None","739.203856759","425","248155.498535","255038.493367","255805.150449","256571.777726","242772.406395","243539.047698","244305.69163","245072.27712","248922.075258","249688.748704","250455.355233","251222.002964","251988.617091","252755.278556","253522.269054","254271.898527","255810.306568"
"Mixed","Male","done","41","F_gnash.wav","space","585.359546109","425","248155.498535","255038.493367","255805.150449","256571.777726","257338.345682","243539.047698","244305.69163","245072.27712","248922.075258","249688.748704","250455.355233","251222.002964","251988.617091","252755.278556","253522.269054","254271.898527","256577.052191"
"Mixed","Male","done","41","F_greet.wav","None","735.463515897","425","248155.498535","255038.493367","255805.150449","256571.777726","257338.345682","258105.00481","244305.69163","245072.27712","248922.075258","249688.748704","250455.355233","251222.002964","251988.617091","252755.278556","253522.269054","254271.898527","257343.508814"
"Mixed","Male","done","41","F_cling.wav","None","734.11085669","425","248155.498535","255038.493367","255805.150449","256571.777726","257338.345682","258105.00481","258871.644359","245072.27712","248922.075258","249688.748704","250455.355233","251222.002964","251988.617091","252755.278556","253522.269054","254271.898527","258110.060407"
"Mixed","Male","done","41","M_jaw.wav","None","732.496081408","425","248155.498535","255038.493367","255805.150449","256571.777726","257338.345682","258105.00481","258871.644359","259638.277772","248922.075258","249688.748704","250455.355233","251222.002964","251988.617091","252755.278556","253522.269054","254271.898527","258876.704339"
"Mixed","Male","done","38","M_lash.wav","None","730.98124336","425","262721.496849","255038.493367","255805.150449","256571.777726","257338.345682","258105.00481","258871.644359","259638.277772","248922.075258","249688.748704","250455.355233","251222.002964","251988.617091","252755.278556","253522.269054","254271.898527","259643.370772"
"Mixed","Male","done","38","M_reek.wav","None","741.636831604","425","262721.496849","255038.493367","255805.150449","256571.777726","257338.345682","258105.00481","258871.644359","259638.277772","263488.115067","249688.748704","250455.355233","251222.002964","251988.617091","252755.278556","253522.269054","254271.898527","262726.741801"
"Mixed","Male","done","38","F_cad.wav","None","740.245892346","425","262721.496849","255038.493367","255805.150449","256571.777726","257338.345682","258105.00481","258871.644359","259638.277772","263488.115067","264254.725979","250455.355233","251222.002964","251988.617091","252755.278556","253522.269054","254271.898527","263493.263003"
"Mixed","Male","done","38","M_jolt.wav","None","738.804400044","425","262721.496849","255038.493367","255805.150449","256571.777726","257338.345682","258105.00481","258871.644359","259638.277772","263488.115067","264254.725979","265021.357639","251222.002964","251988.617091","252755.278556","253522.269054","254271.898527","264259.865441"
"Mixed","Male","done","38","M_done.wav","None","737.169754201","425","262721.496849","255038.493367","255805.150449","256571.777726","257338.345682","258105.00481","258871.644359","259638.277772","263488.115067","264254.725979","265021.357639","265788.062059","251988.617091","252755.278556","253522.269054","254271.898527","265026.67389"
"Mixed","Male","done","38","F_romp.wav","space","608.515762615","425","262721.496849","255038.493367","255805.150449","256571.777726","257338.345682","258105.00481","258871.644359","259638.277772","263488.115067","264254.725979","265021.357639","265788.062059","266554.616574","252755.278556","253522.269054","254271.898527","265793.15652"
"Mixed","Male","done","38","F_romp.wav","None","733.479966383","425","262721.496849","255038.493367","255805.150449","256571.777726","257338.345682","258105.00481","258871.644359","259638.277772","263488.115067","264254.725979","265021.357639","265788.062059","266554.616574","267321.22135","253522.269054","254271.898527","266559.673047"
"Mixed","Male","done","38","M_cad.wav","None","731.907269937","425","262721.496849","255038.493367","255805.150449","256571.777726","257338.345682","258105.00481","258871.644359","259638.277772","263488.115067","264254.725979","265021.357639","265788.062059","266554.616574","267321.22135","268087.839275","254271.898527","267326.361104"
"Mixed","Male","done","38","F_depth.wav","None","730.399737241","425","262721.496849","255038.493367","255805.150449","256571.777726","257338.345682","258105.00481","258871.644359","259638.277772","263488.115067","264254.725979","265021.357639","265788.062059","266554.616574","267321.22135","268087.839275","268854.481747","268092.968218"
"Mixed","Male","done","38","M_done.wav","None","728.689992367","425","262721.496849","269621.441562","255805.150449","256571.777726","257338.345682","258105.00481","258871.644359","259638.277772","263488.115067","264254.725979","265021.357639","265788.062059","266554.616574","267321.22135","268087.839275","268854.481747","268859.88011"
"Mixed","Male","done","38","F_depth.wav","space","670.535289531","425","262721.496849","269621.441562","270371.088276","256571.777726","257338.345682","258105.00481","258871.644359","259638.277772","263488.115067","264254.725979","265021.357639","265788.062059","266554.616574","267321.22135","268087.839275","268854.481747","269626.849277"
"Mixed","Male","done","38","M_done.wav","None","741.719235989","425","262721.496849","269621.441562","270371.088276","271137.79445","257338.345682","258105.00481","258871.644359","259638.277772","263488.115067","264254.725979","265021.357639","265788.062059","266554.616574","267321.22135","268087.839275","268854.481747","270376.065267"
"Mixed","Male","done","38","F_gnash.wav","space","618.370976357","425","262721.496849","269621.441562","270371.088276","271137.79445","271904.347796","258105.00481","258871.644359","259638.277772","263488.115067","264254.725979","265021.357639","265788.062059","266554.616574","267321.22135","268087.839275","268854.481747","271142.865534"
"Mixed","Male","done","38","M_done.wav","None","737.300373918","425","262721.496849","269621.441562","270371.088276","271137.79445","271904.347796","272670.985007","258871.644359","259638.277772","263488.115067","264254.725979","265021.357639","265788.062059","266554.616574","267321.22135","268087.839275","268854.481747","271909.594793"
"Mixed","Male","done","38","F_cling.wav","space","548.808233893","425","262721.496849","269621.441562","270371.088276","271137.79445","271904.347796","272670.985007","273437.642966","259638.277772","263488.115067","264254.725979","265021.357639","265788.062059","266554.616574","267321.22135","268087.839275","268854.481747","272676.278174"
"Mixed","Male","done","38","F_park.wav","None","733.448407258","425","262721.496849","269621.441562","270371.088276","271137.79445","271904.347796","272670.985007","273437.642966","274204.249495","263488.115067","264254.725979","265021.357639","265788.062059","266554.616574","267321.22135","268087.839275","268854.481747","273442.622587"
"Mixed","Female","ball","10","M_lash.wav","None","731.831586477","425","277304.155168","269621.441562","270371.088276","271137.79445","271904.347796","272670.985007","273437.642966","274204.249495","263488.115067","264254.725979","265021.357639","265788.062059","266554.616574","267321.22135","268087.839275","268854.481747","274209.3986"
"Mixed","Female","ball","10","F_cad.wav","None","741.742320905","425","277304.155168","269621.441562","270371.088276","271137.79445","271904.347796","272670.985007","273437.642966","274204.249495","278070.716696","264254.725979","265021.357639","265788.062059","266554.616574","267321.22135","268087.839275","268854.481747","277309.520512"
"Mixed","Female","ball","10","M_jolt.wav","None","740.57521767","425","277304.155168","269621.441562","270371.088276","271137.79445","271904.347796","272670.985007","273437.642966","274204.249495","278070.716696","278837.356537","265021.357639","265788.062059","266554.616574","267321.22135","268087.839275","268854.481747","278075.8471"
"Mixed","Female","ball","10","F_ball.wav","None","739.041093489","425","277304.155168","269621.441562","270371.088276","271137.79445","271904.347796","272670.985007","273437.642966","274204.249495","278070.716696","278837.356537","279603.977093","265788.062059","266554.616574","267321.22135","268087.839275","268854.481747","278842.438141"
"Mixed","Female","ball","10","M_gnash.wav","space","479.48335373","425","277304.155168","269621.441562","270371.088276","271137.79445","271904.347796","272670.985007","273437.642966","274204.249495","278070.716696","278837.356537","279603.977093","280370.590635","266554.616574","267321.22135","268087.839275","268854.481747","279609.048761"
"Mixed","Female","ball","10","F_ball.wav","None","735.070780106","425","277304.155168","269621.441562","270371.088276","271137.79445","271904.347796","272670.985007","273437.642966","274204.249495","278070.716696","278837.356537","279603.977093","280370.590635","281137.239827","267321.22135","268087.839275","268854.481747","280375.882341"
"Mixed","Female","ball","10","F_bluff.wav","space","498.126907428","425","277304.155168","269621.441562","270371.088276","271137.79445","271904.347796","272670.985007","273437.642966","274204.249495","278070.716696","278837.356537","279603.977093","280370.590635","281137.239827","281903.932267","268087.839275","268854.481747","281142.226461"
"Mixed","Female","ball","10","M_cling.wav","None","731.283100555","425","277304.155168","269621.441562","270371.088276","271137.79445","271904.347796","272670.985007","273437.642966","274204.249495","278070.716696","278837.356537","279603.977093","280370.590635","281137.239827","281903.932267","282670.521555","268854.481747","281909.030819"
"Mixed","Female","ball","10","M_depth.wav","None","730.05930778","425","277304.155168","269621.441562","270371.088276","271137.79445","271904.347796","272670.985007","273437.642966","274204.249495","278070.716696","278837.356537","279603.977093","280370.590635","281137.239827","281903.932267","282670.521555","283437.111136","282675.644069"
"Mixed","Female","ball","10","M_park.wav","None","728.953277298","425","277304.155168","284204.329561","270371.088276","271137.79445","271904.347796","272670.985007","273437.642966","274204.249495","278070.716696","278837.356537","279603.977093","280370.590635","281137.239827","281903.932267","282670.521555","283437.111136","283442.145109"
"Mixed","Female","ball","10","F_ball.wav","None","726.490496612","425","277304.155168","284204.329561","284953.762666","271137.79445","271904.347796","272670.985007","273437.642966","274204.249495","278070.716696","278837.356537","279603.977093","280370.590635","281137.239827","281903.932267","282670.521555","283437.111136","284209.949131"
"Mixed","Female","ball","10","F_park.wav","space","497.228933406","425","277304.155168","284204.329561","284953.762666","285720.42004","271904.347796","272670.985007","273437.642966","274204.249495","278070.716696","278837.356537","279603.977093","280370.590635","281137.239827","281903.932267","282670.521555","283437.111136","284958.894531"
"Mixed","Female","ball","10","M_cad.wav","None","740.400473621","425","277304.155168","284204.329561","284953.762666","285720.42004","286487.009913","272670.985007","273437.642966","274204.249495","278070.716696","278837.356537","279603.977093","280370.590635","281137.239827","281903.932267","282670.521555","283437.111136","285725.560379"
"Mixed","Female","ball","10","F_ball.wav","None","739.084633394","425","277304.155168","284204.329561","284953.762666","285720.42004","286487.009913","287253.666995","273437.642966","274204.249495","278070.716696","278837.356537","279603.977093","280370.590635","281137.239827","281903.932267","282670.521555","283437.111136","286492.207818"
"Mixed","Female","ball","10","F_greet.wav","space","517.583985264","425","277304.155168","284204.329561","284953.762666","285720.42004","286487.009913","287253.666995","288020.253654","274204.249495","278070.716696","278837.356537","279603.977093","280370.590635","281137.239827","281903.932267","282670.521555","283437.111136","287258.383623"
"Mixed","Female","ball","10","M_knife.wav","None","735.497412736","425","277304.155168","284204.329561","284953.762666","285720.42004","286487.009913","287253.666995","288020.253654","288786.891449","278070.716696","278837.356537","279603.977093","280370.590635","281137.239827","281903.932267","282670.521555","283437.111136","288025.516138"
"Mixed","Female","cave","20","M_cling.wav","None","734.222190274","425","291903.418262","284204.329561","284953.762666","285720.42004","286487.009913","287253.666995","288020.253654","288786.891449","278070.716696","278837.356537","279603.977093","280370.590635","281137.239827","281903.932267","282670.521555","283437.111136","288792.111563"
"Mixed","Female","cave","20","F_cave.wav","None","742.474609515","425","291903.418262","284204.329561","284953.762666","285720.42004","286487.009913","287253.666995","288020.253654","288786.891449","292670.12093","278837.356537","279603.977093","280370.590635","281137.239827","281903.932267","282670.521555","283437.111136","291908.57292"
"Mixed","Female","cave","20","M_greet.wav","space","572.175429","425","291903.418262","284204.329561","284953.762666","285720.42004","286487.009913","287253.666995","288020.253654","288786.891449","292670.12093","293436.637165","279603.977093","280370.590635","281137.239827","281903.932267","282670.521555","283437.111136","292675.376693"
"Mixed","Female","cave","20","M_romp.wav","None","738.71995016","425","291903.418262","284204.329561","284953.762666","285720.42004","286487.009913","287253.666995","288020.253654","288786.891449","292670.12093","293436.637165","294203.329897","280370.590635","281137.239827","281903.932267","282670.521555","283437.111136","293441.689255"
"Mixed","Female","cave","20","F_cave.wav","None","737.250697515","425","291903.418262","284204.329561","284953.762666","285720.42004","286487.009913","287253.666995","288020.253654","288786.891449","292670.12093","293436.637165","294203.329897","294969.917432","281137.239827","281903.932267","282670.521555","283437.111136","294208.490398"
"Mixed","Female","cave","20","F_lash.wav","space","608.299816373","425","291903.418262","284204.329561","284953.762666","285720.42004","286487.009913","287253.666995","288020.253654","288786.891449","292670.12093","293436.637165","294203.329897","294969.917432","295736.592924","281903.932267","282670.521555","283437.111136","294975.011309"
"Mixed","Female","cave","20","M_bluff.wav","None","733.461556894","425","291903.418262","284204.329561","284953.762666","285720.42004","286487.009913","287253.666995","288020.253654","288786.891449","292670.12093","293436.637165","294203.329897","294969.917432","295736.592924","296503.21757","282670.521555","283437.111136","295741.773296"
"Mixed","Female","cave","20","F_cave.wav","None","732.174645866","425","291903.418262","284204.329561","284953.762666","285720.42004","286487.009913","287253.666995","288020.253654","288786.891449","292670.12093","293436.637165","294203.329897","294969.917432","295736.592924","296503.21757","297269.84806","283437.111136","296508.353818"
"Mixed","Female","cave","20","F_park.wav","space","676.354441713","425","291903.418262","284204.329561","284953.762666","285720.42004","286487.009913","287253.666995","288020.253654","288786.891449","292670.12093","293436.637165","294203.329897","294969.917432","295736.592924","296503.21757","297269.84806","298036.676088","297274.699984"
"Mixed","Female","cave","20","M_romp.wav","None","727.52551906","425","291903.418262","298786.432673","284953.762666","285720.42004","286487.009913","287253.666995","288020.253654","288786.891449","292670.12093","293436.637165","294203.329897","294969.917432","295736.592924","296503.21757","297269.84806","298036.676088","298042.483843"
"Mixed","Female","cave","20","F_bluff.wav","None","743.473981838","425","291903.418262","298786.432673","299553.04943","285720.42004","286487.009913","287253.666995","288020.253654","288786.891449","292670.12093","293436.637165","294203.329897","294969.917432","295736.592924","296503.21757","297269.84806","298036.676088","298791.701294"
"Mixed","Female","cave","20","F_park.wav","None","742.163985894","425","291903.418262","298786.432673","299553.04943","300319.662387","286487.009913","287253.666995","288020.253654","288786.891449","292670.12093","293436.637165","294203.329897","294969.917432","295736.592924","296503.21757","297269.84806","298036.676088","299558.263114"
"Mixed","Female","cave","20","F_cave.wav","None","740.979349812","425","291903.418262","298786.432673","299553.04943","300319.662387","301086.309534","287253.666995","288020.253654","288786.891449","292670.12093","293436.637165","294203.329897","294969.917432","295736.592924","296503.21757","297269.84806","298036.676088","300324.722952"
"Mixed","Female","cave","20","M_lash.wav","space","611.503359878","425","291903.418262","298786.432673","299553.04943","300319.662387","301086.309534","301852.905544","288020.253654","288786.891449","292670.12093","293436.637165","294203.329897","294969.917432","295736.592924","296503.21757","297269.84806","298036.676088","301091.370099"
"Mixed","Female","cave","20","M_gnash.wav","None","736.865851506","425","291903.418262","298786.432673","299553.04943","300319.662387","301086.309534","301852.905544","302619.537203","288786.891449","292670.12093","293436.637165","294203.329897","294969.917432","295736.592924","296503.21757","297269.84806","298036.676088","301858.340434"
"Mixed","Female","cave","20","M_priest.wav","None","736.074243428","425","291903.418262","298786.432673","299553.04943","300319.662387","301086.309534","301852.905544","302619.537203","303386.18698","292670.12093","293436.637165","294203.329897","294969.917432","295736.592924","296503.21757","297269.84806","298036.676088","302624.644522"
"Mixed","Male","done","39","F_bluff.wav","None","734.818014884","425","306502.742722","298786.432673","299553.04943","300319.662387","301086.309534","301852.905544","302619.537203","303386.18698","292670.12093","293436.637165","294203.329897","294969.917432","295736.592924","296503.21757","297269.84806","298036.676088","303391.161049"
"Mixed","Male","done","39","F_bluff.wav","None","741.990702915","425","306502.742722","298786.432673","299553.04943","300319.662387","301086.309534","301852.905544","302619.537203","303386.18698","307269.383732","293436.637165","294203.329897","294969.917432","295736.592924","296503.21757","297269.84806","298036.676088","306507.843612"
"Mixed","Male","done","39","F_gnash.wav","None","740.748792864","425","306502.742722","298786.432673","299553.04943","300319.662387","301086.309534","301852.905544","302619.537203","303386.18698","307269.383732","308035.982956","294203.329897","294969.917432","295736.592924","296503.21757","297269.84806","298036.676088","307274.514428"
"Mixed","Male","done","39","F_park.wav","None","739.580228558","425","306502.742722","298786.432673","299553.04943","300319.662387","301086.309534","301852.905544","302619.537203","303386.18698","307269.383732","308035.982956","308802.616661","294969.917432","295736.592924","296503.21757","297269.84806","298036.676088","308041.217972"
"Mixed","Male","done","39","M_done.wav","None","738.571213168","425","306502.742722","298786.432673","299553.04943","300319.662387","301086.309534","301852.905544","302619.537203","303386.18698","307269.383732","308035.982956","308802.616661","309569.247443","295736.592924","296503.21757","297269.84806","298036.676088","308807.753493"
"Mixed","Male","done","39","M_jaw.wav","space","527.785764964","425","306502.742722","298786.432673","299553.04943","300319.662387","301086.309534","301852.905544","302619.537203","303386.18698","307269.383732","308035.982956","308802.616661","309569.247443","310335.873843","296503.21757","297269.84806","298036.676088","309574.414081"
"Mixed","Male","done","39","F_knife.wav","None","734.65642047","425","306502.742722","298786.432673","299553.04943","300319.662387","301086.309534","301852.905544","302619.537203","303386.18698","307269.383732","308035.982956","308802.616661","309569.247443","310335.873843","311102.622388","297269.84806","298036.676088","310341.251752"
"Mixed","Male","done","39","M_done.wav","None","733.565585124","425","306502.742722","298786.432673","299553.04943","300319.662387","301086.309534","301852.905544","302619.537203","303386.18698","307269.383732","308035.982956","308802.616661","309569.247443","310335.873843","311102.622388","311869.117583","298036.676088","311107.533339"
"Mixed","Male","done","39","M_lash.wav","space","507.660685627","425","306502.742722","298786.432673","299553.04943","300319.662387","301086.309534","301852.905544","302619.537203","303386.18698","307269.383732","308035.982956","308802.616661","309569.247443","310335.873843","311102.622388","311869.117583","312635.758009","311874.240682"
"Mixed","Male","done","39","F_cling.wav","None","729.641441574","425","306502.742722","313402.604446","299553.04943","300319.662387","301086.309534","301852.905544","302619.537203","303386.18698","307269.383732","308035.982956","308802.616661","309569.247443","310335.873843","311102.622388","311869.117583","312635.758009","312641.120139"
"Mixed","Male","done","39","M_done.wav","None","727.908319571","425","306502.742722","313402.604446","314169.372277","300319.662387","301086.309534","301852.905544","302619.537203","303386.18698","307269.383732","308035.982956","308802.616661","309569.247443","310335.873843","311102.622388","311869.117583","312635.758009","313408.342947"
"Mixed","Male","done","39","M_bluff.wav","space","598.781233308","425","306502.742722","313402.604446","314169.372277","314918.990938","301086.309534","301852.905544","302619.537203","303386.18698","307269.383732","308035.982956","308802.616661","309569.247443","310335.873843","311102.622388","311869.117583","312635.758009","314175.021945"
"Mixed","Male","done","39","M_romp.wav","None","741.742613119","425","306502.742722","313402.604446","314169.372277","314918.990938","315685.586363","301852.905544","302619.537203","303386.18698","307269.383732","308035.982956","308802.616661","309569.247443","310335.873843","311102.622388","311869.117583","312635.758009","314924.160498"
"Mixed","Male","done","39","F_jolt.wav","None","740.651193344","425","306502.742722","313402.604446","314169.372277","314918.990938","315685.586363","316452.256887","302619.537203","303386.18698","307269.383732","308035.982956","308802.616661","309569.247443","310335.873843","311102.622388","311869.117583","312635.758009","315690.759137"
"Mixed","Male","done","39","M_done.wav","None","739.54574729","425","306502.742722","313402.604446","314169.372277","314918.990938","315685.586363","316452.256887","317218.890884","303386.18698","307269.383732","308035.982956","308802.616661","309569.247443","310335.873843","311102.622388","311869.117583","312635.758009","316457.235631"
"Mixed","Male","done","39","F_knife.wav","space","637.543729845","425","306502.742722","313402.604446","314169.372277","314918.990938","315685.586363","316452.256887","317218.890884","317985.516114","307269.383732","308035.982956","308802.616661","309569.247443","310335.873843","311102.622388","311869.117583","312635.758009","317224.037651"
"Mixed","Female","done","45","M_romp.wav","None","735.798101076","425","321102.037375","313402.604446","314169.372277","314918.990938","315685.586363","316452.256887","317218.890884","317985.516114","307269.383732","308035.982956","308802.616661","309569.247443","310335.873843","311102.622388","311869.117583","312635.758009","317990.711974"
"Mixed","Female","done","45","F_done.wav","None","742.609028014","425","321102.037375","313402.604446","314169.372277","314918.990938","315685.586363","316452.256887","317218.890884","317985.516114","321868.729815","308035.982956","308802.616661","309569.247443","310335.873843","311102.622388","311869.117583","312635.758009","321107.083621"
"Mixed","Female","done","45","F_jaw.wav","None","740.924705769","425","321102.037375","313402.604446","314169.372277","314918.990938","315685.586363","316452.256887","317218.890884","317985.516114","321868.729815","322635.298356","308802.616661","309569.247443","310335.873843","311102.622388","311869.117583","312635.758009","321874.181654"
"Mixed","Female","done","45","F_jolt.wav","space","140.6531804","425","321102.037375","313402.604446","314169.372277","314918.990938","315685.586363","316452.256887","317218.890884","317985.516114","321868.729815","322635.298356","323401.951932","309569.247443","310335.873843","311102.622388","311869.117583","312635.758009","322640.53834"
"Mixed","Female","done","45","F_done.wav","None","737.677914572","425","321102.037375","313402.604446","314169.372277","314918.990938","315685.586363","316452.256887","317218.890884","317985.516114","321868.729815","322635.298356","323401.951932","324168.539759","310335.873843","311102.622388","311869.117583","312635.758009","323407.097531"
"Mixed","Female","done","45","M_reek.wav","space","591.22253041","425","321102.037375","313402.604446","314169.372277","314918.990938","315685.586363","316452.256887","317218.890884","317985.516114","321868.729815","322635.298356","323401.951932","324168.539759","324935.204147","311102.622388","311869.117583","312635.758009","324173.762502"
"Mixed","Female","done","45","M_bluff.wav","None","734.019101453","425","321102.037375","313402.604446","314169.372277","314918.990938","315685.586363","316452.256887","317218.890884","317985.516114","321868.729815","322635.298356","323401.951932","324168.539759","324935.204147","325701.777071","311869.117583","312635.758009","324940.289549"
"Mixed","Female","done","45","M_depth.wav","None","733.253500433","425","321102.037375","313402.604446","314169.372277","314918.990938","315685.586363","316452.256887","317218.890884","317985.516114","321868.729815","322635.298356","323401.951932","324168.539759","324935.204147","325701.777071","326468.45227","312635.758009","325706.778024"
"Mixed","Female","done","45","M_cad.wav","None","731.888276018","425","321102.037375","313402.604446","314169.372277","314918.990938","315685.586363","316452.256887","317218.890884","317985.516114","321868.729815","322635.298356","323401.951932","324168.539759","324935.204147","325701.777071","326468.45227","327235.131268","326473.597577"
"Mixed","Female","done","45","F_jaw.wav","None","730.78955089","425","321102.037375","328001.711498","314169.372277","314918.990938","315685.586363","316452.256887","317218.890884","317985.516114","321868.729815","322635.298356","323401.951932","324168.539759","324935.204147","325701.777071","326468.45227","327235.131268","327240.41976"
"Mixed","Female","done","45","F_done.wav","None","729.528354705","425","321102.037375","328001.711498","328768.579559","314918.990938","315685.586363","316452.256887","317218.890884","317985.516114","321868.729815","322635.298356","323401.951932","324168.539759","324935.204147","325701.777071","326468.45227","327235.131268","328007.123596"
"Mixed","Female","done","45","M_cling.wav","space","494.954046407","425","321102.037375","328001.711498","328768.579559","329518.295819","315685.586363","316452.256887","317218.890884","317985.516114","321868.729815","322635.298356","323401.951932","324168.539759","324935.204147","325701.777071","326468.45227","327235.131268","328773.680449"
"Mixed","Female","done","45","M_greet.wav","None","742.705458676","425","321102.037375","328001.711498","328768.579559","329518.295819","330284.929232","316452.256887","317218.890884","317985.516114","321868.729815","322635.298356","323401.951932","324168.539759","324935.204147","325701.777071","326468.45227","327235.131268","329523.390572"
"Mixed","Female","done","45","F_done.wav","None","741.472022834","425","321102.037375","328001.711498","328768.579559","329518.295819","330284.929232","331051.566735","317218.890884","317985.516114","321868.729815","322635.298356","323401.951932","324168.539759","324935.204147","325701.777071","326468.45227","327235.131268","330289.964081"
"Mixed","Female","done","45","F_cling.wav","space","611.756709529","425","321102.037375","328001.711498","328768.579559","329518.295819","330284.929232","331051.566735","331818.156024","317985.516114","321868.729815","322635.298356","323401.951932","324168.539759","324935.204147","325701.777071","326468.45227","327235.131268","331056.741848"
"Mixed","Female","done","45","M_dime.wav","None","737.622101675","425","321102.037375","328001.711498","328768.579559","329518.295819","330284.929232","331051.566735","331818.156024","332584.90603","321868.729815","322635.298356","323401.951932","324168.539759","324935.204147","325701.777071","326468.45227","327235.131268","331823.474613"
"Mixed","Male","ball","5","F_priest.wav","None","736.930138615","425","335684.680207","328001.711498","328768.579559","329518.295819","330284.929232","331051.566735","331818.156024","332584.90603","321868.729815","322635.298356","323401.951932","324168.539759","324935.204147","325701.777071","326468.45227","327235.131268","332589.763797"
"Mixed","Male","ball","5","M_cad.wav","None","741.708131852","425","335684.680207","328001.711498","328768.579559","329518.295819","330284.929232","331051.566735","331818.156024","332584.90603","336451.320925","322635.298356","323401.951932","324168.539759","324935.204147","325701.777071","326468.45227","327235.131268","335689.801259"
"Mixed","Male","ball","5","F_cling.wav","None","740.448396738","425","335684.680207","328001.711498","328768.579559","329518.295819","330284.929232","331051.566735","331818.156024","332584.90603","336451.320925","337217.902031","323401.951932","324168.539759","324935.204147","325701.777071","326468.45227","327235.131268","336456.514154"
"Mixed","Male","ball","5","F_lash.wav","None","739.742991828","425","335684.680207","328001.711498","328768.579559","329518.295819","330284.929232","331051.566735","331818.156024","332584.90603","336451.320925","337217.902031","337984.57051","324168.539759","324935.204147","325701.777071","326468.45227","327235.131268","337222.844541"
"Mixed","Male","ball","5","M_gnash.wav","None","738.641636773","425","335684.680207","328001.711498","328768.579559","329518.295819","330284.929232","331051.566735","331818.156024","332584.90603","336451.320925","337217.902031","337984.57051","338751.224962","324935.204147","325701.777071","326468.45227","327235.131268","337989.525292"
"Mixed","Male","ball","5","F_reek.wav","None","737.776975163","425","335684.680207","328001.711498","328768.579559","329518.295819","330284.929232","331051.566735","331818.156024","332584.90603","336451.320925","337217.902031","337984.57051","338751.224962","339517.808698","325701.777071","326468.45227","327235.131268","338756.159874"
"Mixed","Male","ball","5","M_ball.wav","None","736.767959773","425","335684.680207","328001.711498","328768.579559","329518.295819","330284.929232","331051.566735","331818.156024","332584.90603","336451.320925","337217.902031","337984.57051","338751.224962","339517.808698","340284.422824","326468.45227","327235.131268","339522.897607"
"Mixed","Male","ball","5","M_priest.wav","space","466.154006197","425","335684.680207","328001.711498","328768.579559","329518.295819","330284.929232","331051.566735","331818.156024","332584.90603","336451.320925","337217.902031","337984.57051","338751.224962","339517.808698","340284.422824","341051.118479","327235.131268","340289.571345"
"Mixed","Male","ball","5","M_greet.wav","None","733.362788518","425","335684.680207","328001.711498","328768.579559","329518.295819","330284.929232","331051.566735","331818.156024","332584.90603","336451.320925","337217.902031","337984.57051","338751.224962","339517.808698","340284.422824","341051.118479","341817.697832","341056.123522"
"Mixed","Male","ball","5","M_ball.wav","None","732.350850986","425","335684.680207","342584.362219","328768.579559","329518.295819","330284.929232","331051.566735","331818.156024","332584.90603","336451.320925","337217.902031","337984.57051","338751.224962","339517.808698","340284.422824","341051.118479","341817.697832","341822.697616"
"Mixed","Male","ball","5","F_dime.wav","None","731.208585953","425","335684.680207","342584.362219","343351.037711","329518.295819","330284.929232","331051.566735","331818.156024","332584.90603","336451.320925","337217.902031","337984.57051","338751.224962","339517.808698","340284.422824","341051.118479","341817.697832","342589.338626"
"Mixed","Male","ball","5","M_ball.wav","space","231.633465297","425","335684.680207","342584.362219","343351.037711","344118.090743","330284.929232","331051.566735","331818.156024","332584.90603","336451.320925","337217.902031","337984.57051","338751.224962","339517.808698","340284.422824","341051.118479","341817.697832","343355.888758"
"Mixed","Male","ball","5","F_depth.wav","space","560.038315117","425","335684.680207","342584.362219","343351.037711","344118.090743","344867.593395","331051.566735","331818.156024","332584.90603","336451.320925","337217.902031","337984.57051","338751.224962","339517.808698","340284.422824","341051.118479","341817.697832","344123.400274"
"Mixed","Male","ball","5","M_ball.wav","None","742.05119124","425","335684.680207","342584.362219","343351.037711","344118.090743","344867.593395","345634.210735","331818.156024","332584.90603","336451.320925","337217.902031","337984.57051","338751.224962","339517.808698","340284.422824","341051.118479","341817.697832","344872.452039"
"Mixed","Male","ball","5","F_jolt.wav","space","436.160563482","425","335684.680207","342584.362219","343351.037711","344118.090743","344867.593395","345634.210735","346400.840642","332584.90603","336451.320925","337217.902031","337984.57051","338751.224962","339517.808698","340284.422824","341051.118479","341817.697832","345639.157336"
"Mixed","Male","ball","5","F_cling.wav","None","738.586700517","425","335684.680207","342584.362219","343351.037711","344118.090743","344867.593395","345634.210735","346400.840642","347167.492172","336451.320925","337217.902031","337984.57051","338751.224962","339517.808698","340284.422824","341051.118479","341817.697832","346405.668019"
"Mixed","Male","ball","6","F_cad.wav","None","737.665057151","425","350267.299953","342584.362219","343351.037711","344118.090743","344867.593395","345634.210735","346400.840642","347167.492172","336451.320925","337217.902031","337984.57051","338751.224962","339517.808698","340284.422824","341051.118479","341817.697832","347172.465364"
"Mixed","Male","ball","6","M_ball.wav","None","742.15025183","425","350267.299953","342584.362219","343351.037711","344118.090743","344867.593395","345634.210735","346400.840642","347167.492172","351033.941256","337217.902031","337984.57051","338751.224962","339517.808698","340284.422824","341051.118479","341817.697832","350272.37016"
"Mixed","Male","ball","6","F_lash.wav","space","651.873326344","425","350267.299953","342584.362219","343351.037711","344118.090743","344867.593395","345634.210735","346400.840642","347167.492172","351033.941256","351800.633403","337984.57051","338751.224962","339517.808698","340284.422824","341051.118479","341817.697832","351038.990424"
"Mixed","Male","ball","6","F_romp.wav","None","738.528842119","425","350267.299953","342584.362219","343351.037711","344118.090743","344867.593395","345634.210735","346400.840642","347167.492172","351033.941256","351800.633403","352567.316785","338751.224962","339517.808698","340284.422824","341051.118479","341817.697832","351805.814652"
"Mixed","Male","ball","6","M_priest.wav","None","737.817300713","425","350267.299953","342584.362219","343351.037711","344118.090743","344867.593395","345634.210735","346400.840642","347167.492172","351033.941256","351800.633403","352567.316785","353333.841786","339517.808698","340284.422824","341051.118479","341817.697832","352572.160526"
"Mixed","Male","ball","6","M_ball.wav","None","737.098746168","425","350267.299953","342584.362219","343351.037711","344118.090743","344867.593395","345634.210735","346400.840642","347167.492172","351033.941256","351800.633403","352567.316785","353333.841786","354100.452406","340284.422824","341051.118479","341817.697832","353338.815855"
"Mixed","Male","ball","6","M_dime.wav","space","568.863766266","425","350267.299953","342584.362219","343351.037711","344118.090743","344867.593395","345634.210735","346400.840642","347167.492172","351033.941256","351800.633403","352567.316785","353333.841786","354100.452406","354867.092247","341051.118479","341817.697832","354105.763106"
"Mixed","Male","ball","6","F_priest.wav","None","733.673412137","425","350267.299953","342584.362219","343351.037711","344118.090743","344867.593395","345634.210735","346400.840642","347167.492172","351033.941256","351800.633403","352567.316785","353333.841786","354100.452406","354867.092247","355633.715433","341817.697832","354872.008458"
"Mixed","Male","ball","6","M_cling.wav","None","736.195804507","425","350267.299953","342584.362219","343351.037711","344118.090743","344867.593395","345634.210735","346400.840642","347167.492172","351033.941256","351800.633403","352567.316785","353333.841786","354100.452406","354867.092247","355633.715433","356400.367255","355635.202218"
"Mixed","Male","ball","6","M_ball.wav","None","732.219646842","425","350267.299953","357166.988394","343351.037711","344118.090743","344867.593395","345634.210735","346400.840642","347167.492172","351033.941256","351800.633403","352567.316785","353333.841786","354100.452406","354867.092247","355633.715433","356400.367255","356405.293401"
"Mixed","Male","ball","6","F_bluff.wav","space","510.497792615","425","350267.299953","357166.988394","357933.947918","344118.090743","344867.593395","345634.210735","346400.840642","347167.492172","351033.941256","351800.633403","352567.316785","353333.841786","354100.452406","354867.092247","355633.715433","356400.367255","357171.89204"
"Mixed","Male","ball","6","F_cad.wav","None","727.64649571","425","350267.299953","357166.988394","357933.947918","358700.486653","344867.593395","345634.210735","346400.840642","347167.492172","351033.941256","351800.633403","352567.316785","353333.841786","354100.452406","354867.092247","355633.715433","356400.367255","357939.612781"
"Mixed","Male","ball","6","M_ball.wav","None","726.903395177","425","350267.299953","357166.988394","357933.947918","358700.486653","359450.219277","345634.210735","346400.840642","347167.492172","351033.941256","351800.633403","352567.316785","353333.841786","354100.452406","354867.092247","355633.715433","356400.367255","358705.971513"
"Mixed","Male","ball","6","F_jaw.wav","space","570.970922357","425","350267.299953","357166.988394","357933.947918","358700.486653","359450.219277","360216.831359","346400.840642","347167.492172","351033.941256","351800.633403","352567.316785","353333.841786","354100.452406","354867.092247","355633.715433","356400.367255","359455.205035"
"Mixed","Male","ball","6","M_lash.wav","None","740.874152725","425","350267.299953","357166.988394","357933.947918","358700.486653","359450.219277","360216.831359","360983.471784","347167.492172","351033.941256","351800.633403","352567.316785","353333.841786","354100.452406","354867.092247","355633.715433","356400.367255","360221.773868"
"Mixed","Male","ball","6","F_park.wav","None","739.652989876","425","350267.299953","357166.988394","357933.947918","358700.486653","359450.219277","360216.831359","360983.471784","361750.111334","351033.941256","351800.633403","352567.316785","353333.841786","354100.452406","354867.092247","355633.715433","356400.367255","360988.565369"
"Mixed","Female","tile","32","M_knife.wav","None","739.162070138","425","364849.941908","357166.988394","357933.947918","358700.486653","359450.219277","360216.831359","360983.471784","361750.111334","351033.941256","351800.633403","352567.316785","353333.841786","354100.452406","354867.092247","355633.715433","356400.367255","361755.214853"
"Mixed","Female","tile","32","F_tile.wav","None","742.226811932","425","364849.941908","357166.988394","357933.947918","358700.486653","359450.219277","360216.831359","360983.471784","361750.111334","365616.556034","351800.633403","352567.316785","353333.841786","354100.452406","354867.092247","355633.715433","356400.367255","364855.00744"
"Mixed","Female","tile","32","F_lash.wav","space","588.169477182","425","364849.941908","357166.988394","357933.947918","358700.486653","359450.219277","360216.831359","360983.471784","361750.111334","365616.556034","366383.23211","352567.316785","353333.841786","354100.452406","354867.092247","355633.715433","356400.367255","365621.507311"
"Mixed","Female","tile","32","F_cad.wav","None","739.062132906","425","364849.941908","357166.988394","357933.947918","358700.486653","359450.219277","360216.831359","360983.471784","361750.111334","365616.556034","366383.23211","367149.869322","353333.841786","354100.452406","354867.092247","355633.715433","356400.367255","366388.352286"
"Mixed","Female","tile","32","F_tile.wav","None","738.465723867","425","364849.941908","357166.988394","357933.947918","358700.486653","359450.219277","360216.831359","360983.471784","361750.111334","365616.556034","366383.23211","367149.869322","367916.476727","354100.452406","354867.092247","355633.715433","356400.367255","367154.952971"
"Mixed","Female","tile","32","F_park.wav","space","528.111291504","425","364849.941908","357166.988394","357933.947918","358700.486653","359450.219277","360216.831359","360983.471784","361750.111334","365616.556034","366383.23211","367149.869322","367916.476727","368683.097867","354867.092247","355633.715433","356400.367255","367921.415146"
"Mixed","Female","tile","32","M_knife.wav","None","735.519036582","425","364849.941908","357166.988394","357933.947918","358700.486653","359450.219277","360216.831359","360983.471784","361750.111334","365616.556034","366383.23211","367149.869322","367916.476727","368683.097867","369449.765761","355633.715433","356400.367255","368687.950375"
