"Condition","Talker","Target","Trial","current_stimulus","response_response","response_time_response","subject_nr","time_Audio1","time_Audio10","time_Audio11","time_Audio12","time_Audio13","time_Audio14","time_Audio15","time_Audio16","time_Audio2","time_Audio3","time_Audio4","time_Audio5","time_Audio6","time_Audio7","time_Audio8","time_Audio9","time_response","title"
"Blocked","Female","cave","9","F_cad.wav","NA","NA","234","507635.870646","NA","NA","NA","NA","NA","NA","NA","NA","NA","NA","NA","NA","NA","NA","NA","NA","Mapping"
"Blocked","Female","cave","9","F_cave.wav","None","716.658530291","234","507635.870646","NA","NA","NA","NA","NA","NA","NA","508402.775386","NA","NA","NA","NA","NA","NA","NA","507652.427489","Mapping"
"Blocked","Female","cave","9","F_romp.wav","space","706.133965286","234","507635.870646","NA","NA","NA","NA","NA","NA","NA","508402.775386","509169.206164","NA","NA","NA","NA","NA","NA","508413.356839","Mapping"
"Blocked","Female","cave","9","F_cave.wav","None","722.288883408","234","507635.870646","NA","NA","NA","NA","NA","NA","NA","508402.775386","509169.206164","509935.828629","NA","NA","NA","NA","NA","509179.62932","Mapping"
"Blocked","Female","cave","9","F_cling.wav","space","637.32963393","234","507635.870646","NA","NA","NA","NA","NA","NA","NA","508402.775386","509169.206164","509935.828629","510702.642472","NA","NA","NA","NA","509946.129971","Mapping"
"Blocked","Female","cave","9","F_tile.wav","None","719.277227181","234","507635.870646","NA","NA","NA","NA","NA","NA","NA","508402.775386","509169.206164","509935.828629","510702.642472","511469.163838","NA","NA","NA","510713.911526","Mapping"
"Blocked","Female","cave","9","F_reek.wav","None","719.663075404","234","507635.870646","NA","NA","NA","NA","NA","NA","NA","508402.775386","509169.206164","509935.828629","510702.642472","511469.163838","512235.810419","NA","NA","511480.08971","Mapping"
"Blocked","Female","cave","9","F_priest.wav","None","721.319625387","234","507635.870646","NA","NA","NA","NA","NA","NA","NA","508402.775386","509169.206164","509935.828629","510702.642472","511469.163838","512235.810419","513001.663661","NA","512245.441782","Mapping"
"Blocked","Female","cave","9","F_cave.wav","None","725.088137551","234","507635.870646","NA","NA","NA","NA","NA","NA","NA","508402.775386","509169.206164","509935.828629","510702.642472","511469.163838","512235.810419","513001.663661","513769.257548","513011.005329","Mapping"
"Blocked","Female","cave","9","F_tile.wav","space","420.059404452","234","507635.870646","514518.768823","NA","NA","NA","NA","NA","NA","508402.775386","509169.206164","509935.828629","510702.642472","511469.163838","512235.810419","513001.663661","513769.257548","513779.323609","Mapping"
"Blocked","Female","cave","9","F_dime.wav","None","735.253443243","234","507635.870646","514518.768823","515285.545256","NA","NA","NA","NA","NA","508402.775386","509169.206164","509935.828629","510702.642472","511469.163838","512235.810419","513001.663661","513769.257548","514528.069371","Mapping"
"Blocked","Female","cave","9","F_reek.wav","None","734.69136632","234","507635.870646","514518.768823","515285.545256","516051.992729","NA","NA","NA","NA","508402.775386","509169.206164","509935.828629","510702.642472","511469.163838","512235.810419","513001.663661","513769.257548","515295.278029","Mapping"
"Blocked","Female","cave","9","F_reek.wav","None","731.752675027","234","507635.870646","514518.768823","515285.545256","516051.992729","516818.696816","NA","NA","NA","508402.775386","509169.206164","509935.828629","510702.642472","511469.163838","512235.810419","513001.663661","513769.257548","516061.763221","Mapping"
"Blocked","Female","cave","9","F_cave.wav","None","729.312680196","234","507635.870646","514518.768823","515285.545256","516051.992729","516818.696816","517585.797573","NA","NA","508402.775386","509169.206164","509935.828629","510702.642472","511469.163838","512235.810419","513001.663661","513769.257548","516827.755282","Mapping"
"Blocked","Female","cave","9","F_cling.wav","space","363.482254907","234","507635.870646","514518.768823","515285.545256","516051.992729","516818.696816","517585.797573","518352.190631","NA","508402.775386","509169.206164","509935.828629","510702.642472","511469.163838","512235.810419","513001.663661","513769.257548","517595.851885","Mapping"
"Blocked","Female","cave","9","F_priest.wav","None","723.041411024","234","507635.870646","514518.768823","515285.545256","516051.992729","516818.696816","517585.797573","518352.190631","519102.955912","508402.775386","509169.206164","509935.828629","510702.642472","511469.163838","512235.810419","513001.663661","513769.257548","518361.163765","Mapping"
"Blocked","Female","done","21","F_tile.wav","None","734.932521358","234","522252.652629","514518.768823","515285.545256","516051.992729","516818.696816","517585.797573","518352.190631","519102.955912","508402.775386","509169.206164","509935.828629","510702.642472","511469.163838","512235.810419","513001.663661","513769.257548","519112.982399","Mapping"
"Blocked","Female","done","21","F_done.wav","None","720.311102457","234","522252.652629","514518.768823","515285.545256","516051.992729","516818.696816","517585.797573","518352.190631","519102.955912","523019.042905","509169.206164","509935.828629","510702.642472","511469.163838","512235.810419","513001.663661","513769.257548","522262.386638","Mapping"
"Blocked","Female","done","21","F_cad.wav","space","434.448634391","234","522252.652629","514518.768823","515285.545256","516051.992729","516818.696816","517585.797573","518352.190631","519102.955912","523019.042905","523768.947757","509935.828629","510702.642472","511469.163838","512235.810419","513001.663661","513769.257548","523028.791445","Mapping"
"Blocked","Female","done","21","F_done.wav","None","734.759384417","234","522252.652629","514518.768823","515285.545256","516051.992729","516818.696816","517585.797573","518352.190631","519102.955912","523019.042905","523768.947757","524536.188259","510702.642472","511469.163838","512235.810419","513001.663661","513769.257548","523778.678983","Mapping"
"Blocked","Female","done","21","F_priest.wav","space","461.566834128","234","522252.652629","514518.768823","515285.545256","516051.992729","516818.696816","517585.797573","518352.190631","519102.955912","523019.042905","523768.947757","524536.188259","525302.340472","511469.163838","512235.810419","513001.663661","513769.257548","524545.616496","Mapping"
"Blocked","Female","done","21","F_bluff.wav","None","728.601890965","234","522252.652629","514518.768823","515285.545256","516051.992729","516818.696816","517585.797573","518352.190631","519102.955912","523019.042905","523768.947757","524536.188259","525302.340472","526068.542462","512235.810419","513001.663661","513769.257548","525312.3515","Mapping"
"Blocked","Female","done","21","F_reek.wav","None","729.930098983","234","522252.652629","514518.768823","515285.545256","516051.992729","516818.696816","517585.797573","518352.190631","519102.955912","523019.042905","523768.947757","524536.188259","525302.340472","526068.542462","526835.649092","513001.663661","513769.257548","526077.769736","Mapping"
"Blocked","Female","done","21","F_cling.wav","None","725.906828186","234","522252.652629","514518.768823","515285.545256","516051.992729","516818.696816","517585.797573","518352.190631","519102.955912","523019.042905","523768.947757","524536.188259","525302.340472","526068.542462","526835.649092","527602.413777","513769.257548","526845.672796","Mapping"
"Blocked","Female","done","21","F_park.wav","None","722.566521028","234","522252.652629","514518.768823","515285.545256","516051.992729","516818.696816","517585.797573","518352.190631","519102.955912","523019.042905","523768.947757","524536.188259","525302.340472","526068.542462","526835.649092","527602.413777","528369.435385","527612.732742","Mapping"
"Blocked","Female","done","21","F_gnash.wav","None","722.732856171","234","522252.652629","529135.663654","515285.545256","516051.992729","516818.696816","517585.797573","518352.190631","519102.955912","523019.042905","523768.947757","524536.188259","525302.340472","526068.542462","526835.649092","527602.413777","528369.435385","528379.404984","Mapping"
"Blocked","Female","done","21","F_done.wav","None","723.928738036","234","522252.652629","529135.663654","529902.613843","516051.992729","516818.696816","517585.797573","518352.190631","519102.955912","523019.042905","523768.947757","524536.188259","525302.340472","526068.542462","526835.649092","527602.413777","528369.435385","529145.141668","Mapping"
"Blocked","Female","done","21","F_priest.wav","space","358.072960633","234","522252.652629","529135.663654","529902.613843","530652.040404","516818.696816","517585.797573","518352.190631","519102.955912","523019.042905","523768.947757","524536.188259","525302.340472","526068.542462","526835.649092","527602.413777","528369.435385","529913.023705","Mapping"
"Blocked","Female","done","21","F_done.wav","None","734.568315325","234","522252.652629","529135.663654","529902.613843","530652.040404","531418.789321","517585.797573","518352.190631","519102.955912","523019.042905","523768.947757","524536.188259","525302.340472","526068.542462","526835.649092","527602.413777","528369.435385","530661.803784","Mapping"
"Blocked","Female","done","21","F_cave.wav","space","562.936996925","234","522252.652629","529135.663654","529902.613843","530652.040404","531418.789321","532185.543494","518352.190631","519102.955912","523019.042905","523768.947757","524536.188259","525302.340472","526068.542462","526835.649092","527602.413777","528369.435385","531428.110893","Mapping"
"Blocked","Female","done","21","F_priest.wav","None","727.989728097","234","522252.652629","529135.663654","529902.613843","530652.040404","531418.789321","532185.543494","532952.085265","519102.955912","523019.042905","523768.947757","524536.188259","525302.340472","526068.542462","526835.649092","527602.413777","528369.435385","532195.509383","Mapping"
"Blocked","Female","done","21","F_ball.wav","None","725.401639123","234","522252.652629","529135.663654","529902.613843","530652.040404","531418.789321","532185.543494","532952.085265","533718.809448","523019.042905","523768.947757","524536.188259","525302.340472","526068.542462","526835.649092","527602.413777","528369.435385","532961.765478","Mapping"
"Blocked","Female","ball","1","F_romp.wav","None","725.583432941","234","536835.987328","529135.663654","529902.613843","530652.040404","531418.789321","532185.543494","532952.085265","533718.809448","523019.042905","523768.947757","524536.188259","525302.340472","526068.542462","526835.649092","527602.413777","528369.435385","533728.474202","Mapping"
"Blocked","Female","ball","1","F_ball.wav","None","719.698011992","234","536835.987328","529135.663654","529902.613843","530652.040404","531418.789321","532185.543494","532952.085265","533718.809448","537585.278471","523768.947757","524536.188259","525302.340472","526068.542462","526835.649092","527602.413777","528369.435385","536845.875614","Mapping"
"Blocked","Female","ball","1","F_lash.wav","space","443.958492833","234","536835.987328","529135.663654","529902.613843","530652.040404","531418.789321","532185.543494","532952.085265","533718.809448","537585.278471","538351.9031","524536.188259","525302.340472","526068.542462","526835.649092","527602.413777","528369.435385","537595.045252","Mapping"
"Blocked","Female","ball","1","F_park.wav","None","734.032209031","234","536835.987328","529135.663654","529902.613843","530652.040404","531418.789321","532185.543494","532952.085265","533718.809448","537585.278471","538351.9031","539118.433123","525302.340472","526068.542462","526835.649092","527602.413777","528369.435385","538361.982456","Mapping"
"Blocked","Female","ball","1","F_ball.wav","None","732.119972818","234","536835.987328","529135.663654","529902.613843","530652.040404","531418.789321","532185.543494","532952.085265","533718.809448","537585.278471","538351.9031","539118.433123","539885.401553","526068.542462","526835.649092","527602.413777","528369.435385","539127.767061","Mapping"
"Blocked","Female","ball","1","F_tile.wav","space","392.011521035","234","536835.987328","529135.663654","529902.613843","530652.040404","531418.789321","532185.543494","532952.085265","533718.809448","537585.278471","538351.9031","539118.433123","539885.401553","540651.841606","526835.649092","527602.413777","528369.435385","539894.933053","Mapping"
"Blocked","Female","ball","1","F_reek.wav","None","726.027096622","234","536835.987328","529135.663654","529902.613843","530652.040404","531418.789321","532185.543494","532952.085265","533718.809448","537585.278471","538351.9031","539118.433123","539885.401553","540651.841606","541419.138996","527602.413777","528369.435385","540661.044455","Mapping"
"Blocked","Female","ball","1","F_ball.wav","None","721.550268587","234","536835.987328","529135.663654","529902.613843","530652.040404","531418.789321","532185.543494","532952.085265","533718.809448","537585.278471","538351.9031","539118.433123","539885.401553","540651.841606","541419.138996","542186.210381","528369.435385","541429.33491","Mapping"
"Blocked","Female","ball","1","F_tile.wav","space","354.390398483","234","536835.987328","529135.663654","529902.613843","530652.040404","531418.789321","532185.543494","532952.085265","533718.809448","537585.278471","538351.9031","539118.433123","539885.401553","540651.841606","541419.138996","542186.210381","542934.931099","542196.488844","Mapping"
"Blocked","Female","ball","1","F_depth.wav","None","734.183703898","234","536835.987328","543701.793174","529902.613843","530652.040404","531418.789321","532185.543494","532952.085265","533718.809448","537585.278471","538351.9031","539118.433123","539885.401553","540651.841606","541419.138996","542186.210381","542934.931099","542943.978744","Mapping"
"Blocked","Female","ball","1","F_ball.wav","None","734.324377729","234","536835.987328","543701.793174","544468.597742","530652.040404","531418.789321","532185.543494","532952.085265","533718.809448","537585.278471","538351.9031","539118.433123","539885.401553","540651.841606","541419.138996","542186.210381","542934.931099","543711.451435","Mapping"
"Blocked","Female","ball","1","F_greet.wav","space","400.365690002","234","536835.987328","543701.793174","544468.597742","545235.340785","531418.789321","532185.543494","532952.085265","533718.809448","537585.278471","538351.9031","539118.433123","539885.401553","540651.841606","541419.138996","542186.210381","542934.931099","544478.495922","Mapping"
"Blocked","Female","ball","1","F_cave.wav","None","731.266963878","234","536835.987328","543701.793174","544468.597742","545235.340785","546001.415395","532185.543494","532952.085265","533718.809448","537585.278471","538351.9031","539118.433123","539885.401553","540651.841606","541419.138996","542186.210381","542934.931099","545244.854353","Mapping"
"Blocked","Female","ball","1","F_cave.wav","None","729.215908912","234","536835.987328","543701.793174","544468.597742","545235.340785","546001.415395","546768.150399","532952.085265","533718.809448","537585.278471","538351.9031","539118.433123","539885.401553","540651.841606","541419.138996","542186.210381","542934.931099","546010.823226","Mapping"
"Blocked","Female","ball","1","F_greet.wav","None","726.928954711","234","536835.987328","543701.793174","544468.597742","545235.340785","546001.415395","546768.150399","547535.649679","533718.809448","537585.278471","538351.9031","539118.433123","539885.401553","540651.841606","541419.138996","542186.210381","542934.931099","546777.303781","Mapping"
"Blocked","Female","ball","1","F_jaw.wav","None","722.273733933","234","536835.987328","543701.793174","544468.597742","545235.340785","546001.415395","546768.150399","547535.649679","548302.178156","537585.278471","538351.9031","539118.433123","539885.401553","540651.841606","541419.138996","542186.210381","542934.931099","547545.812203","Mapping"
"Blocked","Female","tile","15","F_done.wav","None","722.732546856","234","551418.921647","543701.793174","544468.597742","545235.340785","546001.415395","546768.150399","547535.649679","548302.178156","537585.278471","538351.9031","539118.433123","539885.401553","540651.841606","541419.138996","542186.210381","542934.931099","548312.265241","Mapping"
"Blocked","Female","tile","15","F_tile.wav","None","719.937621267","234","551418.921647","543701.793174","544468.597742","545235.340785","546001.415395","546768.150399","547535.649679","548302.178156","552167.89898","538351.9031","539118.433123","539885.401553","540651.841606","541419.138996","542186.210381","542934.931099","551429.294408","Mapping"
"Blocked","Female","tile","15","F_romp.wav","space","405.489308294","234","551418.921647","543701.793174","544468.597742","545235.340785","546001.415395","546768.150399","547535.649679","548302.178156","552167.89898","552935.298397","539118.433123","539885.401553","540651.841606","541419.138996","542186.210381","542934.931099","552177.203547","Mapping"
"Blocked","Female","tile","15","F_tile.wav","None","732.121209498","234","551418.921647","543701.793174","544468.597742","545235.340785","546001.415395","546768.150399","547535.649679","548302.178156","552167.89898","552935.298397","553701.517082","539885.401553","540651.841606","541419.138996","542186.210381","542934.931099","552944.850612","Mapping"
"Blocked","Female","tile","15","F_gnash.wav","space","359.772794764","234","551418.921647","543701.793174","544468.597742","545235.340785","546001.415395","546768.150399","547535.649679","548302.178156","552167.89898","552935.298397","553701.517082","554468.483348","540651.841606","541419.138996","542186.210381","542934.931099","553710.906054","Mapping"
"Blocked","Female","tile","15","F_romp.wav","None","726.177973091","234","551418.921647","543701.793174","544468.597742","545235.340785","546001.415395","546768.150399","547535.649679","548302.178156","552167.89898","552935.298397","553701.517082","554468.483348","555235.508666","541419.138996","542186.210381","542934.931099","554478.103272","Mapping"
"Blocked","Female","tile","15","F_tile.wav","None","722.802729229","234","551418.921647","543701.793174","544468.597742","545235.340785","546001.415395","546768.150399","547535.649679","548302.178156","552167.89898","552935.298397","553701.517082","554468.483348","555235.508666","556001.485886","542186.210381","542934.931099","555245.468371","Mapping"
"Blocked","Female","tile","15","F_reek.wav","space","371.315467055","234","551418.921647","543701.793174","544468.597742","545235.340785","546001.415395","546768.150399","547535.649679","548302.178156","552167.89898","552935.298397","553701.517082","554468.483348","555235.508666","556001.485886","556751.190394","542934.931099","556011.333362","Mapping"
"Blocked","Female","tile","15","F_lash.wav","None","735.401537153","234","551418.921647","543701.793174","544468.597742","545235.340785","546001.415395","546768.150399","547535.649679","548302.178156","552167.89898","552935.298397","553701.517082","554468.483348","555235.508666","556001.485886","556751.190394","557517.970228","556760.630379","Mapping"
"Blocked","Female","tile","15","F_tile.wav","None","732.674629544","234","551418.921647","558284.591457","544468.597742","545235.340785","546001.415395","546768.150399","547535.649679","548302.178156","552167.89898","552935.298397","553701.517082","554468.483348","555235.508666","556001.485886","556751.190394","557517.970228","557527.238932","Mapping"
"Blocked","Female","tile","15","F_knife.wav","space","377.253138344","234","551418.921647","558284.591457","559051.410556","545235.340785","546001.415395","546768.150399","547535.649679","548302.178156","552167.89898","552935.298397","553701.517082","554468.483348","555235.508666","556001.485886","556751.190394","557517.970228","558293.367338","Mapping"
"Blocked","Female","tile","15","F_ball.wav","None","729.674412753","234","551418.921647","558284.591457","559051.410556","559818.358581","546001.415395","546768.150399","547535.649679","548302.178156","552167.89898","552935.298397","553701.517082","554468.483348","555235.508666","556001.485886","556751.190394","557517.970228","559060.830755","Mapping"
"Blocked","Female","tile","15","F_romp.wav","None","726.29607725","234","551418.921647","558284.591457","559051.410556","559818.358581","560585.487163","546768.150399","547535.649679","548302.178156","552167.89898","552935.298397","553701.517082","554468.483348","555235.508666","556001.485886","556751.190394","557517.970228","559828.179158","Mapping"
"Blocked","Female","tile","15","F_lash.wav","None","722.826535581","234","551418.921647","558284.591457","559051.410556","559818.358581","560585.487163","561351.339787","547535.649679","548302.178156","552167.89898","552935.298397","553701.517082","554468.483348","555235.508666","556001.485886","556751.190394","557517.970228","560595.644121","Mapping"
"Blocked","Female","tile","15","F_ball.wav","None","721.954048844","234","551418.921647","558284.591457","559051.410556","559818.358581","560585.487163","561351.339787","562101.37882","548302.178156","552167.89898","552935.298397","553701.517082","554468.483348","555235.508666","556001.485886","556751.190394","557517.970228","561360.550674","Mapping"
"Blocked","Female","tile","15","F_jolt.wav","None","735.530771548","234","551418.921647","558284.591457","559051.410556","559818.358581","560585.487163","561351.339787","562101.37882","562885.494614","552167.89898","552935.298397","553701.517082","554468.483348","555235.508666","556001.485886","556751.190394","557517.970228","562111.105718","Mapping"
"Blocked","Female","cave","10","F_lash.wav","None","718.29838492","234","566001.874826","558284.591457","559051.410556","559818.358581","560585.487163","561351.339787","562101.37882","562885.494614","552167.89898","552935.298397","553701.517082","554468.483348","555235.508666","556001.485886","556751.190394","557517.970228","562895.36435","Mapping"
"Blocked","Female","cave","10","F_cave.wav","None","719.513435615","234","566001.874826","558284.591457","559051.410556","559818.358581","560585.487163","561351.339787","562101.37882","562885.494614","566751.426602","552935.298397","553701.517082","554468.483348","555235.508666","556001.485886","556751.190394","557517.970228","566012.379604","Mapping"
"Blocked","Female","cave","10","F_gnash.wav","space","525.39564122","234","566001.874826","558284.591457","559051.410556","559818.358581","560585.487163","561351.339787","562101.37882","562885.494614","566751.426602","567518.303517","553701.517082","554468.483348","555235.508666","556001.485886","556751.190394","557517.970228","566761.038179","Mapping"
"Blocked","Female","cave","10","F_park.wav","None","730.839068303","234","566001.874826","558284.591457","559051.410556","559818.358581","560585.487163","561351.339787","562101.37882","562885.494614","566751.426602","567518.303517","568284.874041","554468.483348","555235.508666","556001.485886","556751.190394","557517.970228","567528.261058","Mapping"
"Blocked","Female","cave","10","F_jaw.wav","None","728.679184336","234","566001.874826","558284.591457","559051.410556","559818.358581","560585.487163","561351.339787","562101.37882","562885.494614","566751.426602","567518.303517","568284.874041","569051.033056","555235.508666","556001.485886","556751.190394","557517.970228","568294.511897","Mapping"
"Blocked","Female","cave","10","F_ball.wav","None","726.81270563","234","566001.874826","558284.591457","559051.410556","559818.358581","560585.487163","561351.339787","562101.37882","562885.494614","566751.426602","567518.303517","568284.874041","569051.033056","569818.762979","556001.485886","556751.190394","557517.970228","569060.363903","Mapping"
"Blocked","Female","cave","10","F_tile.wav","None","722.497575334","234","566001.874826","558284.591457","559051.410556","559818.358581","560585.487163","561351.339787","562101.37882","562885.494614","566751.426602","567518.303517","568284.874041","569051.033056","569818.762979","570585.241679","556751.190394","557517.970228","569828.774008","Mapping"
"Blocked","Female","cave","10","F_cave.wav","None","720.01769708","234","566001.874826","558284.591457","559051.410556","559818.358581","560585.487163","561351.339787","562101.37882","562885.494614","566751.426602","567518.303517","568284.874041","569051.033056","569818.762979","570585.241679","571334.308672","557517.970228","570595.256417","Mapping"
"Blocked","Female","cave","10","F_cling.wav","space","438.193649403","234","566001.874826","558284.591457","559051.410556","559818.358581","560585.487163","561351.339787","562101.37882","562885.494614","566751.426602","567518.303517","568284.874041","569051.033056","569818.762979","570585.241679","571334.308672","572101.393351","571344.159239","Mapping"
"Blocked","Female","cave","10","F_reek.wav","None","731.181632145","234","566001.874826","572867.702933","559051.410556","559818.358581","560585.487163","561351.339787","562101.37882","562885.494614","566751.426602","567518.303517","568284.874041","569051.033056","569818.762979","570585.241679","571334.308672","572101.393351","572111.251957","Mapping"
"Blocked","Female","cave","10","F_greet.wav","None","729.947412736","234","566001.874826","572867.702933","573634.748965","559818.358581","560585.487163","561351.339787","562101.37882","562885.494614","566751.426602","567518.303517","568284.874041","569051.033056","569818.762979","570585.241679","571334.308672","572101.393351","572876.497364","Mapping"
"Blocked","Female","cave","10","F_cave.wav","None","725.832008291","234","566001.874826","572867.702933","573634.748965","574401.187163","560585.487163","561351.339787","562101.37882","562885.494614","566751.426602","567518.303517","568284.874041","569051.033056","569818.762979","570585.241679","571334.308672","572101.393351","573644.363943","Mapping"
"Blocked","Female","cave","10","F_gnash.wav","space","395.653272164","234","566001.874826","572867.702933","573634.748965","574401.187163","575167.877647","561351.339787","562101.37882","562885.494614","566751.426602","567518.303517","568284.874041","569051.033056","569818.762979","570585.241679","571334.308672","572101.393351","574410.701659","Mapping"
"Blocked","Female","cave","10","F_cling.wav","None","720.404781983","234","566001.874826","572867.702933","573634.748965","574401.187163","575167.877647","575917.947906","562101.37882","562885.494614","566751.426602","567518.303517","568284.874041","569051.033056","569818.762979","570585.241679","571334.308672","572101.393351","575177.415021","Mapping"
"Blocked","Female","cave","10","F_cave.wav","None","734.268417349","234","566001.874826","572867.702933","573634.748965","574401.187163","575167.877647","575917.947906","576684.34653","562885.494614","566751.426602","567518.303517","568284.874041","569051.033056","569818.762979","570585.241679","571334.308672","572101.393351","575927.676968","Mapping"
"Blocked","Female","cave","10","F_romp.wav","space","616.673772573","234","566001.874826","572867.702933","573634.748965","574401.187163","575167.877647","575917.947906","576684.34653","577451.285898","566751.426602","567518.303517","568284.874041","569051.033056","569818.762979","570585.241679","571334.308672","572101.393351","576693.628837","Mapping"
"Blocked","Female","tile","16","F_bluff.wav","None","728.61116624","234","580585.116773","572867.702933","573634.748965","574401.187163","575167.877647","575917.947906","576684.34653","577451.285898","566751.426602","567518.303517","568284.874041","569051.033056","569818.762979","570585.241679","571334.308672","572101.393351","577460.792974","Mapping"
"Blocked","Female","tile","16","F_cad.wav","None","719.678843278","234","580585.116773","572867.702933","573634.748965","574401.187163","575167.877647","575917.947906","576684.34653","577451.285898","581334.420592","567518.303517","568284.874041","569051.033056","569818.762979","570585.241679","571334.308672","572101.393351","580595.159955","Mapping"
"Blocked","Female","tile","16","F_depth.wav","None","735.186352511","234","580585.116773","572867.702933","573634.748965","574401.187163","575167.877647","575917.947906","576684.34653","577451.285898","581334.420592","582101.312966","568284.874041","569051.033056","569818.762979","570585.241679","571334.308672","572101.393351","581343.783594","Mapping"
"Blocked","Female","tile","16","F_tile.wav","None","731.382594677","234","580585.116773","572867.702933","573634.748965","574401.187163","575167.877647","575917.947906","576684.34653","577451.285898","581334.420592","582101.312966","582867.925228","569051.033056","569818.762979","570585.241679","571334.308672","572101.393351","582111.729938","Mapping"
"Blocked","Female","tile","16","F_depth.wav","None","729.591245181","234","580585.116773","572867.702933","573634.748965","574401.187163","575167.877647","575917.947906","576684.34653","577451.285898","581334.420592","582101.312966","582867.925228","583634.463289","569818.762979","570585.241679","571334.308672","572101.393351","582877.686445","Mapping"
"Blocked","Female","tile","16","F_priest.wav","space","202.488967916","234","580585.116773","572867.702933","573634.748965","574401.187163","575167.877647","575917.947906","576684.34653","577451.285898","581334.420592","582101.312966","582867.925228","583634.463289","584401.545495","570585.241679","571334.308672","572101.393351","583643.667994","Mapping"
"Blocked","Female","tile","16","F_tile.wav","None","724.354160368","234","580585.116773","572867.702933","573634.748965","574401.187163","575167.877647","575917.947906","576684.34653","577451.285898","581334.420592","582101.312966","582867.925228","583634.463289","584401.545495","585168.333677","571334.308672","572101.393351","584410.606743","Mapping"
"Blocked","Female","tile","16","F_lash.wav","space","443.367972039","234","580585.116773","572867.702933","573634.748965","574401.187163","575167.877647","575917.947906","576684.34653","577451.285898","581334.420592","582101.312966","582867.925228","583634.463289","584401.545495","585168.333677","585917.884835","572101.393351","585178.756833","Mapping"
"Blocked","Female","tile","16","F_dime.wav","None","735.377421603","234","580585.116773","572867.702933","573634.748965","574401.187163","575167.877647","575917.947906","576684.34653","577451.285898","581334.420592","582101.312966","582867.925228","583634.463289","584401.545495","585168.333677","585917.884835","586684.586448","585927.681297","Mapping"
"Blocked","Female","tile","16","F_depth.wav","None","730.003063916","234","580585.116773","587451.13935","573634.748965","574401.187163","575167.877647","575917.947906","576684.34653","577451.285898","581334.420592","582101.312966","582867.925228","583634.463289","584401.545495","585168.333677","585917.884835","586684.586448","586697.111055","Mapping"
"Blocked","Female","tile","16","F_tile.wav","None","730.076028733","234","580585.116773","587451.13935","588217.775109","574401.187163","575167.877647","575917.947906","576684.34653","577451.285898","581334.420592","582101.312966","582867.925228","583634.463289","584401.545495","585168.333677","585917.884835","586684.586448","587461.197063","Mapping"
"Blocked","Female","tile","16","F_ball.wav","space","434.541695518","234","580585.116773","587451.13935","588217.775109","588984.419526","575167.877647","575917.947906","576684.34653","577451.285898","581334.420592","582101.312966","582867.925228","583634.463289","584401.545495","585168.333677","585917.884835","586684.586448","588227.528596","Mapping"
"Blocked","Female","tile","16","F_priest.wav","None","725.429464714","234","580585.116773","587451.13935","588217.775109","588984.419526","589750.8367","575917.947906","576684.34653","577451.285898","581334.420592","582101.312966","582867.925228","583634.463289","584401.545495","585168.333677","585917.884835","586684.586448","588994.195582","Mapping"
"Blocked","Female","tile","16","F_ball.wav","None","723.977587419","234","580585.116773","587451.13935","588217.775109","588984.419526","589750.8367","590518.012585","576684.34653","577451.285898","581334.420592","582101.312966","582867.925228","583634.463289","584401.545495","585168.333677","585917.884835","586684.586448","589759.974623","Mapping"
"Blocked","Female","tile","16","F_tile.wav","None","718.937755097","234","580585.116773","587451.13935","588217.775109","588984.419526","589750.8367","590518.012585","591267.518604","577451.285898","581334.420592","582101.312966","582867.925228","583634.463289","584401.545495","585168.333677","585917.884835","586684.586448","590529.047904","Mapping"
"Blocked","Female","tile","16","F_cling.wav","space","345.233306754","234","580585.116773","587451.13935","588217.775109","588984.419526","589750.8367","590518.012585","591267.518604","592034.093456","581334.420592","582101.312966","582867.925228","583634.463289","584401.545495","585168.333677","585917.884835","586684.586448","591276.804621","Mapping"
"Blocked","Female","done","22","F_bluff.wav","None","732.258482371","234","595168.05202","587451.13935","588217.775109","588984.419526","589750.8367","590518.012585","591267.518604","592034.093456","581334.420592","582101.312966","582867.925228","583634.463289","584401.545495","585168.333677","585917.884835","586684.586448","592043.451511","Mapping"
"Blocked","Female","done","22","F_reek.wav","None","720.371700358","234","595168.05202","587451.13935","588217.775109","588984.419526","589750.8367","590518.012585","591267.518604","592034.093456","595917.271126","582101.312966","582867.925228","583634.463289","584401.545495","585168.333677","585917.884835","586684.586448","595178.266484","Mapping"
"Blocked","Female","done","22","F_romp.wav","None","736.203532433","234","595168.05202","587451.13935","588217.775109","588984.419526","589750.8367","590518.012585","591267.518604","592034.093456","595917.271126","596683.857109","582867.925228","583634.463289","584401.545495","585168.333677","585917.884835","586684.586448","595926.829525","Mapping"
"Blocked","Female","done","22","F_done.wav","None","733.988306485","234","595168.05202","587451.13935","588217.775109","588984.419526","589750.8367","590518.012585","591267.518604","592034.093456","595917.271126","596683.857109","597450.872842","583634.463289","584401.545495","585168.333677","585917.884835","586684.586448","596693.105098","Mapping"
"Blocked","Female","done","22","F_park.wav","space","433.206994901","234","595168.05202","587451.13935","588217.775109","588984.419526","589750.8367","590518.012585","591267.518604","592034.093456","595917.271126","596683.857109","597450.872842","598217.560234","584401.545495","585168.333677","585917.884835","586684.586448","597460.694347","Mapping"
"Blocked","Female","done","22","F_bluff.wav","None","727.822156041","234","595168.05202","587451.13935","588217.775109","588984.419526","589750.8367","590518.012585","591267.518604","592034.093456","595917.271126","596683.857109","597450.872842","598217.560234","598983.967514","585168.333677","585917.884835","586684.586448","598227.57219","Mapping"
"Blocked","Female","done","22","F_done.wav","None","726.314318483","234","595168.05202","587451.13935","588217.775109","588984.419526","589750.8367","590518.012585","591267.518604","592034.093456","595917.271126","596683.857109","597450.872842","598217.560234","598983.967514","599751.458447","585917.884835","586684.586448","598993.309492","Mapping"
"Blocked","Female","done","22","F_jaw.wav","space","283.998153638","234","595168.05202","587451.13935","588217.775109","588984.419526","589750.8367","590518.012585","591267.518604","592034.093456","595917.271126","596683.857109","597450.872842","598217.560234","598983.967514","599751.458447","600517.993726","586684.586448","599761.885313","Mapping"
"Blocked","Female","done","22","F_knife.wav","None","718.885504873","234","595168.05202","587451.13935","588217.775109","588984.419526","589750.8367","590518.012585","591267.518604","592034.093456","595917.271126","596683.857109","597450.872842","598217.560234","598983.967514","599751.458447","600517.993726","601267.191189","600528.296922","Mapping"
"Blocked","Female","done","22","F_done.wav","None","734.718573513","234","595168.05202","602033.899914","588217.775109","588984.419526","589750.8367","590518.012585","591267.518604","592034.093456","595917.271126","596683.857109","597450.872842","598217.560234","598983.967514","599751.458447","600517.993726","601267.191189","601276.508433","Mapping"
"Blocked","Female","done","22","F_romp.wav","space","570.328709786","234","595168.05202","602033.899914","602800.608638","588984.419526","589750.8367","590518.012585","591267.518604","592034.093456","595917.271126","596683.857109","597450.872842","598217.560234","598983.967514","599751.458447","600517.993726","601267.191189","602043.403589","Mapping"
"Blocked","Female","done","22","F_depth.wav","None","728.926831973","234","595168.05202","602033.899914","602800.608638","603567.563156","589750.8367","590518.012585","591267.518604","592034.093456","595917.271126","596683.857109","597450.872842","598217.560234","598983.967514","599751.458447","600517.993726","601267.191189","602809.979678","Mapping"
"Blocked","Female","done","22","F_ball.wav","None","726.640805369","234","595168.05202","602033.899914","602800.608638","603567.563156","604334.672259","590518.012585","591267.518604","592034.093456","595917.271126","596683.857109","597450.872842","598217.560234","598983.967514","599751.458447","600517.993726","601267.191189","603577.148452","Mapping"
"Blocked","Female","done","22","F_jaw.wav","None","722.545497119","234","595168.05202","602033.899914","602800.608638","603567.563156","604334.672259","605100.748106","591267.518604","592034.093456","595917.271126","596683.857109","597450.872842","598217.560234","598983.967514","599751.458447","600517.993726","601267.191189","604345.4117","Mapping"
"Blocked","Female","done","22","F_done.wav","None","722.037216416","234","595168.05202","602033.899914","602800.608638","603567.563156","604334.672259","605100.748106","605867.897094","592034.093456","595917.271126","596683.857109","597450.872842","598217.560234","598983.967514","599751.458447","600517.993726","601267.191189","605109.989912","Mapping"
"Blocked","Female","done","22","F_depth.wav","space","439.495886909","234","595168.05202","602033.899914","602800.608638","603567.563156","604334.672259","605100.748106","605867.897094","606617.55337","595917.271126","596683.857109","597450.872842","598217.560234","598983.967514","599751.458447","600517.993726","601267.191189","605878.266454","Mapping"
"Blocked","Female","done","20","F_dime.wav","None","732.68204974","234","609750.879057","602033.899914","602800.608638","603567.563156","604334.672259","605100.748106","605867.897094","606617.55337","595917.271126","596683.857109","597450.872842","598217.560234","598983.967514","599751.458447","600517.993726","601267.191189","606627.328499","Mapping"
"Blocked","Female","done","20","F_jaw.wav","space","532.365023508","234","609750.879057","602033.899914","602800.608638","603567.563156","604334.672259","605100.748106","605867.897094","606617.55337","610500.182258","596683.857109","597450.872842","598217.560234","598983.967514","599751.458447","600517.993726","601267.191189","609761.353845","Mapping"
"Blocked","Female","done","20","F_done.wav","None","735.220980016","234","609750.879057","602033.899914","602800.608638","603567.563156","604334.672259","605100.748106","605867.897094","606617.55337","610500.182258","611267.41905","597450.872842","598217.560234","598983.967514","599751.458447","600517.993726","601267.191189","610509.633373","Mapping"
"Blocked","Female","done","20","F_cling.wav","space","720.289151184","234","609750.879057","602033.899914","602800.608638","603567.563156","604334.672259","605100.748106","605867.897094","606617.55337","610500.182258","611267.41905","612034.131485","598217.560234","598983.967514","599751.458447","600517.993726","601267.191189","611277.381229","Mapping"
"Blocked","Female","done","20","F_bluff.wav","None","728.696188773","234","609750.879057","602033.899914","602800.608638","603567.563156","604334.672259","605100.748106","605867.897094","606617.55337","610500.182258","611267.41905","612034.131485","612800.651613","598983.967514","599751.458447","600517.993726","601267.191189","612043.805823","Mapping"
"Blocked","Female","done","20","F_knife.wav","None","726.595666027","234","609750.879057","602033.899914","602800.608638","603567.563156","604334.672259","605100.748106","605867.897094","606617.55337","610500.182258","611267.41905","612034.131485","612800.651613","613567.570267","599751.458447","600517.993726","601267.191189","612810.149414","Mapping"
"Blocked","Female","done","20","F_done.wav","None","722.870128928","234","609750.879057","602033.899914","602800.608638","603567.563156","604334.672259","605100.748106","605867.897094","606617.55337","610500.182258","611267.41905","612034.131485","612800.651613","613567.570267","614334.63825","600517.993726","601267.191189","613578.020321","Mapping"
"Blocked","Female","done","20","F_cave.wav","None","720.263489755","234","609750.879057","602033.899914","602800.608638","603567.563156","604334.672259","605100.748106","605867.897094","606617.55337","610500.182258","611267.41905","612034.131485","612800.651613","613567.570267","614334.63825","615084.290199","601267.191189","614344.984422","Mapping"
"Blocked","Female","done","20","F_dime.wav","space","303.138138959","234","609750.879057","602033.899914","602800.608638","603567.563156","604334.672259","605100.748106","605867.897094","606617.55337","610500.182258","611267.41905","612034.131485","612800.651613","613567.570267","614334.63825","615084.290199","615850.840008","615094.453958","Mapping"
"Blocked","Female","done","20","F_greet.wav","None","732.261574129","234","609750.879057","616617.283153","602800.608638","603567.563156","604334.672259","605100.748106","605867.897094","606617.55337","610500.182258","611267.41905","612034.131485","612800.651613","613567.570267","614334.63825","615084.290199","615850.840008","615860.72984","Mapping"
"Blocked","Female","done","20","F_knife.wav","None","729.868882801","234","609750.879057","616617.283153","617384.044746","603567.563156","604334.672259","605100.748106","605867.897094","606617.55337","610500.182258","611267.41905","612034.131485","612800.651613","613567.570267","614334.63825","615084.290199","615850.840008","616627.274703","Mapping"
"Blocked","Female","done","20","F_done.wav","None","727.771142614","234","609750.879057","616617.283153","617384.044746","618150.529011","604334.672259","605100.748106","605867.897094","606617.55337","610500.182258","611267.41905","612034.131485","612800.651613","613567.570267","614334.63825","615084.290199","615850.840008","617393.696824","Mapping"
"Blocked","Female","done","20","F_ball.wav","space","404.964950634","234","609750.879057","616617.283153","617384.044746","618150.529011","618917.091496","605100.748106","605867.897094","606617.55337","610500.182258","611267.41905","612034.131485","612800.651613","613567.570267","614334.63825","615084.290199","615850.840008","618160.56941","Mapping"
"Blocked","Female","done","20","F_done.wav","None","722.886515199","234","609750.879057","616617.283153","617384.044746","618150.529011","618917.091496","619684.307574","605867.897094","606617.55337","610500.182258","611267.41905","612034.131485","612800.651613","613567.570267","614334.63825","615084.290199","615850.840008","618926.535501","Mapping"
"Blocked","Female","done","20","F_greet.wav","space","551.000128966","234","609750.879057","616617.283153","617384.044746","618150.529011","618917.091496","619684.307574","620433.93046","606617.55337","610500.182258","611267.41905","612034.131485","612800.651613","613567.570267","614334.63825","615084.290199","615850.840008","619694.500087","Mapping"
"Blocked","Female","done","20","F_reek.wav","None","733.903283835","234","609750.879057","616617.283153","617384.044746","618150.529011","618917.091496","619684.307574","620433.93046","621200.133686","610500.182258","611267.41905","612034.131485","612800.651613","613567.570267","614334.63825","615084.290199","615850.840008","620443.267491","Mapping"
"Blocked","Female","ball","2","F_priest.wav","None","732.418943197","234","624334.267861","616617.283153","617384.044746","618150.529011","618917.091496","619684.307574","620433.93046","621200.133686","610500.182258","611267.41905","612034.131485","612800.651613","613567.570267","614334.63825","615084.290199","615850.840008","621209.579237","Mapping"
"Blocked","Female","ball","2","F_depth.wav","None","719.657510286","234","624334.267861","616617.283153","617384.044746","618150.529011","618917.091496","619684.307574","620433.93046","621200.133686","625083.170682","611267.41905","612034.131485","612800.651613","613567.570267","614334.63825","615084.290199","615850.840008","624344.244571","Mapping"
"Blocked","Female","ball","2","F_cling.wav","None","735.561070498","234","624334.267861","616617.283153","617384.044746","618150.529011","618917.091496","619684.307574","620433.93046","621200.133686","625083.170682","625850.286897","612034.131485","612800.651613","613567.570267","614334.63825","615084.290199","615850.840008","625092.53492","Mapping"
"Blocked","Female","ball","2","F_lash.wav","None","732.388644246","234","624334.267861","616617.283153","617384.044746","618150.529011","618917.091496","619684.307574","620433.93046","621200.133686","625083.170682","625850.286897","626617.137223","612800.651613","613567.570267","614334.63825","615084.290199","615850.840008","625859.965255","Mapping"
"Blocked","Female","ball","2","F_ball.wav","None","729.669775115","234","624334.267861","616617.283153","617384.044746","618150.529011","618917.091496","619684.307574","620433.93046","621200.133686","625083.170682","625850.286897","626617.137223","627383.459172","613567.570267","614334.63825","615084.290199","615850.840008","626627.020872","Mapping"
"Blocked","Female","ball","2","F_reek.wav","space","380.640749121","234","624334.267861","616617.283153","617384.044746","618150.529011","618917.091496","619684.307574","620433.93046","621200.133686","625083.170682","625850.286897","626617.137223","627383.459172","628149.95704","614334.63825","615084.290199","615850.840008","627392.735914","Mapping"
"Blocked","Female","ball","2","F_knife.wav","None","725.596109056","234","624334.267861","616617.283153","617384.044746","618150.529011","618917.091496","619684.307574","620433.93046","621200.133686","625083.170682","625850.286897","626617.137223","627383.459172","628149.95704","628917.532377","615084.290199","615850.840008","628159.285414","Mapping"
"Blocked","Female","ball","2","F_cave.wav","None","721.203994704","234","624334.267861","616617.283153","617384.044746","618150.529011","618917.091496","619684.307574","620433.93046","621200.133686","625083.170682","625850.286897","626617.137223","627383.459172","628149.95704","628917.532377","629684.128254","615850.840008","628928.019841","Mapping"
"Blocked","Female","ball","2","F_ball.wav","None","718.769874074","234","624334.267861","616617.283153","617384.044746","618150.529011","618917.091496","619684.307574","620433.93046","621200.133686","625083.170682","625850.286897","626617.137223","627383.459172","628149.95704","628917.532377","629684.128254","630433.590988","629694.973431","Mapping"
"Blocked","Female","ball","2","F_knife.wav","space","338.061725139","234","624334.267861","631200.576732","617384.044746","618150.529011","618917.091496","619684.307574","620433.93046","621200.133686","625083.170682","625850.286897","626617.137223","627383.459172","628149.95704","628917.532377","629684.128254","630433.590988","630443.205656","Mapping"
"Blocked","Female","ball","2","F_ball.wav","None","730.996437371","234","624334.267861","631200.576732","631967.235679","618150.529011","618917.091496","619684.307574","620433.93046","621200.133686","625083.170682","625850.286897","626617.137223","627383.459172","628149.95704","628917.532377","629684.128254","630433.590988","631210.968661","Mapping"
"Blocked","Female","ball","2","F_romp.wav","space","540.135782678","234","624334.267861","631200.576732","631967.235679","632733.232687","618917.091496","619684.307574","620433.93046","621200.133686","625083.170682","625850.286897","626617.137223","627383.459172","628149.95704","628917.532377","629684.128254","630433.590988","631977.125821","Mapping"
"Blocked","Female","ball","2","F_ball.wav","None","727.863585344","234","624334.267861","631200.576732","631967.235679","632733.232687","633500.163707","619684.307574","620433.93046","621200.133686","625083.170682","625850.286897","626617.137223","627383.459172","628149.95704","628917.532377","629684.128254","630433.590988","632742.283114","Mapping"
"Blocked","Female","ball","2","F_priest.wav","space","327.361549949","234","624334.267861","631200.576732","631967.235679","632733.232687","633500.163707","634267.171711","620433.93046","621200.133686","625083.170682","625850.286897","626617.137223","627383.459172","628149.95704","628917.532377","629684.128254","630433.590988","633509.855978","Mapping"
"Blocked","Female","ball","2","F_lash.wav","None","720.614401274","234","624334.267861","631200.576732","631967.235679","632733.232687","633500.163707","634267.171711","635033.620421","621200.133686","625083.170682","625850.286897","626617.137223","627383.459172","628149.95704","628917.532377","629684.128254","630433.590988","634277.69473","Mapping"
"Blocked","Female","ball","2","F_done.wav","None","719.949060585","234","624334.267861","631200.576732","631967.235679","632733.232687","633500.163707","634267.171711","635033.620421","635783.641522","625083.170682","625850.286897","626617.137223","627383.459172","628149.95704","628917.532377","629684.128254","630433.590988","635042.778131","Mapping"
"Blocked","Female","ball","6","F_greet.wav","None","733.940384584","234","638917.300188","631200.576732","631967.235679","632733.232687","633500.163707","634267.171711","635033.620421","635783.641522","625083.170682","625850.286897","626617.137223","627383.459172","628149.95704","628917.532377","629684.128254","630433.590988","635793.296383","Mapping"
"Blocked","Female","ball","6","F_lash.wav","None","718.866954441","234","638917.300188","631200.576732","631967.235679","632733.232687","633500.163707","634267.171711","635033.620421","635783.641522","639683.23227","625850.286897","626617.137223","627383.459172","628149.95704","628917.532377","629684.128254","630433.590988","638927.705721","Mapping"
"Blocked","Female","ball","6","F_ball.wav","None","722.10832627","234","638917.300188","631200.576732","631967.235679","632733.232687","633500.163707","634267.171711","635033.620421","635783.641522","639683.23227","640433.845437","626617.137223","627383.459172","628149.95704","628917.532377","629684.128254","630433.590988","639692.405748","Mapping"
"Blocked","Female","ball","6","F_cave.wav","space","561.563958763","234","638917.300188","631200.576732","631967.235679","632733.232687","633500.163707","634267.171711","635033.620421","635783.641522","639683.23227","640433.845437","641200.250863","627383.459172","628149.95704","628917.532377","629684.128254","630433.590988","640443.571408","Mapping"
"Blocked","Female","ball","6","F_ball.wav","None","732.28167044","234","638917.300188","631200.576732","631967.235679","632733.232687","633500.163707","634267.171711","635033.620421","635783.641522","639683.23227","640433.845437","641200.250863","641966.883531","628149.95704","628917.532377","629684.128254","630433.590988","641210.121836","Mapping"
"Blocked","Female","ball","6","F_gnash.wav","space","515.93586884","234","638917.300188","631200.576732","631967.235679","632733.232687","633500.163707","634267.171711","635033.620421","635783.641522","639683.23227","640433.845437","641200.250863","641966.883531","642732.999571","628917.532377","629684.128254","630433.590988","641977.168796","Mapping"
"Blocked","Female","ball","6","F_jolt.wav","None","729.132123059","234","638917.300188","631200.576732","631967.235679","632733.232687","633500.163707","634267.171711","635033.620421","635783.641522","639683.23227","640433.845437","641200.250863","641966.883531","642732.999571","643500.025507","629684.128254","630433.590988","642742.246323","Mapping"
"Blocked","Female","ball","6","F_park.wav","None","726.34925507","234","638917.300188","631200.576732","631967.235679","632733.232687","633500.163707","634267.171711","635033.620421","635783.641522","639683.23227","640433.845437","641200.250863","641966.883531","642732.999571","643500.025507","644266.656629","630433.590988","643509.415097","Mapping"
"Blocked","Female","ball","6","F_greet.wav","None","724.284596392","234","638917.300188","631200.576732","631967.235679","632733.232687","633500.163707","634267.171711","635033.620421","635783.641522","639683.23227","640433.845437","641200.250863","641966.883531","642732.999571","643500.025507","644266.656629","645033.162536","644275.99335","Mapping"
"Blocked","Female","ball","6","F_lash.wav","None","692.600526847","234","638917.300188","645799.897849","631967.235679","632733.232687","633500.163707","634267.171711","635033.620421","635783.641522","639683.23227","640433.845437","641200.250863","641966.883531","642732.999571","643500.025507","644266.656629","645033.162536","645072.055906","Mapping"
"Blocked","Female","ball","6","F_cling.wav","None","716.864748858","234","638917.300188","645799.897849","646550.033654","632733.232687","633500.163707","634267.171711","635033.620421","635783.641522","639683.23227","640433.845437","641200.250863","641966.883531","642732.999571","643500.025507","644266.656629","645033.162536","645812.23386","Mapping"
"Blocked","Female","ball","6","F_ball.wav","None","734.029735671","234","638917.300188","645799.897849","646550.033654","647316.729084","633500.163707","634267.171711","635033.620421","635783.641522","639683.23227","640433.845437","641200.250863","641966.883531","642732.999571","643500.025507","644266.656629","645033.162536","646559.584941","Mapping"
"Blocked","Female","ball","6","F_cave.wav","space","382.945635356","234","638917.300188","645799.897849","646550.033654","647316.729084","648083.093698","634267.171711","635033.620421","635783.641522","639683.23227","640433.845437","641200.250863","641966.883531","642732.999571","643500.025507","644266.656629","645033.162536","647326.073225","Mapping"
"Blocked","Female","ball","6","F_depth.wav","None","729.236623505","234","638917.300188","645799.897849","646550.033654","647316.729084","648083.093698","648849.921455","635033.620421","635783.641522","639683.23227","640433.845437","641200.250863","641966.883531","642732.999571","643500.025507","644266.656629","645033.162536","648092.180608","Mapping"
"Blocked","Female","ball","6","F_ball.wav","None","726.305661607","234","638917.300188","645799.897849","646550.033654","647316.729084","648083.093698","648849.921455","649617.231212","635783.641522","639683.23227","640433.845437","641200.250863","641966.883531","642732.999571","643500.025507","644266.656629","645033.162536","648859.575078","Mapping"
"Blocked","Female","ball","6","F_romp.wav","space","466.084163752","234","638917.300188","645799.897849","646550.033654","647316.729084","648083.093698","648849.921455","649617.231212","650383.611285","639683.23227","640433.845437","641200.250863","641966.883531","642732.999571","643500.025507","644266.656629","645033.162536","649626.877106","Mapping"
"Blocked","Female","tile","18","F_dime.wav","None","719.896810362","234","653500.270063","645799.897849","646550.033654","647316.729084","648083.093698","648849.921455","649617.231212","650383.611285","639683.23227","640433.845437","641200.250863","641966.883531","642732.999571","643500.025507","644266.656629","645033.162536","650393.971679","Mapping"
"Blocked","Female","tile","18","F_dime.wav","None","720.605435316","234","653500.270063","645799.897849","646550.033654","647316.729084","648083.093698","648849.921455","649617.231212","650383.611285","654249.370137","640433.845437","641200.250863","641966.883531","642732.999571","643500.025507","644266.656629","645033.162536","653509.915957","Mapping"
"Blocked","Female","tile","18","F_tile.wav","None","736.87320156","234","653500.270063","645799.897849","646550.033654","647316.729084","648083.093698","648849.921455","649617.231212","650383.611285","654249.370137","655016.164193","641200.250863","641966.883531","642732.999571","643500.025507","644266.656629","645033.162536","654258.264431","Mapping"
"Blocked","Female","tile","18","F_depth.wav","space","499.587717582","234","653500.270063","645799.897849","646550.033654","647316.729084","648083.093698","648849.921455","649617.231212","650383.611285","654249.370137","655016.164193","655783.319055","641966.883531","642732.999571","643500.025507","644266.656629","645033.162536","655025.265634","Mapping"
"Blocked","Female","tile","18","F_bluff.wav","None","730.287812417","234","653500.270063","645799.897849","646550.033654","647316.729084","648083.093698","648849.921455","649617.231212","650383.611285","654249.370137","655016.164193","655783.319055","656549.472195","642732.999571","643500.025507","644266.656629","645033.162536","655792.974843","Mapping"
"Blocked","Female","tile","18","F_jolt.wav","None","729.277125211","234","653500.270063","645799.897849","646550.033654","647316.729084","648083.093698","648849.921455","649617.231212","650383.611285","654249.370137","655016.164193","655783.319055","656549.472195","657316.555328","643500.025507","644266.656629","645033.162536","656558.562505","Mapping"
"Blocked","Female","tile","18","F_tile.wav","None","726.420983206","234","653500.270063","645799.897849","646550.033654","647316.729084","648083.093698","648849.921455","649617.231212","650383.611285","654249.370137","655016.164193","655783.319055","656549.472195","657316.555328","658083.77728","644266.656629","645033.162536","657325.87319","Mapping"
"Blocked","Female","tile","18","F_done.wav","space","391.034842934","234","653500.270063","645799.897849","646550.033654","647316.729084","648083.093698","648849.921455","649617.231212","650383.611285","654249.370137","655016.164193","655783.319055","656549.472195","657316.555328","658083.77728","658849.606098","645033.162536","658093.741314","Mapping"
"Blocked","Female","tile","18","F_depth.wav","None","721.666517784","234","653500.270063","645799.897849","646550.033654","647316.729084","648083.093698","648849.921455","649617.231212","650383.611285","654249.370137","655016.164193","655783.319055","656549.472195","657316.555328","658083.77728","658849.606098","659599.761998","658858.72578","Mapping"
"Blocked","Female","tile","18","F_priest.wav","None","735.918783932","234","653500.270063","660366.057977","646550.033654","647316.729084","648083.093698","648849.921455","649617.231212","650383.611285","654249.370137","655016.164193","655783.319055","656549.472195","657316.555328","658083.77728","658849.606098","659599.761998","659609.149115","Mapping"
"Blocked","Female","tile","18","F_cave.wav","None","734.937777393","234","653500.270063","660366.057977","661132.595419","647316.729084","648083.093698","648849.921455","649617.231212","650383.611285","654249.370137","655016.164193","655783.319055","656549.472195","657316.555328","658083.77728","658849.606098","659599.761998","660374.785009","Mapping"
"Blocked","Female","tile","18","F_tile.wav","None","732.60073713","234","653500.270063","660366.057977","661132.595419","661899.805004","648083.093698","648849.921455","649617.231212","650383.611285","654249.370137","655016.164193","655783.319055","656549.472195","657316.555328","658083.77728","658849.606098","659599.761998","661141.712628","Mapping"
"Blocked","Female","tile","18","F_dime.wav","space","535.584753263","234","653500.270063","660366.057977","661132.595419","661899.805004","662666.176112","648849.921455","649617.231212","650383.611285","654249.370137","655016.164193","655783.319055","656549.472195","657316.555328","658083.77728","658849.606098","659599.761998","661909.127504","Mapping"
"Blocked","Female","tile","18","F_tile.wav","None","727.80762508","234","653500.270063","660366.057977","661132.595419","661899.805004","662666.176112","663432.832586","649617.231212","650383.611285","654249.370137","655016.164193","655783.319055","656549.472195","657316.555328","658083.77728","658849.606098","659599.761998","662674.942718","Mapping"
"Blocked","Female","tile","18","F_park.wav","space","651.080112089","234","653500.270063","660366.057977","661132.595419","661899.805004","662666.176112","663432.832586","664200.108334","650383.611285","654249.370137","655016.164193","655783.319055","656549.472195","657316.555328","658083.77728","658849.606098","659599.761998","663441.630109","Mapping"
"Blocked","Female","tile","18","F_cad.wav","None","720.853083069","234","653500.270063","660366.057977","661132.595419","661899.805004","662666.176112","663432.832586","664200.108334","664966.272296","654249.370137","655016.164193","655783.319055","656549.472195","657316.555328","658083.77728","658849.606098","659599.761998","664210.106996","Mapping"
"Blocked","Female","cave","12","F_tile.wav","None","720.318213454","234","668083.572608","660366.057977","661132.595419","661899.805004","662666.176112","663432.832586","664200.108334","664966.272296","654249.370137","655016.164193","655783.319055","656549.472195","657316.555328","658083.77728","658849.606098","659599.761998","664975.391668","Mapping"
"Blocked","Female","cave","12","F_depth.wav","None","719.747788855","234","668083.572608","660366.057977","661132.595419","661899.805004","662666.176112","663432.832586","664200.108334","664966.272296","668832.391025","655016.164193","655783.319055","656549.472195","657316.555328","658083.77728","658849.606098","659599.761998","668093.374635","Mapping"
"Blocked","Female","cave","12","F_cave.wav","None","736.429228913","234","668083.572608","660366.057977","661132.595419","661899.805004","662666.176112","663432.832586","664200.108334","664966.272296","668832.391025","669599.610504","655783.319055","656549.472195","657316.555328","658083.77728","658849.606098","659599.761998","668841.291812","Mapping"
"Blocked","Female","cave","12","F_priest.wav","space","403.380128671","234","668083.572608","660366.057977","661132.595419","661899.805004","662666.176112","663432.832586","664200.108334","664966.272296","668832.391025","669599.610504","670366.287692","656549.472195","657316.555328","658083.77728","658849.606098","659599.761998","669609.239394","Mapping"
"Blocked","Female","cave","12","F_cave.wav","None","730.170017458","234","668083.572608","660366.057977","661132.595419","661899.805004","662666.176112","663432.832586","664200.108334","664966.272296","668832.391025","669599.610504","670366.287692","671133.07371","657316.555328","658083.77728","658849.606098","659599.761998","670375.615448","Mapping"
"Blocked","Female","cave","12","F_gnash.wav","space","453.817717033","234","668083.572608","660366.057977","661132.595419","661899.805004","662666.176112","663432.832586","664200.108334","664966.272296","668832.391025","669599.610504","670366.287692","671133.07371","671899.337844","658083.77728","658849.606098","659599.761998","671142.728262","Mapping"
"Blocked","Female","cave","12","F_park.wav","None","725.110707222","234","668083.572608","660366.057977","661132.595419","661899.805004","662666.176112","663432.832586","664200.108334","664966.272296","668832.391025","669599.610504","670366.287692","671133.07371","671899.337844","672666.093872","658849.606098","659599.761998","671908.58305","Mapping"
"Blocked","Female","cave","12","F_knife.wav","None","723.03429991","234","668083.572608","660366.057977","661132.595419","661899.805004","662666.176112","663432.832586","664200.108334","664966.272296","668832.391025","669599.610504","670366.287692","671133.07371","671899.337844","672666.093872","673432.694386","659599.761998","672675.144917","Mapping"
"Blocked","Female","cave","12","F_romp.wav","None","721.382078365","234","668083.572608","660366.057977","661132.595419","661899.805004","662666.176112","663432.832586","664200.108334","664966.272296","668832.391025","669599.610504","670366.287692","671133.07371","671899.337844","672666.093872","673432.694386","674182.829262","673441.607231","Mapping"
"Blocked","Female","cave","12","F_cave.wav","None","735.232419334","234","668083.572608","674949.494394","661132.595419","661899.805004","662666.176112","663432.832586","664200.108334","664966.272296","668832.391025","669599.610504","670366.287692","671133.07371","671899.337844","672666.093872","673432.694386","674182.829262","674192.235548","Mapping"
"Blocked","Female","cave","12","F_priest.wav","space","469.698089291","234","668083.572608","674949.494394","675716.232799","661899.805004","662666.176112","663432.832586","664200.108334","664966.272296","668832.391025","669599.610504","670366.287692","671133.07371","671899.337844","672666.093872","673432.694386","674182.829262","674958.816584","Mapping"
"Blocked","Female","cave","12","F_depth.wav","None","730.01728591","234","668083.572608","674949.494394","675716.232799","676482.926683","662666.176112","663432.832586","664200.108334","664966.272296","668832.391025","669599.610504","670366.287692","671133.07371","671899.337844","672666.093872","673432.694386","674182.829262","675725.377524","Mapping"
"Blocked","Female","cave","12","F_park.wav","None","727.530915057","234","668083.572608","674949.494394","675716.232799","676482.926683","677249.52225","663432.832586","664200.108334","664966.272296","668832.391025","669599.610504","670366.287692","671133.07371","671899.337844","672666.093872","673432.694386","674182.829262","676492.385219","Mapping"
"Blocked","Female","cave","12","F_cave.wav","None","725.705247256","234","668083.572608","674949.494394","675716.232799","676482.926683","677249.52225","678016.830461","664200.108334","664966.272296","668832.391025","669599.610504","670366.287692","671133.07371","671899.337844","672666.093872","673432.694386","674182.829262","677258.874739","Mapping"
"Blocked","Female","cave","12","F_ball.wav","space","537.280259072","234","668083.572608","674949.494394","675716.232799","676482.926683","677249.52225","678016.830461","678783.080991","664966.272296","668832.391025","669599.610504","670366.287692","671133.07371","671899.337844","672666.093872","673432.694386","674182.829262","678027.14046","Mapping"
"Blocked","Female","cave","12","F_greet.wav","None","719.347409671","234","668083.572608","674949.494394","675716.232799","676482.926683","677249.52225","678016.830461","678783.080991","679532.300406","668832.391025","669599.610504","670366.287692","671133.07371","671899.337844","672666.093872","673432.694386","674182.829262","678793.212288","Mapping"
"Blocked","Female","ball","4","F_tile.wav","None","736.003806582","234","682666.65904","674949.494394","675716.232799","676482.926683","677249.52225","678016.830461","678783.080991","679532.300406","668832.391025","669599.610504","670366.287692","671133.07371","671899.337844","672666.093872","673432.694386","674182.829262","679541.178006","Mapping"
"Blocked","Female","ball","4","F_ball.wav","None","720.406636945","234","682666.65904","674949.494394","675716.232799","676482.926683","677249.52225","678016.830461","678783.080991","679532.300406","683416.357055","669599.610504","670366.287692","671133.07371","671899.337844","672666.093872","673432.694386","674182.829262","682676.37419","Mapping"
"Blocked","Female","ball","4","F_done.wav","space","376.001295983","234","682666.65904","674949.494394","675716.232799","676482.926683","677249.52225","678016.830461","678783.080991","679532.300406","683416.357055","684182.530601","670366.287692","671133.07371","671899.337844","672666.093872","673432.694386","674182.829262","683420.377544","Mapping"
"Blocked","Female","ball","4","F_ball.wav","None","733.099742676","234","682666.65904","674949.494394","675716.232799","676482.926683","677249.52225","678016.830461","678783.080991","679532.300406","683416.357055","684182.530601","684949.32373","671133.07371","671899.337844","672666.093872","673432.694386","674182.829262","684191.837642","Mapping"
"Blocked","Female","ball","4","F_lash.wav","space","429.97242487","234","682666.65904","674949.494394","675716.232799","676482.926683","677249.52225","678016.830461","678783.080991","679532.300406","683416.357055","684182.530601","684949.32373","685716.045749","671899.337844","672666.093872","673432.694386","674182.829262","684958.364264","Mapping"
"Blocked","Female","ball","4","F_jolt.wav","None","727.769596735","234","682666.65904","674949.494394","675716.232799","676482.926683","677249.52225","678016.830461","678783.080991","679532.300406","683416.357055","684182.530601","684949.32373","685716.045749","686482.751073","672666.093872","673432.694386","674182.829262","685725.35279","Mapping"
"Blocked","Female","ball","4","F_greet.wav","None","725.80943862","234","682666.65904","674949.494394","675716.232799","676482.926683","677249.52225","678016.830461","678783.080991","679532.300406","683416.357055","684182.530601","684949.32373","685716.045749","686482.751073","687250.153273","673432.694386","674182.829262","686492.003081","Mapping"
"Blocked","Female","ball","4","F_romp.wav","None","722.614133614","234","682666.65904","674949.494394","675716.232799","676482.926683","677249.52225","678016.830461","678783.080991","679532.300406","683416.357055","684182.530601","684949.32373","685716.045749","686482.751073","687250.153273","688016.43843","674182.829262","687259.892847","Mapping"
"Blocked","Female","ball","4","F_depth.wav","None","720.735597308","234","682666.65904","674949.494394","675716.232799","676482.926683","677249.52225","678016.830461","678783.080991","679532.300406","683416.357055","684182.530601","684949.32373","685716.045749","686482.751073","687250.153273","688016.43843","688782.973399","688026.406792","Mapping"
"Blocked","Female","ball","4","F_reek.wav","None","718.930334901","234","682666.65904","689532.084294","675716.232799","676482.926683","677249.52225","678016.830461","678783.080991","679532.300406","683416.357055","684182.530601","684949.32373","685716.045749","686482.751073","687250.153273","688016.43843","688782.973399","688792.960312","Mapping"
"Blocked","Female","ball","4","F_jolt.wav","None","735.3845326","234","682666.65904","689532.084294","690299.172683","676482.926683","677249.52225","678016.830461","678783.080991","679532.300406","683416.357055","684182.530601","684949.32373","685716.045749","686482.751073","687250.153273","688016.43843","688782.973399","689541.251589","Mapping"
"Blocked","Female","ball","4","F_ball.wav","None","732.777584228","234","682666.65904","689532.084294","690299.172683","691065.92562","677249.52225","678016.830461","678783.080991","679532.300406","683416.357055","684182.530601","684949.32373","685716.045749","686482.751073","687250.153273","688016.43843","688782.973399","690308.563201","Mapping"
"Blocked","Female","ball","4","F_gnash.wav","space","336.868007551","234","682666.65904","689532.084294","690299.172683","691065.92562","691832.763269","678016.830461","678783.080991","679532.300406","683416.357055","684182.530601","684949.32373","685716.045749","686482.751073","687250.153273","688016.43843","688782.973399","691075.373953","Mapping"
"Blocked","Female","ball","4","F_cling.wav","None","727.73125919","234","682666.65904","689532.084294","690299.172683","691065.92562","691832.763269","692599.254954","678783.080991","679532.300406","683416.357055","684182.530601","684949.32373","685716.045749","686482.751073","687250.153273","688016.43843","688782.973399","691842.024862","Mapping"
"Blocked","Female","ball","4","F_ball.wav","None","725.654233713","234","682666.65904","689532.084294","690299.172683","691065.92562","691832.763269","692599.254954","693366.39714","679532.300406","683416.357055","684182.530601","684949.32373","685716.045749","686482.751073","687250.153273","688016.43843","688782.973399","692609.056672","Mapping"
"Blocked","Female","ball","4","F_cave.wav","space","492.027814384","234","682666.65904","689532.084294","690299.172683","691065.92562","691832.763269","692599.254954","693366.39714","694132.253783","683416.357055","684182.530601","684949.32373","685716.045749","686482.751073","687250.153273","688016.43843","688782.973399","693376.191438","Mapping"
"Blocked","Female","ball","5","F_tile.wav","None","721.523061395","234","697249.586558","689532.084294","690299.172683","691065.92562","691832.763269","692599.254954","693366.39714","694132.253783","683416.357055","684182.530601","684949.32373","685716.045749","686482.751073","687250.153273","688016.43843","688782.973399","694141.631315","Mapping"
"Blocked","Female","ball","5","F_ball.wav","None","720.441573532","234","697249.586558","689532.084294","690299.172683","691065.92562","691832.763269","692599.254954","693366.39714","694132.253783","697999.126586","684182.530601","684949.32373","685716.045749","686482.751073","687250.153273","688016.43843","688782.973399","697259.183913","Mapping"
"Blocked","Female","ball","5","F_jolt.wav","space","396.009439719","234","697249.586558","689532.084294","690299.172683","691065.92562","691832.763269","692599.254954","693366.39714","694132.253783","697999.126586","698765.441733","684949.32373","685716.045749","686482.751073","687250.153273","688016.43843","688782.973399","698008.11085","Mapping"
"Blocked","Female","ball","5","F_ball.wav","None","733.829700621","234","697249.586558","689532.084294","690299.172683","691065.92562","691832.763269","692599.254954","693366.39714","694132.253783","697999.126586","698765.441733","699532.565368","685716.045749","686482.751073","687250.153273","688016.43843","688782.973399","698774.3014","Mapping"
"Blocked","Female","ball","5","F_priest.wav","space","438.092549797","234","697249.586558","689532.084294","690299.172683","691065.92562","691832.763269","692599.254954","693366.39714","694132.253783","697999.126586","698765.441733","699532.565368","700299.04314","686482.751073","687250.153273","688016.43843","688782.973399","699542.001952","Mapping"
"Blocked","Female","ball","5","F_cad.wav","None","728.469564812","234","697249.586558","689532.084294","690299.172683","691065.92562","691832.763269","692599.254954","693366.39714","694132.253783","697999.126586","698765.441733","699532.565368","700299.04314","701065.40559","687250.153273","688016.43843","688782.973399","700308.089548","Mapping"
"Blocked","Female","ball","5","F_knife.wav","None","727.116313763","234","697249.586558","689532.084294","690299.172683","691065.92562","691832.763269","692599.254954","693366.39714","694132.253783","697999.126586","698765.441733","699532.565368","700299.04314","701065.40559","701832.911054","688016.43843","688782.973399","701074.366976","Mapping"
"Blocked","Female","ball","5","F_ball.wav","None","723.284421139","234","697249.586558","689532.084294","690299.172683","691065.92562","691832.763269","692599.254954","693366.39714","694132.253783","697999.126586","698765.441733","699532.565368","700299.04314","701065.40559","701832.911054","702599.439222","688782.973399","701842.961347","Mapping"
"Blocked","Female","ball","5","F_romp.wav","space","362.909356947","234","697249.586558","689532.084294","690299.172683","691065.92562","691832.763269","692599.254954","693366.39714","694132.253783","697999.126586","698765.441733","699532.565368","700299.04314","701065.40559","701832.911054","702599.439222","703365.75746","702609.115415","Mapping"
"Blocked","Female","ball","5","F_tile.wav","None","720.308010699","234","697249.586558","704115.649636","690299.172683","691065.92562","691832.763269","692599.254954","693366.39714","694132.253783","697999.126586","698765.441733","699532.565368","700299.04314","701065.40559","701832.911054","702599.439222","703365.75746","703374.705551","Mapping"
"Blocked","Female","ball","5","F_ball.wav","None","734.187723137","234","697249.586558","704115.649636","704882.419886","691065.92562","691832.763269","692599.254954","693366.39714","694132.253783","697999.126586","698765.441733","699532.565368","700299.04314","701065.40559","701832.911054","702599.439222","703365.75746","704125.553381","Mapping"
"Blocked","Female","ball","5","F_depth.wav","space","576.264216914","234","697249.586558","704115.649636","704882.419886","705648.959184","691832.763269","692599.254954","693366.39714","694132.253783","697999.126586","698765.441733","699532.565368","700299.04314","701065.40559","701832.911054","702599.439222","703365.75746","704891.71085","Mapping"
"Blocked","Female","ball","5","F_tile.wav","None","730.076647131","234","697249.586558","704115.649636","704882.419886","705648.959184","706415.696971","692599.254954","693366.39714","694132.253783","697999.126586","698765.441733","699532.565368","700299.04314","701065.40559","701832.911054","702599.439222","703365.75746","705658.11102","Mapping"
"Blocked","Female","ball","5","F_cad.wav","None","727.751664701","234","697249.586558","704115.649636","704882.419886","705648.959184","706415.696971","707182.462892","693366.39714","694132.253783","697999.126586","698765.441733","699532.565368","700299.04314","701065.40559","701832.911054","702599.439222","703365.75746","706425.272992","Mapping"
"Blocked","Female","ball","5","F_depth.wav","None","726.090167882","234","697249.586558","704115.649636","704882.419886","705648.959184","706415.696971","707182.462892","707949.166052","694132.253783","697999.126586","698765.441733","699532.565368","700299.04314","701065.40559","701832.911054","702599.439222","703365.75746","707191.962239","Mapping"
"Blocked","Female","ball","5","F_tile.wav","None","723.91266108","234","697249.586558","704115.649636","704882.419886","705648.959184","706415.696971","707182.462892","707949.166052","708716.101709","697999.126586","698765.441733","699532.565368","700299.04314","701065.40559","701832.911054","702599.439222","703365.75746","707958.939326","Mapping"
"Blocked","Female","done","23","F_reek.wav","None","721.643020632","234","711832.652585","704115.649636","704882.419886","705648.959184","706415.696971","707182.462892","707949.166052","708716.101709","697999.126586","698765.441733","699532.565368","700299.04314","701065.40559","701832.911054","702599.439222","703365.75746","708726.019058","Mapping"
"Blocked","Female","done","23","F_done.wav","None","719.991726568","234","711832.652585","704115.649636","704882.419886","705648.959184","706415.696971","707182.462892","707949.166052","708716.101709","712581.620024","698765.441733","699532.565368","700299.04314","701065.40559","701832.911054","702599.439222","703365.75746","711842.598378","Mapping"
"Blocked","Female","done","23","F_depth.wav","space","573.340675095","234","711832.652585","704115.649636","704882.419886","705648.959184","706415.696971","707182.462892","707949.166052","708716.101709","712581.620024","713348.875058","699532.565368","700299.04314","701065.40559","701832.911054","702599.439222","703365.75746","712590.486184","Mapping"
"Blocked","Female","done","23","F_knife.wav","None","732.571984059","234","711832.652585","704115.649636","704882.419886","705648.959184","706415.696971","707182.462892","707949.166052","708716.101709","712581.620024","713348.875058","714115.538334","700299.04314","701065.40559","701832.911054","702599.439222","703365.75746","713358.244552","Mapping"
"Blocked","Female","done","23","F_cling.wav","None","730.771977687","234","711832.652585","704115.649636","704882.419886","705648.959184","706415.696971","707182.462892","707949.166052","708716.101709","712581.620024","713348.875058","714115.538334","714882.248604","701065.40559","701832.911054","702599.439222","703365.75746","714125.04912","Mapping"
"Blocked","Female","done","23","F_tile.wav","None","728.998251026","234","711832.652585","704115.649636","704882.419886","705648.959184","706415.696971","707182.462892","707949.166052","708716.101709","712581.620024","713348.875058","714115.538334","714882.248604","715648.337127","701832.911054","702599.439222","703365.75746","714891.521945","Mapping"
"Blocked","Female","done","23","F_done.wav","None","728.174613556","234","711832.652585","704115.649636","704882.419886","705648.959184","706415.696971","707182.462892","707949.166052","708716.101709","712581.620024","713348.875058","714115.538334","714882.248604","715648.337127","716415.485805","702599.439222","703365.75746","715657.252137","Mapping"
"Blocked","Female","done","23","F_ball.wav","space","330.870047328","234","711832.652585","704115.649636","704882.419886","705648.959184","706415.696971","707182.462892","707949.166052","708716.101709","712581.620024","713348.875058","714115.538334","714882.248604","715648.337127","716415.485805","717182.529055","703365.75746","716424.90724","Mapping"
"Blocked","Female","done","23","F_done.wav","None","721.559852944","234","711832.652585","704115.649636","704882.419886","705648.959184","706415.696971","707182.462892","707949.166052","708716.101709","712581.620024","713348.875058","714115.538334","714882.248604","715648.337127","716415.485805","717182.529055","717949.078865","717192.597899","Mapping"
"Blocked","Female","done","23","F_dime.wav","None","719.507252099","234","711832.652585","718698.439881","704882.419886","705648.959184","706415.696971","707182.462892","707949.166052","708716.101709","712581.620024","713348.875058","714115.538334","714882.248604","715648.337127","716415.485805","717182.529055","717949.078865","717959.481615","Mapping"
"Blocked","Female","done","23","F_depth.wav","space","0.0343181891367","234","711832.652585","718698.439881","719465.053689","705648.959184","706415.696971","707182.462892","707949.166052","708716.101709","712581.620024","713348.875058","714115.538334","714882.248604","715648.337127","716415.485805","717182.529055","717949.078865","718707.850186","Mapping"
"Blocked","Female","done","23","F_greet.wav","None","733.589782147","234","711832.652585","718698.439881","719465.053689","720231.73768","706415.696971","707182.462892","707949.166052","708716.101709","712581.620024","713348.875058","714115.538334","714882.248604","715648.337127","716415.485805","717182.529055","717949.078865","719473.802363","Mapping"
"Blocked","Female","done","23","F_ball.wav","None","731.51244747","234","711832.652585","718698.439881","719465.053689","720231.73768","720998.722187","707182.462892","707949.166052","708716.101709","712581.620024","713348.875058","714115.538334","714882.248604","715648.337127","716415.485805","717182.529055","717949.078865","720240.812841","Mapping"
"Blocked","Female","done","23","F_done.wav","space","523.215042544","234","711832.652585","718698.439881","719465.053689","720231.73768","720998.722187","721765.357638","707949.166052","708716.101709","712581.620024","713348.875058","714115.538334","714882.248604","715648.337127","716415.485805","717182.529055","717949.078865","721008.441356","Mapping"
"Blocked","Female","done","23","F_cling.wav","None","725.972682005","234","711832.652585","718698.439881","719465.053689","720231.73768","720998.722187","721765.357638","722531.612496","708716.101709","712581.620024","713348.875058","714115.538334","714882.248604","715648.337127","716415.485805","717182.529055","717949.078865","721774.672717","Mapping"
"Blocked","Female","done","23","F_park.wav","None","725.187382195","234","711832.652585","718698.439881","719465.053689","720231.73768","720998.722187","721765.357638","722531.612496","723298.38862","712581.620024","713348.875058","714115.538334","714882.248604","715648.337127","716415.485805","717182.529055","717949.078865","722540.539254","Mapping"
"Blocked","Female","cave","7","F_cad.wav","space","32.1221679915","234","726415.711193","718698.439881","719465.053689","720231.73768","720998.722187","721765.357638","722531.612496","723298.38862","712581.620024","713348.875058","714115.538334","714882.248604","715648.337127","716415.485805","717182.529055","717949.078865","723307.512012","Mapping"
"Blocked","Female","cave","7","F_cave.wav","None","720.492277876","234","726415.711193","718698.439881","719465.053689","720231.73768","720998.722187","721765.357638","722531.612496","723298.38862","727181.54774","713348.875058","714115.538334","714882.248604","715648.337127","716415.485805","717182.529055","717949.078865","726425.582475","Mapping"
"Blocked","Female","cave","7","F_park.wav","space","589.085629559","234","726415.711193","718698.439881","719465.053689","720231.73768","720998.722187","721765.357638","722531.612496","723298.38862","727181.54774","727931.93552","714115.538334","714882.248604","715648.337127","716415.485805","717182.529055","717949.078865","727190.500777","Mapping"
"Blocked","Female","cave","7","F_cave.wav","None","738.944352837","234","726415.711193","718698.439881","719465.053689","720231.73768","720998.722187","721765.357638","722531.612496","723298.38862","727181.54774","727931.93552","728698.564169","714882.248604","715648.337127","716415.485805","717182.529055","717949.078865","727936.169338","Mapping"
"Blocked","Female","cave","7","F_bluff.wav","space","623.131782282","234","726415.711193","718698.439881","719465.053689","720231.73768","720998.722187","721765.357638","722531.612496","723298.38862","727181.54774","727931.93552","728698.564169","729465.216624","715648.337127","716415.485805","717182.529055","717949.078865","728708.390002","Mapping"
"Blocked","Female","cave","7","F_cave.wav","None","728.601890965","234","726415.711193","718698.439881","719465.053689","720231.73768","720998.722187","721765.357638","722531.612496","723298.38862","727181.54774","727931.93552","728698.564169","729465.216624","730231.998313","716415.485805","717182.529055","717949.078865","729474.912914","Mapping"
"Blocked","Female","cave","7","F_bluff.wav","space","449.936665827","234","726415.711193","718698.439881","719465.053689","720231.73768","720998.722187","721765.357638","722531.612496","723298.38862","727181.54774","727931.93552","728698.564169","729465.216624","730231.998313","730998.965816","717182.529055","717949.078865","730241.565678","Mapping"
"Blocked","Female","cave","7","F_park.wav","None","722.508705454","234","726415.711193","718698.439881","719465.053689","720231.73768","720998.722187","721765.357638","722531.612496","723298.38862","727181.54774","727931.93552","728698.564169","729465.216624","730231.998313","730998.965816","731765.700202","717949.078865","731009.266848","Mapping"
"Blocked","Female","cave","7","F_reek.wav","None","721.036422765","234","726415.711193","718698.439881","719465.053689","720231.73768","720998.722187","721765.357638","722531.612496","723298.38862","727181.54774","727931.93552","728698.564169","729465.216624","730231.998313","730998.965816","731765.700202","732532.648535","731775.930124","Mapping"
"Blocked","Female","cave","7","F_jaw.wav","None","719.437069842","234","726415.711193","733281.87939","719465.053689","720231.73768","720998.722187","721765.357638","722531.612496","723298.38862","727181.54774","727931.93552","728698.564169","729465.216624","730231.998313","730998.965816","731765.700202","732532.648535","732542.475915","Mapping"
"Blocked","Female","cave","7","F_depth.wav","None","735.474192887","234","726415.711193","733281.87939","734047.994192","720231.73768","720998.722187","721765.357638","722531.612496","723298.38862","727181.54774","727931.93552","728698.564169","729465.216624","730231.998313","730998.965816","731765.700202","732532.648535","733291.488802","Mapping"
"Blocked","Female","cave","7","F_romp.wav","None","734.556566807","234","726415.711193","733281.87939","734047.994192","734814.92243","720998.722187","721765.357638","722531.612496","723298.38862","727181.54774","727931.93552","728698.564169","729465.216624","730231.998313","730998.965816","731765.700202","732532.648535","734057.375744","Mapping"
"Blocked","Female","cave","7","F_reek.wav","None","734.734650468","234","726415.711193","733281.87939","734047.994192","734814.92243","735581.602092","721765.357638","722531.612496","723298.38862","727181.54774","727931.93552","728698.564169","729465.216624","730231.998313","730998.965816","731765.700202","732532.648535","734823.725209","Mapping"
"Blocked","Female","cave","7","F_tile.wav","None","732.419870794","234","726415.711193","733281.87939","734047.994192","734814.92243","735581.602092","736348.448708","722531.612496","723298.38862","727181.54774","727931.93552","728698.564169","729465.216624","730231.998313","730998.965816","731765.700202","732532.648535","735590.920263","Mapping"
"Blocked","Female","cave","7","F_cave.wav","None","730.760538252","234","726415.711193","733281.87939","734047.994192","734814.92243","735581.602092","736348.448708","737115.154032","723298.38862","727181.54774","727931.93552","728698.564169","729465.216624","730231.998313","730998.965816","731765.700202","732532.648535","736357.944963","Mapping"
"Blocked","Female","cave","7","F_gnash.wav","space","430.416706717","234","726415.711193","733281.87939","734047.994192","734814.92243","735581.602092","736348.448708","737115.154032","737881.847297","727181.54774","727931.93552","728698.564169","729465.216624","730231.998313","730998.965816","731765.700202","732532.648535","737124.976464","Mapping"
"Blocked","Female","tile","13","F_romp.wav","None","725.95382249","234","741015.455877","733281.87939","734047.994192","734814.92243","735581.602092","736348.448708","737115.154032","737881.847297","727181.54774","727931.93552","728698.564169","729465.216624","730231.998313","730998.965816","731765.700202","732532.648535","737891.421773","Mapping"
"Blocked","Female","tile","13","F_park.wav","None","720.563078648","234","741015.455877","733281.87939","734047.994192","734814.92243","735581.602092","736348.448708","737115.154032","737881.847297","741782.121008","727931.93552","728698.564169","729465.216624","730231.998313","730998.965816","731765.700202","732532.648535","741025.318502","Mapping"
"Blocked","Female","tile","13","F_tile.wav","None","719.063897734","234","741015.455877","733281.87939","734047.994192","734814.92243","735581.602092","736348.448708","737115.154032","737881.847297","741782.121008","742531.242106","728698.564169","729465.216624","730231.998313","730998.965816","731765.700202","732532.648535","741792.219224","Mapping"
"Blocked","Female","tile","13","F_cling.wav","space","359.012537869","234","741015.455877","733281.87939","734047.994192","734814.92243","735581.602092","736348.448708","737115.154032","737881.847297","741782.121008","742531.242106","743297.823761","729465.216624","730231.998313","730998.965816","731765.700202","732532.648535","742540.310465","Mapping"
"Blocked","Female","tile","13","F_jaw.wav","None","733.00235311","234","741015.455877","733281.87939","734047.994192","734814.92243","735581.602092","736348.448708","737115.154032","737881.847297","741782.121008","742531.242106","743297.823761","744065.082813","730231.998313","730998.965816","731765.700202","732532.648535","743306.953955","Mapping"
"Blocked","Female","tile","13","F_jolt.wav","None","730.154867982","234","741015.455877","733281.87939","734047.994192","734814.92243","735581.602092","736348.448708","737115.154032","737881.847297","741782.121008","742531.242106","743297.823761","744065.082813","744831.756292","730998.965816","731765.700202","732532.648535","744074.826407","Mapping"
"Blocked","Female","tile","13","F_tile.wav","None","728.850775398","234","741015.455877","733281.87939","734047.994192","734814.92243","735581.602092","736348.448708","737115.154032","737881.847297","741782.121008","742531.242106","743297.823761","744065.082813","744831.756292","745598.205002","731765.700202","732532.648535","744841.145882","Mapping"
"Blocked","Female","tile","13","F_dime.wav","space","499.541959958","234","741015.455877","733281.87939","734047.994192","734814.92243","735581.602092","736348.448708","737115.154032","737881.847297","741782.121008","742531.242106","743297.823761","744065.082813","744831.756292","745598.205002","746364.560651","732532.648535","745607.727537","Mapping"
"Blocked","Female","tile","13","F_jolt.wav","None","725.361446617","234","741015.455877","733281.87939","734047.994192","734814.92243","735581.602092","736348.448708","737115.154032","737881.847297","741782.121008","742531.242106","743297.823761","744065.082813","744831.756292","745598.205002","746364.560651","747132.017575","746373.220901","Mapping"
"Blocked","Female","tile","13","F_greet.wav","None","721.823577653","234","741015.455877","747898.627982","734047.994192","734814.92243","735581.602092","736348.448708","737115.154032","737881.847297","741782.121008","742531.242106","743297.823761","744065.082813","744831.756292","745598.205002","746364.560651","747132.017575","747141.866905","Mapping"
"Blocked","Female","tile","13","F_cave.wav","None","720.459814765","234","741015.455877","747898.627982","748665.469651","734814.92243","735581.602092","736348.448708","737115.154032","737881.847297","741782.121008","742531.242106","743297.823761","744065.082813","744831.756292","745598.205002","746364.560651","747132.017575","747908.634063","Mapping"
"Blocked","Female","tile","13","F_tile.wav","None","720.616256469","234","741015.455877","747898.627982","748665.469651","749431.972157","735581.602092","736348.448708","737115.154032","737881.847297","741782.121008","742531.242106","743297.823761","744065.082813","744831.756292","745598.205002","746364.560651","747132.017575","748675.299504","Mapping"
"Blocked","Female","tile","13","F_bluff.wav","space","385.375736631","234","741015.455877","747898.627982","748665.469651","749431.972157","750181.457152","736348.448708","737115.154032","737881.847297","741782.121008","742531.242106","743297.823761","744065.082813","744831.756292","745598.205002","746364.560651","747132.017575","749441.800464","Mapping"
"Blocked","Female","tile","13","F_tile.wav","None","733.437978197","234","741015.455877","747898.627982","748665.469651","749431.972157","750181.457152","750948.105897","737115.154032","737881.847297","741782.121008","742531.242106","743297.823761","744065.082813","744831.756292","745598.205002","746364.560651","747132.017575","750191.235682","Mapping"
"Blocked","Female","tile","13","F_park.wav","space","565.592176397","234","741015.455877","747898.627982","748665.469651","749431.972157","750181.457152","750948.105897","751714.848321","737881.847297","741782.121008","742531.242106","743297.823761","744065.082813","744831.756292","745598.205002","746364.560651","747132.017575","750957.577418","Mapping"
"Blocked","Female","tile","13","F_ball.wav","None","729.312061914","234","741015.455877","747898.627982","748665.469651","749431.972157","750181.457152","750948.105897","751714.848321","752481.560447","741782.121008","742531.242106","743297.823761","744065.082813","744831.756292","745598.205002","746364.560651","747132.017575","751724.07374","Mapping"
"Blocked","Female","tile","14","F_dime.wav","None","727.593986318","234","755615.119559","747898.627982","748665.469651","749431.972157","750181.457152","750948.105897","751714.848321","752481.560447","741782.121008","742531.242106","743297.823761","744065.082813","744831.756292","745598.205002","746364.560651","747132.017575","752490.92252","Mapping"
"Blocked","Female","tile","14","F_cave.wav","None","719.307217048","234","755615.119559","747898.627982","748665.469651","749431.972157","750181.457152","750948.105897","751714.848321","752481.560447","756364.693905","742531.242106","743297.823761","744065.082813","744831.756292","745598.205002","746364.560651","747132.017575","755625.283628","Mapping"
"Blocked","Female","tile","14","F_tile.wav","None","735.075977747","234","755615.119559","747898.627982","748665.469651","749431.972157","750181.457152","750948.105897","751714.848321","752481.560447","756364.693905","757131.349451","743297.823761","744065.082813","744831.756292","745598.205002","746364.560651","747132.017575","756374.59765","Mapping"
"Blocked","Female","tile","14","F_bluff.wav","space","342.024707235","234","755615.119559","747898.627982","748665.469651","749431.972157","750181.457152","750948.105897","751714.848321","752481.560447","756364.693905","757131.349451","757898.043026","744065.082813","744831.756292","745598.205002","746364.560651","747132.017575","757141.050688","Mapping"
"Blocked","Female","tile","14","F_jaw.wav","None","731.548929936","234","755615.119559","747898.627982","748665.469651","749431.972157","750181.457152","750948.105897","751714.848321","752481.560447","756364.693905","757131.349451","757898.043026","758664.30716","744831.756292","745598.205002","746364.560651","747132.017575","757907.361197","Mapping"
"Blocked","Female","tile","14","F_reek.wav","None","736.46787554","234","755615.119559","747898.627982","748665.469651","749431.972157","750181.457152","750948.105897","751714.848321","752481.560447","756364.693905","757131.349451","757898.043026","758664.30716","759431.534368","745598.205002","746364.560651","747132.017575","758667.704973","Mapping"
"Blocked","Female","tile","14","F_bluff.wav","None","728.38670644","234","755615.119559","747898.627982","748665.469651","749431.972157","750181.457152","750948.105897","751714.848321","752481.560447","756364.693905","757131.349451","757898.043026","758664.30716","759431.534368","760198.036255","746364.560651","747132.017575","759440.991358","Mapping"
"Blocked","Female","tile","14","F_dime.wav","None","726.59102839","234","755615.119559","747898.627982","748665.469651","749431.972157","750181.457152","750948.105897","751714.848321","752481.560447","756364.693905","757131.349451","757898.043026","758664.30716","759431.534368","760198.036255","760964.316157","747132.017575","760208.005855","Mapping"
"Blocked","Female","tile","14","F_tile.wav","None","727.033455274","234","755615.119559","747898.627982","748665.469651","749431.972157","750181.457152","750948.105897","751714.848321","752481.560447","756364.693905","757131.349451","757898.043026","758664.30716","759431.534368","760198.036255","760964.316157","761730.850508","760973.410177","Mapping"
"Blocked","Female","tile","14","F_park.wav","space","510.867901728","234","755615.119559","762498.409458","748665.469651","749431.972157","750181.457152","750948.105897","751714.848321","752481.560447","756364.693905","757131.349451","757898.043026","758664.30716","759431.534368","760198.036255","760964.316157","761730.850508","761740.038208","Mapping"
"Blocked","Female","tile","14","F_tile.wav","None","720.740544028","234","755615.119559","762498.409458","763264.9098","749431.972157","750181.457152","750948.105897","751714.848321","752481.560447","756364.693905","757131.349451","757898.043026","758664.30716","759431.534368","760198.036255","760964.316157","761730.850508","762508.594551","Mapping"
"Blocked","Female","tile","14","F_park.wav","space","607.793081552","234","755615.119559","762498.409458","763264.9098","764014.089332","750181.457152","750948.105897","751714.848321","752481.560447","756364.693905","757131.349451","757898.043026","758664.30716","759431.534368","760198.036255","760964.316157","761730.850508","763275.130757","Mapping"
"Blocked","Female","tile","14","F_tile.wav","None","735.541283502","234","755615.119559","762498.409458","763264.9098","764014.089332","764781.321487","750948.105897","751714.848321","752481.560447","756364.693905","757131.349451","757898.043026","758664.30716","759431.534368","760198.036255","760964.316157","761730.850508","764023.070504","Mapping"
