"Condition","Talker","Target","Trial","current_stimulus","response_response","response_time_response","subject_nr","time_Audio1","time_Audio10","time_Audio11","time_Audio12","time_Audio13","time_Audio14","time_Audio15","time_Audio16","time_Audio2","time_Audio3","time_Audio4","time_Audio5","time_Audio6","time_Audio7","time_Audio8","time_Audio9","time_response","title"
"Mixed","Female","ball","9","F_greet.wav","NA","NA","432","106516.52824","NA","NA","NA","NA","NA","NA","NA","NA","NA","NA","NA","NA","NA","NA","NA","NA","Mapping"
"Mixed","Female","ball","9","M_romp.wav","None","721.692894671","432","106516.52824","NA","NA","NA","NA","NA","NA","NA","107283.055128","NA","NA","NA","NA","NA","NA","NA","106527.751387","Mapping"
"Mixed","Female","ball","9","F_ball.wav","None","730.152320139","432","106516.52824","NA","NA","NA","NA","NA","NA","NA","107283.055128","108050.238843","NA","NA","NA","NA","NA","NA","107287.164653","Mapping"
"Mixed","Female","ball","9","F_gnash.wav","space","437.058797723","432","106516.52824","NA","NA","NA","NA","NA","NA","NA","107283.055128","108050.238843","108817.027741","NA","NA","NA","NA","NA","108053.602602","Mapping"
"Mixed","Female","ball","9","F_lash.wav","space","451.811261726","432","106516.52824","NA","NA","NA","NA","NA","NA","NA","107283.055128","108050.238843","108817.027741","109584.644133","NA","NA","NA","NA","108819.871086","Mapping"
"Mixed","Female","ball","9","M_park.wav","None","733.613431239","432","106516.52824","NA","NA","NA","NA","NA","NA","NA","107283.055128","108050.238843","108817.027741","109584.644133","110351.533688","NA","NA","NA","109587.60376","Mapping"
"Mixed","Female","ball","9","M_gnash.wav","None","737.188420377","432","106516.52824","NA","NA","NA","NA","NA","NA","NA","107283.055128","108050.238843","108817.027741","109584.644133","110351.533688","111118.719807","NA","NA","110354.76494","Mapping"
"Mixed","Female","ball","9","M_jaw.wav","None","738.07660897","432","106516.52824","NA","NA","NA","NA","NA","NA","NA","107283.055128","108050.238843","108817.027741","109584.644133","110351.533688","111118.719807","111885.922151","NA","111121.769274","Mapping"
"Mixed","Female","ball","9","F_ball.wav","None","738.987332797","432","106516.52824","NA","NA","NA","NA","NA","NA","NA","107283.055128","108050.238843","108817.027741","109584.644133","110351.533688","111118.719807","111885.922151","112653.138617","111888.858041","Mapping"
"Mixed","Female","ball","9","M_priest.wav","space","384.966656871","432","106516.52824","113420.389036","NA","NA","NA","NA","NA","NA","107283.055128","108050.238843","108817.027741","109584.644133","110351.533688","111118.719807","111885.922151","112653.138617","112655.694112","Mapping"
"Mixed","Female","ball","9","F_gnash.wav","None","740.297681396","432","106516.52824","113420.389036","114187.530385","NA","NA","NA","NA","NA","107283.055128","108050.238843","108817.027741","109584.644133","110351.533688","111118.719807","111885.922151","112653.138617","113423.038879","Mapping"
"Mixed","Female","ball","9","F_ball.wav","None","740.763709984","432","106516.52824","113420.389036","114187.530385","114954.833387","NA","NA","NA","NA","107283.055128","108050.238843","108817.027741","109584.644133","110351.533688","111118.719807","111885.922151","112653.138617","114190.219589","Mapping"
"Mixed","Female","ball","9","M_depth.wav","space","506.209507945","432","106516.52824","113420.389036","114187.530385","114954.833387","115721.985552","NA","NA","NA","107283.055128","108050.238843","108817.027741","109584.644133","110351.533688","111118.719807","111885.922151","112653.138617","114957.478121","Mapping"
"Mixed","Female","ball","9","M_greet.wav","None","741.603222479","432","106516.52824","113420.389036","114187.530385","114954.833387","115721.985552","116489.272629","NA","NA","107283.055128","108050.238843","108817.027741","109584.644133","110351.533688","111118.719807","111885.922151","112653.138617","115724.96501","Mapping"
"Mixed","Female","ball","9","F_ball.wav","None","742.351993105","432","106516.52824","113420.389036","114187.530385","114954.833387","115721.985552","116489.272629","117256.482184","NA","107283.055128","108050.238843","108817.027741","109584.644133","110351.533688","111118.719807","111885.922151","112653.138617","116492.085927","Mapping"
"Mixed","Female","ball","9","M_romp.wav","space","316.13594694","432","106516.52824","113420.389036","114187.530385","114954.833387","115721.985552","116489.272629","117256.482184","118041.003305","107283.055128","108050.238843","108817.027741","109584.644133","110351.533688","111118.719807","111885.922151","112653.138617","117259.549379","Mapping"
"Mixed","Male","done","38","F_jolt.wav","None","724.375488639","432","121176.313248","113420.389036","114187.530385","114954.833387","115721.985552","116489.272629","117256.482184","118041.003305","107283.055128","108050.238843","108817.027741","109584.644133","110351.533688","111118.719807","111885.922151","112653.138617","118045.0939","Mapping"
"Mixed","Male","done","38","F_gnash.wav","None","731.316339967","432","121176.313248","113420.389036","114187.530385","114954.833387","115721.985552","116489.272629","117256.482184","118041.003305","121943.212418","108050.238843","108817.027741","109584.644133","110351.533688","111118.719807","111885.922151","112653.138617","121179.257551","Mapping"
"Mixed","Male","done","38","F_cling.wav","None","732.246293855","432","121176.313248","113420.389036","114187.530385","114954.833387","115721.985552","116489.272629","117256.482184","118041.003305","121943.212418","122710.481767","108817.027741","109584.644133","110351.533688","111118.719807","111885.922151","112653.138617","121946.072289","Mapping"
"Mixed","Male","done","38","M_gnash.wav","None","732.401636718","432","121176.313248","113420.389036","114187.530385","114954.833387","115721.985552","116489.272629","117256.482184","118041.003305","121943.212418","122710.481767","123477.614402","109584.644133","110351.533688","111118.719807","111885.922151","112653.138617","122713.424868","Mapping"
"Mixed","Male","done","38","F_knife.wav","None","733.038933067","432","121176.313248","113420.389036","114187.530385","114954.833387","115721.985552","116489.272629","117256.482184","118041.003305","121943.212418","122710.481767","123477.614402","124244.913798","110351.533688","111118.719807","111885.922151","112653.138617","123480.67649","Mapping"
"Mixed","Male","done","38","M_done.wav","None","733.52809783","432","121176.313248","113420.389036","114187.530385","114954.833387","115721.985552","116489.272629","117256.482184","118041.003305","121943.212418","122710.481767","123477.614402","124244.913798","125012.160912","111118.719807","111885.922151","112653.138617","124247.753838","Mapping"
"Mixed","Male","done","38","F_jolt.wav","space","327.673685038","432","121176.313248","113420.389036","114187.530385","114954.833387","115721.985552","116489.272629","117256.482184","118041.003305","121943.212418","122710.481767","123477.614402","124244.913798","125012.160912","125779.345829","111885.922151","112653.138617","125015.046023","Mapping"
"Mixed","Male","done","38","M_dime.wav","None","734.379028174","432","121176.313248","113420.389036","114187.530385","114954.833387","115721.985552","116489.272629","117256.482184","118041.003305","121943.212418","122710.481767","123477.614402","124244.913798","125012.160912","125779.345829","126546.534953","112653.138617","125782.241757","Mapping"
"Mixed","Male","done","38","M_done.wav","None","735.278033679","432","121176.313248","113420.389036","114187.530385","114954.833387","115721.985552","116489.272629","117256.482184","118041.003305","121943.212418","122710.481767","123477.614402","124244.913798","125012.160912","125779.345829","126546.534953","127313.77786","126549.184495","Mapping"
"Mixed","Male","done","38","M_gnash.wav","space","395.917577542","432","121176.313248","128080.96458","114187.530385","114954.833387","115721.985552","116489.272629","117256.482184","118041.003305","121943.212418","122710.481767","123477.614402","124244.913798","125012.160912","125779.345829","126546.534953","127313.77786","127316.769938","Mapping"
"Mixed","Male","done","38","F_cling.wav","None","736.883443577","432","121176.313248","128080.96458","128848.128164","114954.833387","115721.985552","116489.272629","117256.482184","118041.003305","121943.212418","122710.481767","123477.614402","124244.913798","125012.160912","125779.345829","126546.534953","127313.77786","128083.482517","Mapping"
"Mixed","Male","done","38","F_knife.wav","None","737.267143451","432","121176.313248","128080.96458","128848.128164","129615.434771","115721.985552","116489.272629","117256.482184","118041.003305","121943.212418","122710.481767","123477.614402","124244.913798","125012.160912","125779.345829","126546.534953","127313.77786","128850.992542","Mapping"
"Mixed","Male","done","38","M_done.wav","None","737.911951546","432","121176.313248","128080.96458","128848.128164","129615.434771","130382.568007","116489.272629","117256.482184","118041.003305","121943.212418","122710.481767","123477.614402","124244.913798","125012.160912","125779.345829","126546.534953","127313.77786","129618.217121","Mapping"
"Mixed","Male","done","38","M_knife.wav","space","449.499146966","432","121176.313248","128080.96458","128848.128164","129615.434771","130382.568007","131150.208436","117256.482184","118041.003305","121943.212418","122710.481767","123477.614402","124244.913798","125012.160912","125779.345829","126546.534953","127313.77786","130385.21154","Mapping"
"Mixed","Male","done","38","M_done.wav","None","738.667632977","432","121176.313248","128080.96458","128848.128164","129615.434771","130382.568007","131150.208436","131917.286085","118041.003305","121943.212418","122710.481767","123477.614402","124244.913798","125012.160912","125779.345829","126546.534953","127313.77786","131153.422861","Mapping"
"Mixed","Male","done","38","F_knife.wav","space","445.899218837","432","121176.313248","128080.96458","128848.128164","129615.434771","130382.568007","131150.208436","131917.286085","132684.260673","121943.212418","122710.481767","123477.614402","124244.913798","125012.160912","125779.345829","126546.534953","127313.77786","131920.79467","Mapping"
"Mixed","Male","tile","28","F_cad.wav","None","740.157962959","432","135820.363857","128080.96458","128848.128164","129615.434771","130382.568007","131150.208436","131917.286085","132684.260673","121943.212418","122710.481767","123477.614402","124244.913798","125012.160912","125779.345829","126546.534953","127313.77786","132687.243136","Mapping"
"Mixed","Male","tile","28","M_park.wav","None","731.661279244","432","135820.363857","128080.96458","128848.128164","129615.434771","130382.568007","131150.208436","131917.286085","132684.260673","136587.57191","122710.481767","123477.614402","124244.913798","125012.160912","125779.345829","126546.534953","127313.77786","135823.505569","Mapping"
"Mixed","Male","tile","28","M_tile.wav","None","732.271833784","432","135820.363857","128080.96458","128848.128164","129615.434771","130382.568007","131150.208436","131917.286085","132684.260673","136587.57191","137354.840057","123477.614402","124244.913798","125012.160912","125779.345829","126546.534953","127313.77786","136590.806166","Mapping"
"Mixed","Male","tile","28","M_depth.wav","space","382.849847452","432","135820.363857","128080.96458","128848.128164","129615.434771","130382.568007","131150.208436","131917.286085","132684.260673","136587.57191","137354.840057","138121.893669","124244.913798","125012.160912","125779.345829","126546.534953","127313.77786","137357.863985","Mapping"
"Mixed","Male","tile","28","F_depth.wav","None","733.682238812","432","135820.363857","128080.96458","128848.128164","129615.434771","130382.568007","131150.208436","131917.286085","132684.260673","136587.57191","137354.840057","138121.893669","138889.214999","125012.160912","125779.345829","126546.534953","127313.77786","138125.044094","Mapping"
"Mixed","Male","tile","28","M_tile.wav","None","734.418089241","432","135820.363857","128080.96458","128848.128164","129615.434771","130382.568007","131150.208436","131917.286085","132684.260673","136587.57191","137354.840057","138121.893669","138889.214999","139656.069098","125779.345829","126546.534953","127313.77786","138892.444147","Mapping"
"Mixed","Male","tile","28","F_cad.wav","space","407.404536252","432","135820.363857","128080.96458","128848.128164","129615.434771","130382.568007","131150.208436","131917.286085","132684.260673","136587.57191","137354.840057","138121.893669","138889.214999","139656.069098","140423.25041","126546.534953","127313.77786","139659.339712","Mapping"
"Mixed","Male","tile","28","M_tile.wav","None","736.855800358","432","135820.363857","128080.96458","128848.128164","129615.434771","130382.568007","131150.208436","131917.286085","132684.260673","136587.57191","137354.840057","138121.893669","138889.214999","139656.069098","140423.25041","141190.412791","127313.77786","140425.987088","Mapping"
"Mixed","Male","tile","28","F_cling.wav","space","389.047637076","432","135820.363857","128080.96458","128848.128164","129615.434771","130382.568007","131150.208436","131917.286085","132684.260673","136587.57191","137354.840057","138121.893669","138889.214999","139656.069098","140423.25041","141190.412791","141957.76537","141193.642541","Mapping"
"Mixed","Male","tile","28","F_gnash.wav","None","737.988571333","432","135820.363857","142724.968916","128848.128164","129615.434771","130382.568007","131150.208436","131917.286085","132684.260673","136587.57191","137354.840057","138121.893669","138889.214999","139656.069098","140423.25041","141190.412791","141957.76537","141960.584678","Mapping"
"Mixed","Male","tile","28","F_depth.wav","None","738.477135153","432","135820.363857","142724.968916","143492.208819","129615.434771","130382.568007","131150.208436","131917.286085","132684.260673","136587.57191","137354.840057","138121.893669","138889.214999","139656.069098","140423.25041","141190.412791","141957.76537","142727.79183","Mapping"
"Mixed","Male","tile","28","M_dime.wav","None","739.315145298","432","135820.363857","142724.968916","143492.208819","144259.446619","130382.568007","131150.208436","131917.286085","132684.260673","136587.57191","137354.840057","138121.893669","138889.214999","139656.069098","140423.25041","141190.412791","141957.76537","143495.121273","Mapping"
"Mixed","Male","tile","28","F_lash.wav","None","740.143239942","432","135820.363857","142724.968916","143492.208819","144259.446619","145026.604193","131150.208436","131917.286085","132684.260673","136587.57191","137354.840057","138121.893669","138889.214999","139656.069098","140423.25041","141190.412791","141957.76537","144262.429382","Mapping"
"Mixed","Male","tile","28","M_lash.wav","None","740.543766124","432","135820.363857","142724.968916","143492.208819","144259.446619","145026.604193","145793.685448","131917.286085","132684.260673","136587.57191","137354.840057","138121.893669","138889.214999","139656.069098","140423.25041","141190.412791","141957.76537","145029.462562","Mapping"
"Mixed","Male","tile","28","M_tile.wav","None","741.496555716","432","135820.363857","142724.968916","143492.208819","144259.446619","145026.604193","145793.685448","146560.955398","132684.260673","136587.57191","137354.840057","138121.893669","138889.214999","139656.069098","140423.25041","141190.412791","141957.76537","145796.678427","Mapping"
"Mixed","Male","tile","28","F_lash.wav","space","417.560413951","432","135820.363857","142724.968916","143492.208819","144259.446619","145026.604193","145793.685448","146560.955398","147328.138812","136587.57191","137354.840057","138121.893669","138889.214999","139656.069098","140423.25041","141190.412791","141957.76537","146564.144283","Mapping"
"Mixed","Male","tile","29","M_park.wav","None","742.557814887","432","150464.153958","142724.968916","143492.208819","144259.446619","145026.604193","145793.685448","146560.955398","147328.138812","136587.57191","137354.840057","138121.893669","138889.214999","139656.069098","140423.25041","141190.412791","141957.76537","147331.308468","Mapping"
"Mixed","Male","tile","29","M_tile.wav","None","730.813954537","432","150464.153958","142724.968916","143492.208819","144259.446619","145026.604193","145793.685448","146560.955398","147328.138812","151231.122537","137354.840057","138121.893669","138889.214999","139656.069098","140423.25041","141190.412791","141957.76537","150467.279445","Mapping"
"Mixed","Male","tile","29","M_lash.wav","space","571.201115823","432","150464.153958","142724.968916","143492.208819","144259.446619","145026.604193","145793.685448","146560.955398","147328.138812","151231.122537","151998.351322","138121.893669","138889.214999","139656.069098","140423.25041","141190.412791","141957.76537","151234.530465","Mapping"
"Mixed","Male","tile","29","F_jaw.wav","None","733.021505823","432","150464.153958","142724.968916","143492.208819","144259.446619","145026.604193","145793.685448","146560.955398","147328.138812","151231.122537","151998.351322","152765.539244","138889.214999","139656.069098","140423.25041","141190.412791","141957.76537","152001.062762","Mapping"
"Mixed","Male","tile","29","F_knife.wav","None","733.720999411","432","150464.153958","142724.968916","143492.208819","144259.446619","145026.604193","145793.685448","146560.955398","147328.138812","151231.122537","151998.351322","152765.539244","153532.686302","139656.069098","140423.25041","141190.412791","141957.76537","152768.479641","Mapping"
"Mixed","Male","tile","29","M_tile.wav","None","734.985376137","432","150464.153958","142724.968916","143492.208819","144259.446619","145026.604193","145793.685448","146560.955398","147328.138812","151231.122537","151998.351322","152765.539244","153532.686302","154300.018749","140423.25041","141190.412791","141957.76537","153535.415168","Mapping"
"Mixed","Male","tile","29","F_romp.wav","space","340.811725051","432","150464.153958","142724.968916","143492.208819","144259.446619","145026.604193","145793.685448","146560.955398","147328.138812","151231.122537","151998.351322","152765.539244","153532.686302","154300.018749","155067.202765","141190.412791","141957.76537","154302.89725","Mapping"
"Mixed","Male","tile","29","F_cad.wav","None","736.076081344","432","150464.153958","142724.968916","143492.208819","144259.446619","145026.604193","145793.685448","146560.955398","147328.138812","151231.122537","151998.351322","152765.539244","153532.686302","154300.018749","155067.202765","155834.375963","141957.76537","155069.976101","Mapping"
"Mixed","Male","tile","29","M_knife.wav","None","736.837171233","432","150464.153958","142724.968916","143492.208819","144259.446619","145026.604193","145793.685448","146560.955398","147328.138812","151231.122537","151998.351322","152765.539244","153532.686302","154300.018749","155067.202765","155834.375963","156601.628486","155837.233731","Mapping"
"Mixed","Male","tile","29","F_lash.wav","None","737.970242677","432","150464.153958","157368.897835","143492.208819","144259.446619","145026.604193","145793.685448","146560.955398","147328.138812","151231.122537","151998.351322","152765.539244","153532.686302","154300.018749","155067.202765","155834.375963","156601.628486","156604.343831","Mapping"
"Mixed","Male","tile","29","M_tile.wav","None","737.919162819","432","150464.153958","157368.897835","158136.143146","144259.446619","145026.604193","145793.685448","146560.955398","147328.138812","151231.122537","151998.351322","152765.539244","153532.686302","154300.018749","155067.202765","155834.375963","156601.628486","157372.032936","Mapping"
"Mixed","Male","tile","29","M_dime.wav","space","280.01828058","432","150464.153958","157368.897835","158136.143146","158903.265565","145026.604193","145793.685448","146560.955398","147328.138812","151231.122537","151998.351322","152765.539244","153532.686302","154300.018749","155067.202765","155834.375963","156601.628486","158138.733195","Mapping"
"Mixed","Male","tile","29","M_tile.wav","None","739.849380523","432","150464.153958","157368.897835","158136.143146","158903.265565","159670.491046","145793.685448","146560.955398","147328.138812","151231.122537","151998.351322","152765.539244","153532.686302","154300.018749","155067.202765","155834.375963","156601.628486","158905.983014","Mapping"
"Mixed","Male","tile","29","F_lash.wav","space","400.734408175","432","150464.153958","157368.897835","158136.143146","158903.265565","159670.491046","160438.227625","146560.955398","147328.138812","151231.122537","151998.351322","152765.539244","153532.686302","154300.018749","155067.202765","155834.375963","156601.628486","159672.987348","Mapping"
"Mixed","Male","tile","29","F_park.wav","None","739.415802665","432","150464.153958","157368.897835","158136.143146","158903.265565","159670.491046","160438.227625","161205.307678","147328.138812","151231.122537","151998.351322","152765.539244","153532.686302","154300.018749","155067.202765","155834.375963","156601.628486","160441.789694","Mapping"
"Mixed","Male","tile","29","F_park.wav","None","741.233945149","432","150464.153958","157368.897835","158136.143146","158903.265565","159670.491046","160438.227625","161205.307678","161972.155768","151231.122537","151998.351322","152765.539244","153532.686302","154300.018749","155067.202765","155834.375963","156601.628486","161208.280225","Mapping"
"Mixed","Female","done","44","M_greet.wav","None","742.437927456","432","165125.398648","157368.897835","158136.143146","158903.265565","159670.491046","160438.227625","161205.307678","161972.155768","151231.122537","151998.351322","152765.539244","153532.686302","154300.018749","155067.202765","155834.375963","156601.628486","161975.434194","Mapping"
"Mixed","Female","done","44","M_jaw.wav","None","729.828113272","432","165125.398648","157368.897835","158136.143146","158903.265565","159670.491046","160438.227625","161205.307678","161972.155768","165891.760578","151998.351322","152765.539244","153532.686302","154300.018749","155067.202765","155834.375963","156601.628486","165128.737168","Mapping"
"Mixed","Female","done","44","F_done.wav","None","731.846068144","432","165125.398648","157368.897835","158136.143146","158903.265565","159670.491046","160438.227625","161205.307678","161972.155768","165891.760578","166658.978547","152765.539244","153532.686302","154300.018749","155067.202765","155834.375963","156601.628486","165894.983117","Mapping"
"Mixed","Female","done","44","M_cling.wav","space","320.516795959","432","165125.398648","157368.897835","158136.143146","158903.265565","159670.491046","160438.227625","161205.307678","161972.155768","165891.760578","166658.978547","167426.085642","153532.686302","154300.018749","155067.202765","155834.375963","156601.628486","166662.207996","Mapping"
"Mixed","Female","done","44","F_done.wav","None","733.403703349","432","165125.398648","157368.897835","158136.143146","158903.265565","159670.491046","160438.227625","161205.307678","161972.155768","165891.760578","166658.978547","167426.085642","168193.452043","154300.018749","155067.202765","155834.375963","156601.628486","167428.990884","Mapping"
"Mixed","Female","done","44","M_greet.wav","space","332.662684841","432","165125.398648","157368.897835","158136.143146","158903.265565","159670.491046","160438.227625","161205.307678","161972.155768","165891.760578","166658.978547","167426.085642","168193.452043","168960.978894","155067.202765","155834.375963","156601.628486","168196.06643","Mapping"
"Mixed","Female","done","44","F_done.wav","None","734.120924653","432","165125.398648","157368.897835","158136.143146","158903.265565","159670.491046","160438.227625","161205.307678","161972.155768","165891.760578","166658.978547","167426.085642","168193.452043","168960.978894","169727.948675","155834.375963","156601.628486","168964.095667","Mapping"
"Mixed","Female","done","44","F_reek.wav","space","307.892258757","432","165125.398648","157368.897835","158136.143146","158903.265565","159670.491046","160438.227625","161205.307678","161972.155768","165891.760578","166658.978547","167426.085642","168193.452043","168960.978894","169727.948675","170495.144108","156601.628486","169730.8428","Mapping"
"Mixed","Female","done","44","F_bluff.wav","None","736.58387523","432","165125.398648","157368.897835","158136.143146","158903.265565","159670.491046","160438.227625","161205.307678","161972.155768","165891.760578","166658.978547","167426.085642","168193.452043","168960.978894","169727.948675","170495.144108","171262.241288","170497.820392","Mapping"
"Mixed","Female","done","44","F_romp.wav","None","737.481678856","432","165125.398648","172029.501623","158136.143146","158903.265565","159670.491046","160438.227625","161205.307678","161972.155768","165891.760578","166658.978547","167426.085642","168193.452043","168960.978894","169727.948675","170495.144108","171262.241288","171265.139619","Mapping"
"Mixed","Female","done","44","F_done.wav","None","737.713941977","432","165125.398648","172029.501623","172796.743629","158903.265565","159670.491046","160438.227625","161205.307678","161972.155768","165891.760578","166658.978547","167426.085642","168193.452043","168960.978894","169727.948675","170495.144108","171262.241288","172032.696518","Mapping"
"Mixed","Female","done","44","M_lash.wav","space","280.076571713","432","165125.398648","172029.501623","172796.743629","173564.387664","159670.491046","160438.227625","161205.307678","161972.155768","165891.760578","166658.978547","167426.085642","168193.452043","168960.978894","169727.948675","170495.144108","171262.241288","172799.595688","Mapping"
"Mixed","Female","done","44","M_park.wav","None","738.707895925","432","165125.398648","172029.501623","172796.743629","173564.387664","174331.456299","160438.227625","161205.307678","161972.155768","165891.760578","166658.978547","167426.085642","168193.452043","168960.978894","169727.948675","170495.144108","171262.241288","173567.436831","Mapping"
"Mixed","Female","done","44","M_dime.wav","None","739.832854686","432","165125.398648","172029.501623","172796.743629","173564.387664","174331.456299","175098.373798","161205.307678","161972.155768","165891.760578","166658.978547","167426.085642","168193.452043","168960.978894","169727.948675","170495.144108","171262.241288","174334.378067","Mapping"
"Mixed","Female","done","44","F_park.wav","space","434.186907811","432","165125.398648","172029.501623","172796.743629","173564.387664","174331.456299","175098.373798","175865.64525","161972.155768","165891.760578","166658.978547","167426.085642","168193.452043","168960.978894","169727.948675","170495.144108","171262.241288","175101.558777","Mapping"
"Mixed","Female","done","44","M_depth.wav","None","741.526602691","432","165125.398648","172029.501623","172796.743629","173564.387664","174331.456299","175098.373798","175865.64525","176632.764965","165891.760578","166658.978547","167426.085642","168193.452043","168960.978894","169727.948675","170495.144108","171262.241288","175868.761422","Mapping"
"Mixed","Male","cave","16","F_dime.wav","None","742.727880768","432","179768.799942","172029.501623","172796.743629","173564.387664","174331.456299","175098.373798","175865.64525","176632.764965","165891.760578","166658.978547","167426.085642","168193.452043","168960.978894","169727.948675","170495.144108","171262.241288","176635.906376","Mapping"
"Mixed","Male","cave","16","M_cave.wav","None","733.792811681","432","179768.799942","172029.501623","172796.743629","173564.387664","174331.456299","175098.373798","175865.64525","176632.764965","180536.01791","166658.978547","167426.085642","168193.452043","168960.978894","169727.948675","170495.144108","171262.241288","179771.979813","Mapping"
"Mixed","Male","cave","16","M_reek.wav","space","424.68244854","432","179768.799942","172029.501623","172796.743629","173564.387664","174331.456299","175098.373798","175865.64525","176632.764965","180536.01791","181302.895447","167426.085642","168193.452043","168960.978894","169727.948675","170495.144108","171262.241288","180539.063472","Mapping"
"Mixed","Male","cave","16","M_cave.wav","None","735.853433258","432","179768.799942","172029.501623","172796.743629","173564.387664","174331.456299","175098.373798","175865.64525","176632.764965","180536.01791","181302.895447","182070.095387","168193.452043","168960.978894","169727.948675","170495.144108","171262.241288","181305.43712","Mapping"
"Mixed","Male","cave","16","F_jaw.wav","space","440.754575704","432","179768.799942","172029.501623","172796.743629","173564.387664","174331.456299","175098.373798","175865.64525","176632.764965","180536.01791","181302.895447","182070.095387","182837.332586","168960.978894","169727.948675","170495.144108","171262.241288","182073.018657","Mapping"
"Mixed","Male","cave","16","M_cave.wav","None","735.878672716","432","179768.799942","172029.501623","172796.743629","173564.387664","174331.456299","175098.373798","175865.64525","176632.764965","180536.01791","181302.895447","182070.095387","182837.332586","183604.8357","169727.948675","170495.144108","171262.241288","182840.675312","Mapping"
"Mixed","Male","cave","16","F_cling.wav","space","403.279086524","432","179768.799942","172029.501623","172796.743629","173564.387664","174331.456299","175098.373798","175865.64525","176632.764965","180536.01791","181302.895447","182070.095387","182837.332586","183604.8357","184372.180467","170495.144108","171262.241288","183608.504135","Mapping"
"Mixed","Male","cave","16","M_knife.wav","None","737.751500696","432","179768.799942","172029.501623","172796.743629","173564.387664","174331.456299","175098.373798","175865.64525","176632.764965","180536.01791","181302.895447","182070.095387","182837.332586","183604.8357","184372.180467","185138.967261","171262.241288","184375.168038","Mapping"
"Mixed","Male","cave","16","F_greet.wav","None","739.017079302","432","179768.799942","172029.501623","172796.743629","173564.387664","174331.456299","175098.373798","175865.64525","176632.764965","180536.01791","181302.895447","182070.095387","182837.332586","183604.8357","184372.180467","185138.967261","185906.154582","185141.774851","Mapping"
"Mixed","Male","cave","16","M_cave.wav","None","740.083446461","432","179768.799942","186673.447969","172796.743629","173564.387664","174331.456299","175098.373798","175865.64525","176632.764965","180536.01791","181302.895447","182070.095387","182837.332586","183604.8357","184372.180467","185138.967261","185906.154582","185908.770772","Mapping"
"Mixed","Male","cave","16","M_bluff.wav","space","333.528939143","432","179768.799942","186673.447969","187440.708604","173564.387664","174331.456299","175098.373798","175865.64525","176632.764965","180536.01791","181302.895447","182070.095387","182837.332586","183604.8357","184372.180467","185138.967261","185906.154582","186676.245943","Mapping"
"Mixed","Male","cave","16","F_depth.wav","None","741.475522833","432","179768.799942","186673.447969","187440.708604","188208.146516","174331.456299","175098.373798","175865.64525","176632.764965","180536.01791","181302.895447","182070.095387","182837.332586","183604.8357","184372.180467","185138.967261","185906.154582","187443.574785","Mapping"
"Mixed","Male","cave","16","F_knife.wav","None","742.070152477","432","179768.799942","186673.447969","187440.708604","188208.146516","188992.563674","175098.373798","175865.64525","176632.764965","180536.01791","181302.895447","182070.095387","182837.332586","183604.8357","184372.180467","185138.967261","185906.154582","188211.319477","Mapping"
"Mixed","Male","cave","16","F_priest.wav","None","725.218306299","432","179768.799942","186673.447969","187440.708604","188208.146516","188992.563674","189759.323126","175865.64525","176632.764965","180536.01791","181302.895447","182070.095387","182837.332586","183604.8357","184372.180467","185138.967261","185906.154582","188996.211677","Mapping"
"Mixed","Male","cave","16","F_knife.wav","None","726.793669222","432","179768.799942","186673.447969","187440.708604","188208.146516","188992.563674","189759.323126","190526.526972","176632.764965","180536.01791","181302.895447","182070.095387","182837.332586","183604.8357","184372.180467","185138.967261","185906.154582","189762.494584","Mapping"
"Mixed","Male","cave","16","M_romp.wav","None","728.31464712","432","179768.799942","186673.447969","187440.708604","188208.146516","188992.563674","189759.323126","190526.526972","191293.800227","180536.01791","181302.895447","182070.095387","182837.332586","183604.8357","184372.180467","185138.967261","185906.154582","190529.650656","Mapping"
"Mixed","Female","tile","36","M_depth.wav","None","729.952207281","432","194429.457514","186673.447969","187440.708604","188208.146516","188992.563674","189759.323126","190526.526972","191293.800227","180536.01791","181302.895447","182070.095387","182837.332586","183604.8357","184372.180467","185138.967261","185906.154582","191296.756249","Mapping"
"Mixed","Female","tile","36","M_bluff.wav","None","730.670630464","432","194429.457514","186673.447969","187440.708604","188208.146516","188992.563674","189759.323126","190526.526972","191293.800227","195196.434205","181302.895447","182070.095387","182837.332586","183604.8357","184372.180467","185138.967261","185906.154582","194433.613311","Mapping"
"Mixed","Female","tile","36","F_tile.wav","None","732.919346106","432","194429.457514","186673.447969","187440.708604","188208.146516","188992.563674","189759.323126","190526.526972","191293.800227","195196.434205","195963.733","182070.095387","182837.332586","183604.8357","184372.180467","185138.967261","185906.154582","195199.607466","Mapping"
"Mixed","Female","tile","36","F_lash.wav","space","459.979532001","432","194429.457514","186673.447969","187440.708604","188208.146516","188992.563674","189759.323126","190526.526972","191293.800227","195196.434205","195963.733","196731.197354","182837.332586","183604.8357","184372.180467","185138.967261","185906.154582","195966.813416","Mapping"
"Mixed","Female","tile","36","M_jolt.wav","None","733.395590665","432","194429.457514","186673.447969","187440.708604","188208.146516","188992.563674","189759.323126","190526.526972","191293.800227","195196.434205","195963.733","196731.197354","197498.42013","183604.8357","184372.180467","185138.967261","185906.154582","196734.474578","Mapping"
"Mixed","Female","tile","36","F_tile.wav","None","734.623009614","432","194429.457514","186673.447969","187440.708604","188208.146516","188992.563674","189759.323126","190526.526972","191293.800227","195196.434205","195963.733","196731.197354","197498.42013","198265.401929","184372.180467","185138.967261","185906.154582","197501.532396","Mapping"
"Mixed","Female","tile","36","M_priest.wav","space","484.373469482","432","194429.457514","186673.447969","187440.708604","188208.146516","188992.563674","189759.323126","190526.526972","191293.800227","195196.434205","195963.733","196731.197354","197498.42013","198265.401929","199032.731372","185138.967261","185906.154582","198268.372674","Mapping"
"Mixed","Female","tile","36","M_jolt.wav","None","736.316757619","432","194429.457514","186673.447969","187440.708604","188208.146516","188992.563674","189759.323126","190526.526972","191293.800227","195196.434205","195963.733","196731.197354","197498.42013","198265.401929","199032.731372","199799.90427","185906.154582","199035.687995","Mapping"
"Mixed","Female","tile","36","F_tile.wav","None","737.80678713","432","194429.457514","186673.447969","187440.708604","188208.146516","188992.563674","189759.323126","190526.526972","191293.800227","195196.434205","195963.733","196731.197354","197498.42013","198265.401929","199032.731372","199799.90427","200567.086483","199802.643954","Mapping"
"Mixed","Female","tile","36","M_romp.wav","space","344.786038493","432","194429.457514","201334.563457","187440.708604","188208.146516","188992.563674","189759.323126","190526.526972","191293.800227","195196.434205","195963.733","196731.197354","197498.42013","198265.401929","199032.731372","199799.90427","200567.086483","200569.995631","Mapping"
"Mixed","Female","tile","36","F_tile.wav","None","738.77339833","432","194429.457514","201334.563457","202101.718326","188208.146516","188992.563674","189759.323126","190526.526972","191293.800227","195196.434205","195963.733","196731.197354","197498.42013","198265.401929","199032.731372","199799.90427","200567.086483","201337.986708","Mapping"
"Mixed","Female","tile","36","F_depth.wav","space","563.680357873","432","194429.457514","201334.563457","202101.718326","202868.513234","188992.563674","189759.323126","190526.526972","191293.800227","195196.434205","195963.733","196731.197354","197498.42013","198265.401929","199032.731372","199799.90427","200567.086483","202105.107325","Mapping"
"Mixed","Female","tile","36","M_depth.wav","None","741.56416141","432","194429.457514","201334.563457","202101.718326","202868.513234","203635.737512","189759.323126","190526.526972","191293.800227","195196.434205","195963.733","196731.197354","197498.42013","198265.401929","199032.731372","199799.90427","200567.086483","202871.52364","Mapping"
"Mixed","Female","tile","36","F_cad.wav","None","742.647655345","432","194429.457514","201334.563457","202101.718326","202868.513234","203635.737512","204419.999627","190526.526972","191293.800227","195196.434205","195963.733","196731.197354","197498.42013","198265.401929","199032.731372","199799.90427","200567.086483","203638.506341","Mapping"
"Mixed","Female","tile","36","F_knife.wav","None","726.900335985","432","194429.457514","201334.563457","202101.718326","202868.513234","203635.737512","204419.999627","205187.070065","191293.800227","195196.434205","195963.733","196731.197354","197498.42013","198265.401929","199032.731372","199799.90427","200567.086483","204423.28917","Mapping"
"Mixed","Female","tile","36","M_jaw.wav","None","728.235924043","432","194429.457514","201334.563457","202101.718326","202868.513234","203635.737512","204419.999627","205187.070065","205954.423846","195196.434205","195963.733","196731.197354","197498.42013","198265.401929","199032.731372","199799.90427","200567.086483","205190.36081","Mapping"
"Mixed","Male","ball","2","F_bluff.wav","None","729.836526425","432","209090.0604","201334.563457","202101.718326","202868.513234","203635.737512","204419.999627","205187.070065","205954.423846","195196.434205","195963.733","196731.197354","197498.42013","198265.401929","199032.731372","199799.90427","200567.086483","205957.240149","Mapping"
"Mixed","Male","ball","2","F_jolt.wav","None","730.781503802","432","209090.0604","201334.563457","202101.718326","202868.513234","203635.737512","204419.999627","205187.070065","205954.423846","209856.919308","195963.733","196731.197354","197498.42013","198265.401929","199032.731372","199799.90427","200567.086483","209093.316291","Mapping"
"Mixed","Male","ball","2","F_cling.wav","None","732.367683637","432","209090.0604","201334.563457","202101.718326","202868.513234","203635.737512","204419.999627","205187.070065","205954.423846","209856.919308","210624.108131","196731.197354","197498.42013","198265.401929","199032.731372","199799.90427","200567.086483","209860.148456","Mapping"
"Mixed","Male","ball","2","F_dime.wav","None","733.545825544","432","209090.0604","201334.563457","202101.718326","202868.513234","203635.737512","204419.999627","205187.070065","205954.423846","209856.919308","210624.108131","211391.409329","197498.42013","198265.401929","199032.731372","199799.90427","200567.086483","210627.571646","Mapping"
"Mixed","Male","ball","2","F_knife.wav","None","735.304775486","432","209090.0604","201334.563457","202101.718326","202868.513234","203635.737512","204419.999627","205187.070065","205954.423846","209856.919308","210624.108131","211391.409329","212158.53265","198265.401929","199032.731372","199799.90427","200567.086483","211394.181463","Mapping"
"Mixed","Male","ball","2","M_ball.wav","None","737.823613437","432","209090.0604","201334.563457","202101.718326","202868.513234","203635.737512","204419.999627","205187.070065","205954.423846","209856.919308","210624.108131","211391.409329","212158.53265","212925.686919","199032.731372","199799.90427","200567.086483","212161.258211","Mapping"
"Mixed","Male","ball","2","F_cling.wav","space","309.327001834","432","209090.0604","201334.563457","202101.718326","202868.513234","203635.737512","204419.999627","205187.070065","205954.423846","209856.919308","210624.108131","211391.409329","212158.53265","212925.686919","213693.402766","199799.90427","200567.086483","212928.422696","Mapping"
"Mixed","Male","ball","2","M_knife.wav","None","738.129792117","432","209090.0604","201334.563457","202101.718326","202868.513234","203635.737512","204419.999627","205187.070065","205954.423846","209856.919308","210624.108131","211391.409329","212158.53265","212925.686919","213693.402766","214460.708171","200567.086483","213696.820309","Mapping"
"Mixed","Male","ball","2","M_greet.wav","None","738.936252937","432","209090.0604","201334.563457","202101.718326","202868.513234","203635.737512","204419.999627","205187.070065","205954.423846","209856.919308","210624.108131","211391.409329","212158.53265","212925.686919","213693.402766","214460.708171","215227.777708","214464.338447","Mapping"
"Mixed","Male","ball","2","M_ball.wav","None","740.639615977","432","209090.0604","215994.737272","202101.718326","202868.513234","203635.737512","204419.999627","205187.070065","205954.423846","209856.919308","210624.108131","211391.409329","212158.53265","212925.686919","213693.402766","214460.708171","215227.777708","215231.003551","Mapping"
"Mixed","Male","ball","2","F_gnash.wav","space","404.169378406","432","209090.0604","215994.737272","216761.811316","202868.513234","203635.737512","204419.999627","205187.070065","205954.423846","209856.919308","210624.108131","211391.409329","212158.53265","212925.686919","213693.402766","214460.708171","215227.777708","215997.59504","Mapping"
"Mixed","Male","ball","2","M_ball.wav","None","742.624218703","432","209090.0604","215994.737272","216761.811316","217546.176793","203635.737512","204419.999627","205187.070065","205954.423846","209856.919308","210624.108131","211391.409329","212158.53265","212925.686919","213693.402766","214460.708171","215227.777708","216764.958736","Mapping"
"Mixed","Male","ball","2","F_cling.wav","space","506.390390738","432","209090.0604","215994.737272","216761.811316","217546.176793","218313.776959","204419.999627","205187.070065","205954.423846","209856.919308","210624.108131","211391.409329","212158.53265","212925.686919","213693.402766","214460.708171","215227.777708","217549.39843","Mapping"
"Mixed","Male","ball","2","M_gnash.wav","None","726.401255724","432","209090.0604","215994.737272","216761.811316","217546.176793","218313.776959","219081.317932","205187.070065","205954.423846","209856.919308","210624.108131","211391.409329","212158.53265","212925.686919","213693.402766","214460.708171","215227.777708","218317.18068","Mapping"
"Mixed","Male","ball","2","M_ball.wav","None","727.668336678","432","209090.0604","215994.737272","216761.811316","217546.176793","218313.776959","219081.317932","219847.669947","205954.423846","209856.919308","210624.108131","211391.409329","212158.53265","212925.686919","213693.402766","214460.708171","215227.777708","219084.459644","Mapping"
"Mixed","Male","ball","2","M_lash.wav","space","346.408875635","432","209090.0604","215994.737272","216761.811316","217546.176793","218313.776959","219081.317932","219847.669947","220615.558264","209856.919308","210624.108131","211391.409329","212158.53265","212925.686919","213693.402766","214460.708171","215227.777708","219850.400917","Mapping"
"Mixed","Female","ball","7","M_reek.wav","None","729.555587206","432","223750.651869","215994.737272","216761.811316","217546.176793","218313.776959","219081.317932","219847.669947","220615.558264","209856.919308","210624.108131","211391.409329","212158.53265","212925.686919","213693.402766","214460.708171","215227.777708","220619.144671","Mapping"
"Mixed","Female","ball","7","M_gnash.wav","None","730.696470862","432","223750.651869","215994.737272","216761.811316","217546.176793","218313.776959","219081.317932","219847.669947","220615.558264","224517.460297","210624.108131","211391.409329","212158.53265","212925.686919","213693.402766","214460.708171","215227.777708","223754.149938","Mapping"
"Mixed","Female","ball","7","M_dime.wav","None","733.142595134","432","223750.651869","215994.737272","216761.811316","217546.176793","218313.776959","219081.317932","219847.669947","220615.558264","224517.460297","225284.762097","211391.409329","212158.53265","212925.686919","213693.402766","214460.708171","215227.777708","224520.114948","Mapping"
"Mixed","Female","ball","7","F_jaw.wav","None","733.630257544","432","223750.651869","215994.737272","216761.811316","217546.176793","218313.776959","219081.317932","219847.669947","220615.558264","224517.460297","225284.762097","226051.992685","212158.53265","212925.686919","213693.402766","214460.708171","215227.777708","225287.606043","Mapping"
"Mixed","Female","ball","7","F_ball.wav","None","735.272324753","432","223750.651869","215994.737272","216761.811316","217546.176793","218313.776959","219081.317932","219847.669947","220615.558264","224517.460297","225284.762097","226051.992685","226819.157471","212925.686919","213693.402766","214460.708171","215227.777708","226055.00219","Mapping"
"Mixed","Female","ball","7","F_depth.wav","space","302.945625192","432","223750.651869","215994.737272","216761.811316","217546.176793","218313.776959","219081.317932","219847.669947","220615.558264","224517.460297","225284.762097","226051.992685","226819.157471","227586.450256","213693.402766","214460.708171","215227.777708","226821.792891","Mapping"
"Mixed","Female","ball","7","F_ball.wav","None","736.703462193","432","223750.651869","215994.737272","216761.811316","217546.176793","218313.776959","219081.317932","219847.669947","220615.558264","224517.460297","225284.762097","226051.992685","226819.157471","227586.450256","228353.672131","214460.708171","215227.777708","227589.137958","Mapping"
"Mixed","Female","ball","7","F_cad.wav","space","305.462660324","432","223750.651869","215994.737272","216761.811316","217546.176793","218313.776959","219081.317932","219847.669947","220615.558264","224517.460297","225284.762097","226051.992685","226819.157471","227586.450256","228353.672131","229120.8267","215227.777708","228356.315964","Mapping"
"Mixed","Female","ball","7","F_ball.wav","None","739.377643007","432","223750.651869","215994.737272","216761.811316","217546.176793","218313.776959","219081.317932","219847.669947","220615.558264","224517.460297","225284.762097","226051.992685","226819.157471","227586.450256","228353.672131","229120.8267","229888.218941","229123.721126","Mapping"
"Mixed","Female","ball","7","M_cling.wav","space","300.147350366","432","223750.651869","230655.727765","216761.811316","217546.176793","218313.776959","219081.317932","219847.669947","220615.558264","224517.460297","225284.762097","226051.992685","226819.157471","227586.450256","228353.672131","229120.8267","229888.218941","229891.671339","Mapping"
"Mixed","Female","ball","7","M_jaw.wav","None","739.509248759","432","223750.651869","230655.727765","231422.979686","217546.176793","218313.776959","219081.317932","219847.669947","220615.558264","224517.460297","225284.762097","226051.992685","226819.157471","227586.450256","228353.672131","229120.8267","229888.218941","230658.985458","Mapping"
"Mixed","Female","ball","7","M_park.wav","None","740.450019561","432","223750.651869","230655.727765","231422.979686","232207.369201","218313.776959","219081.317932","219847.669947","220615.558264","224517.460297","225284.762097","226051.992685","226819.157471","227586.450256","228353.672131","229120.8267","229888.218941","231426.632197","Mapping"
"Mixed","Female","ball","7","F_dime.wav","None","724.523319759","432","223750.651869","230655.727765","231422.979686","232207.369201","232973.984728","219081.317932","219847.669947","220615.558264","224517.460297","225284.762097","226051.992685","226819.157471","227586.450256","228353.672131","229120.8267","229888.218941","232211.144904","Mapping"
"Mixed","Female","ball","7","M_knife.wav","None","727.417444434","432","223750.651869","230655.727765","231422.979686","232207.369201","232973.984728","233741.196687","219847.669947","220615.558264","224517.460297","225284.762097","226051.992685","226819.157471","227586.450256","228353.672131","229120.8267","229888.218941","232976.870439","Mapping"
"Mixed","Female","ball","7","F_ball.wav","None","728.789389332","432","223750.651869","230655.727765","231422.979686","232207.369201","232973.984728","233741.196687","234508.236176","220615.558264","224517.460297","225284.762097","226051.992685","226819.157471","227586.450256","228353.672131","229120.8267","229888.218941","233744.0193","Mapping"
"Mixed","Female","ball","7","M_depth.wav","space","270.194121489","432","223750.651869","230655.727765","231422.979686","232207.369201","232973.984728","233741.196687","234508.236176","235275.610389","224517.460297","225284.762097","226051.992685","226819.157471","227586.450256","228353.672131","229120.8267","229888.218941","234511.581607","Mapping"
"Mixed","Male","done","39","F_romp.wav","None","730.232846032","432","238411.152896","230655.727765","231422.979686","232207.369201","232973.984728","233741.196687","234508.236176","235275.610389","224517.460297","225284.762097","226051.992685","226819.157471","227586.450256","228353.672131","229120.8267","229888.218941","235279.252083","Mapping"
"Mixed","Male","done","39","F_romp.wav","None","731.937110479","432","238411.152896","230655.727765","231422.979686","232207.369201","232973.984728","233741.196687","234508.236176","235275.610389","239178.15032","225284.762097","226051.992685","226819.157471","227586.450256","228353.672131","229120.8267","229888.218941","238414.357406","Mapping"
"Mixed","Male","done","39","F_gnash.wav","None","733.909393946","432","238411.152896","230655.727765","231422.979686","232207.369201","232973.984728","233741.196687","234508.236176","235275.610389","239178.15032","239945.343951","226051.992685","226819.157471","227586.450256","228353.672131","229120.8267","229888.218941","239181.011093","Mapping"
"Mixed","Male","done","39","M_jolt.wav","None","735.084230686","432","238411.152896","230655.727765","231422.979686","232207.369201","232973.984728","233741.196687","234508.236176","235275.610389","239178.15032","239945.343951","240712.592567","226819.157471","227586.450256","228353.672131","229120.8267","229888.218941","239948.13231","Mapping"
"Mixed","Male","done","39","M_cling.wav","None","736.629546635","432","238411.152896","230655.727765","231422.979686","232207.369201","232973.984728","233741.196687","234508.236176","235275.610389","239178.15032","239945.343951","240712.592567","241479.811738","227586.450256","228353.672131","229120.8267","229888.218941","240715.212663","Mapping"
"Mixed","Male","done","39","M_done.wav","None","737.973247375","432","238411.152896","230655.727765","231422.979686","232207.369201","232973.984728","233741.196687","234508.236176","235275.610389","239178.15032","239945.343951","240712.592567","241479.811738","242247.026101","228353.672131","229120.8267","229888.218941","241482.629543","Mapping"
"Mixed","Male","done","39","F_depth.wav","space","367.883448984","432","238411.152896","230655.727765","231422.979686","232207.369201","232973.984728","233741.196687","234508.236176","235275.610389","239178.15032","239945.343951","240712.592567","241479.811738","242247.026101","243014.208614","229120.8267","229888.218941","242249.92353","Mapping"
"Mixed","Male","done","39","M_done.wav","None","739.873718572","432","238411.152896","230655.727765","231422.979686","232207.369201","232973.984728","233741.196687","234508.236176","235275.610389","239178.15032","239945.343951","240712.592567","241479.811738","242247.026101","243014.208614","243781.491784","229888.218941","243017.028823","Mapping"
"Mixed","Male","done","39","F_cling.wav","space","499.280675407","432","238411.152896","230655.727765","231422.979686","232207.369201","232973.984728","233741.196687","234508.236176","235275.610389","239178.15032","239945.343951","240712.592567","241479.811738","242247.026101","243014.208614","243781.491784","244548.667687","243784.508501","Mapping"
"Mixed","Male","done","39","M_jaw.wav","None","741.508274035","432","238411.152896","245332.924995","231422.979686","232207.369201","232973.984728","233741.196687","234508.236176","235275.610389","239178.15032","239945.343951","240712.592567","241479.811738","242247.026101","243014.208614","243781.491784","244548.667687","244551.709042","Mapping"
"Mixed","Male","done","39","F_gnash.wav","None","726.003734238","432","238411.152896","245332.924995","246100.133949","232207.369201","232973.984728","233741.196687","234508.236176","235275.610389","239178.15032","239945.343951","240712.592567","241479.811738","242247.026101","243014.208614","243781.491784","244548.667687","245335.843458","Mapping"
"Mixed","Male","done","39","M_done.wav","None","726.790364055","432","238411.152896","245332.924995","246100.133949","246867.330284","232973.984728","233741.196687","234508.236176","235275.610389","239178.15032","239945.343951","240712.592567","241479.811738","242247.026101","243014.208614","243781.491784","244548.667687","246103.138947","Mapping"
"Mixed","Male","done","39","F_knife.wav","space","529.6698859","432","238411.152896","245332.924995","246100.133949","246867.330284","247635.22431","233741.196687","234508.236176","235275.610389","239178.15032","239945.343951","240712.592567","241479.811738","242247.026101","243014.208614","243781.491784","244548.667687","246870.136071","Mapping"
"Mixed","Male","done","39","M_cad.wav","None","728.427924216","432","238411.152896","245332.924995","246100.133949","246867.330284","247635.22431","248402.215123","234508.236176","235275.610389","239178.15032","239945.343951","240712.592567","241479.811738","242247.026101","243014.208614","243781.491784","244548.667687","247638.71066","Mapping"
"Mixed","Male","done","39","M_done.wav","None","728.904469246","432","238411.152896","245332.924995","246100.133949","246867.330284","247635.22431","248402.215123","249169.056904","235275.610389","239178.15032","239945.343951","240712.592567","241479.811738","242247.026101","243014.208614","243781.491784","244548.667687","248406.50523","Mapping"
"Mixed","Male","done","39","F_knife.wav","space","587.408754847","432","238411.152896","245332.924995","246100.133949","246867.330284","247635.22431","248402.215123","249169.056904","249936.347586","239178.15032","239945.343951","240712.592567","241479.811738","242247.026101","243014.208614","243781.491784","244548.667687","249172.392719","Mapping"
"Mixed","Female","done","45","F_cad.wav","None","732.160960446","432","253072.501849","245332.924995","246100.133949","246867.330284","247635.22431","248402.215123","249169.056904","249936.347586","239178.15032","239945.343951","240712.592567","241479.811738","242247.026101","243014.208614","243781.491784","244548.667687","249939.869692","Mapping"
"Mixed","Female","done","45","F_done.wav","None","728.421313881","432","253072.501849","245332.924995","246100.133949","246867.330284","247635.22431","248402.215123","249169.056904","249936.347586","253838.81901","239945.343951","240712.592567","241479.811738","242247.026101","243014.208614","243781.491784","244548.667687","253075.971073","Mapping"
"Mixed","Female","done","45","M_dime.wav","space","389.266379057","432","253072.501849","245332.924995","246100.133949","246867.330284","247635.22431","248402.215123","249169.056904","249936.347586","253838.81901","254606.339551","240712.592567","241479.811738","242247.026101","243014.208614","243781.491784","244548.667687","253841.594749","Mapping"
"Mixed","Female","done","45","F_done.wav","None","731.287494869","432","253072.501849","245332.924995","246100.133949","246867.330284","247635.22431","248402.215123","249169.056904","249936.347586","253838.81901","254606.339551","255373.674102","241479.811738","242247.026101","243014.208614","243781.491784","244548.667687","254609.420869","Mapping"
"Mixed","Female","done","45","F_gnash.wav","space","286.11150673","432","253072.501849","245332.924995","246100.133949","246867.330284","247635.22431","248402.215123","249169.056904","249936.347586","253838.81901","254606.339551","255373.674102","256140.42484","242247.026101","243014.208614","243781.491784","244548.667687","255376.689617","Mapping"
"Mixed","Female","done","45","M_cling.wav","None","733.750445446","432","253072.501849","245332.924995","246100.133949","246867.330284","247635.22431","248402.215123","249169.056904","249936.347586","253838.81901","254606.339551","255373.674102","256140.42484","256907.583616","243014.208614","243781.491784","244548.667687","256143.351416","Mapping"
"Mixed","Female","done","45","M_cad.wav","None","735.467029153","432","253072.501849","245332.924995","246100.133949","246867.330284","247635.22431","248402.215123","249169.056904","249936.347586","253838.81901","254606.339551","255373.674102","256140.42484","256907.583616","257674.830129","243781.491784","244548.667687","256910.537234","Mapping"
"Mixed","Female","done","45","M_cad.wav","None","736.58447617","432","253072.501849","245332.924995","246100.133949","246867.330284","247635.22431","248402.215123","249169.056904","249936.347586","253838.81901","254606.339551","255373.674102","256140.42484","256907.583616","257674.830129","258442.050502","244548.667687","257677.970639","Mapping"
"Mixed","Female","done","45","F_done.wav","None","738.575989702","432","253072.501849","245332.924995","246100.133949","246867.330284","247635.22431","248402.215123","249169.056904","249936.347586","253838.81901","254606.339551","255373.674102","256140.42484","256907.583616","257674.830129","258442.050502","259209.315043","258444.897453","Mapping"
"Mixed","Female","done","45","M_jolt.wav","space","378.519777822","432","253072.501849","259976.508674","246100.133949","246867.330284","247635.22431","248402.215123","249169.056904","249936.347586","253838.81901","254606.339551","255373.674102","256140.42484","256907.583616","257674.830129","258442.050502","259209.315043","259212.290595","Mapping"
"Mixed","Female","done","45","F_done.wav","None","740.913644391","432","253072.501849","259976.508674","260743.646116","246867.330284","247635.22431","248402.215123","249169.056904","249936.347586","253838.81901","254606.339551","255373.674102","256140.42484","256907.583616","257674.830129","258442.050502","259209.315043","259979.558442","Mapping"
"Mixed","Female","done","45","M_romp.wav","space","594.581568825","432","253072.501849","259976.508674","260743.646116","261528.598411","247635.22431","248402.215123","249169.056904","249936.347586","253838.81901","254606.339551","255373.674102","256140.42484","256907.583616","257674.830129","258442.050502","259209.315043","260746.237668","Mapping"
"Mixed","Female","done","45","F_gnash.wav","None","725.442757208","432","253072.501849","259976.508674","260743.646116","261528.598411","262295.773713","248402.215123","249169.056904","249936.347586","253838.81901","254606.339551","255373.674102","256140.42484","256907.583616","257674.830129","258442.050502","259209.315043","261531.779785","Mapping"
"Mixed","Female","done","45","M_jolt.wav","None","725.924710694","432","253072.501849","259976.508674","260743.646116","261528.598411","262295.773713","263062.432807","249169.056904","249936.347586","253838.81901","254606.339551","255373.674102","256140.42484","256907.583616","257674.830129","258442.050502","259209.315043","262299.7955","Mapping"
"Mixed","Female","done","45","F_gnash.wav","None","728.794797786","432","253072.501849","259976.508674","260743.646116","261528.598411","262295.773713","263062.432807","263829.287809","249936.347586","253838.81901","254606.339551","255373.674102","256140.42484","256907.583616","257674.830129","258442.050502","259209.315043","263065.533054","Mapping"
"Mixed","Female","done","45","M_jolt.wav","None","731.423307199","432","253072.501849","259976.508674","260743.646116","261528.598411","262295.773713","263062.432807","263829.287809","264596.498866","253838.81901","254606.339551","255373.674102","256140.42484","256907.583616","257674.830129","258442.050502","259209.315043","263831.973708","Mapping"
"Mixed","Male","done","40","F_cad.wav","None","733.033825081","432","267732.535646","259976.508674","260743.646116","261528.598411","262295.773713","263062.432807","263829.287809","264596.498866","253838.81901","254606.339551","255373.674102","256140.42484","256907.583616","257674.830129","258442.050502","259209.315043","264599.160127","Mapping"
"Mixed","Male","done","40","F_gnash.wav","None","730.877353655","432","267732.535646","259976.508674","260743.646116","261528.598411","262295.773713","263062.432807","263829.287809","264596.498866","268499.418891","254606.339551","255373.674102","256140.42484","256907.583616","257674.830129","258442.050502","259209.315043","267735.725133","Mapping"
"Mixed","Male","done","40","M_done.wav","None","733.114651446","432","267732.535646","259976.508674","260743.646116","261528.598411","262295.773713","263062.432807","263829.287809","264596.498866","268499.418891","269266.646475","255373.674102","256140.42484","256907.583616","257674.830129","258442.050502","259209.315043","268502.302199","Mapping"
"Mixed","Male","done","40","F_lash.wav","space","322.581323642","432","267732.535646","259976.508674","260743.646116","261528.598411","262295.773713","263062.432807","263829.287809","264596.498866","268499.418891","269266.646475","270034.121946","256140.42484","256907.583616","257674.830129","258442.050502","259209.315043","269269.242233","Mapping"
"Mixed","Male","done","40","F_greet.wav","None","734.98147003","432","267732.535646","259976.508674","260743.646116","261528.598411","262295.773713","263062.432807","263829.287809","264596.498866","268499.418891","269266.646475","270034.121946","270801.395502","256907.583616","257674.830129","258442.050502","259209.315043","270037.106512","Mapping"
"Mixed","Male","done","40","F_reek.wav","None","736.472100483","432","267732.535646","259976.508674","260743.646116","261528.598411","262295.773713","263062.432807","263829.287809","264596.498866","268499.418891","269266.646475","270034.121946","270801.395502","271568.199423","257674.830129","258442.050502","259209.315043","270804.497251","Mapping"
"Mixed","Male","done","40","M_lash.wav","None","738.231651363","432","267732.535646","259976.508674","260743.646116","261528.598411","262295.773713","263062.432807","263829.287809","264596.498866","268499.418891","269266.646475","270034.121946","270801.395502","271568.199423","272335.491307","258442.050502","259209.315043","271571.727238","Mapping"
"Mixed","Male","done","40","F_jaw.wav","None","740.133925379","432","267732.535646","259976.508674","260743.646116","261528.598411","262295.773713","263062.432807","263829.287809","264596.498866","268499.418891","269266.646475","270034.121946","270801.395502","271568.199423","272335.491307","273102.803924","259209.315043","272338.631817","Mapping"
"Mixed","Male","done","40","F_dime.wav","None","741.569569866","432","267732.535646","259976.508674","260743.646116","261528.598411","262295.773713","263062.432807","263829.287809","264596.498866","268499.418891","269266.646475","270034.121946","270801.395502","271568.199423","272335.491307","273102.803924","273886.957269","273105.956753","Mapping"
"Mixed","Male","done","40","M_gnash.wav","space","387.075353607","432","267732.535646","274654.23413","260743.646116","261528.598411","262295.773713","263062.432807","263829.287809","264596.498866","268499.418891","269266.646475","270034.121946","270801.395502","271568.199423","272335.491307","273102.803924","273886.957269","273890.76362","Mapping"
"Mixed","Male","done","40","M_done.wav","None","726.208354141","432","267732.535646","274654.23413","275421.193995","261528.598411","262295.773713","263062.432807","263829.287809","264596.498866","268499.418891","269266.646475","270034.121946","270801.395502","271568.199423","272335.491307","273102.803924","273886.957269","274657.333175","Mapping"
"Mixed","Male","done","40","M_park.wav","space","479.503455703","432","267732.535646","274654.23413","275421.193995","276188.438405","262295.773713","263062.432807","263829.287809","264596.498866","268499.418891","269266.646475","270034.121946","270801.395502","271568.199423","272335.491307","273102.803924","273886.957269","275424.312871","Mapping"
"Mixed","Male","done","40","M_done.wav","None","729.150553976","432","267732.535646","274654.23413","275421.193995","276188.438405","276956.117294","263062.432807","263829.287809","264596.498866","268499.418891","269266.646475","270034.121946","270801.395502","271568.199423","272335.491307","273102.803924","273886.957269","276191.142332","Mapping"
"Mixed","Male","done","40","F_park.wav","space","523.204377723","432","267732.535646","274654.23413","275421.193995","276188.438405","276956.117294","277723.146868","263829.287809","264596.498866","268499.418891","269266.646475","270034.121946","270801.395502","271568.199423","272335.491307","273102.803924","273886.957269","276959.606349","Mapping"
"Mixed","Male","done","40","M_done.wav","None","730.035737872","432","267732.535646","274654.23413","275421.193995","276188.438405","276956.117294","277723.146868","278490.446865","264596.498866","268499.418891","269266.646475","270034.121946","270801.395502","271568.199423","272335.491307","273102.803924","273886.957269","277726.118213","Mapping"
"Mixed","Male","done","40","M_depth.wav","space","389.368238304","432","267732.535646","274654.23413","275421.193995","276188.438405","276956.117294","277723.146868","278490.446865","279257.152232","268499.418891","269266.646475","270034.121946","270801.395502","271568.199423","272335.491307","273102.803924","273886.957269","278493.447055","Mapping"
"Mixed","Female","cave","20","M_reek.wav","None","733.082801653","432","282393.815491","274654.23413","275421.193995","276188.438405","276956.117294","277723.146868","278490.446865","279257.152232","268499.418891","269266.646475","270034.121946","270801.395502","271568.199423","272335.491307","273102.803924","273886.957269","279259.813793","Mapping"
"Mixed","Female","cave","20","F_cave.wav","None","729.78093952","432","282393.815491","274654.23413","275421.193995","276188.438405","276956.117294","277723.146868","278490.446865","279257.152232","283160.090586","269266.646475","270034.121946","270801.395502","271568.199423","272335.491307","273102.803924","273886.957269","282397.201785","Mapping"
"Mixed","Female","cave","20","F_park.wav","space","399.788529387","432","282393.815491","274654.23413","275421.193995","276188.438405","276956.117294","277723.146868","278490.446865","279257.152232","283160.090586","283927.228028","270034.121946","270801.395502","271568.199423","272335.491307","273102.803924","273886.957269","283163.030682","Mapping"
"Mixed","Female","cave","20","F_cave.wav","None","733.863422074","432","282393.815491","274654.23413","275421.193995","276188.438405","276956.117294","277723.146868","278490.446865","279257.152232","283160.090586","283927.228028","284694.414448","270801.395502","271568.199423","272335.491307","273102.803924","273886.957269","283929.953589","Mapping"
"Mixed","Female","cave","20","M_bluff.wav","space","317.361863537","432","282393.815491","274654.23413","275421.193995","276188.438405","276956.117294","277723.146868","278490.446865","279257.152232","283160.090586","283927.228028","284694.414448","285461.627008","271568.199423","272335.491307","273102.803924","273886.957269","284697.465417","Mapping"
"Mixed","Female","cave","20","M_reek.wav","None","735.823386283","432","282393.815491","274654.23413","275421.193995","276188.438405","276956.117294","277723.146868","278490.446865","279257.152232","283160.090586","283927.228028","284694.414448","285461.627008","286228.922197","272335.491307","273102.803924","273886.957269","285464.544869","Mapping"
"Mixed","Female","cave","20","F_knife.wav","None","737.558298644","432","282393.815491","274654.23413","275421.193995","276188.438405","276956.117294","277723.146868","278490.446865","279257.152232","283160.090586","283927.228028","284694.414448","285461.627008","286228.922197","286996.046719","273102.803924","273886.957269","286231.846369","Mapping"
"Mixed","Female","cave","20","F_cad.wav","None","739.375239249","432","282393.815491","274654.23413","275421.193995","276188.438405","276956.117294","277723.146868","278490.446865","279257.152232","283160.090586","283927.228028","284694.414448","285461.627008","286228.922197","286996.046719","287763.415524","273886.957269","286998.982008","Mapping"
"Mixed","Female","cave","20","M_bluff.wav","None","741.22072448","432","282393.815491","274654.23413","275421.193995","276188.438405","276956.117294","277723.146868","278490.446865","279257.152232","283160.090586","283927.228028","284694.414448","285461.627008","286228.922197","286996.046719","287763.415524","288530.491671","287765.989348","Mapping"
"Mixed","Female","cave","20","F_cave.wav","None","743.187899961","432","282393.815491","289314.835213","275421.193995","276188.438405","276956.117294","277723.146868","278490.446865","279257.152232","283160.090586","283927.228028","284694.414448","285461.627008","286228.922197","286996.046719","287763.415524","288530.491671","288533.046265","Mapping"
"Mixed","Female","cave","20","M_romp.wav","space","455.094494733","432","282393.815491","289314.835213","290082.051379","276188.438405","276956.117294","277723.146868","278490.446865","279257.152232","283160.090586","283927.228028","284694.414448","285461.627008","286228.922197","286996.046719","287763.415524","288530.491671","289317.751272","Mapping"
"Mixed","Female","cave","20","F_cave.wav","None","728.149388753","432","282393.815491","289314.835213","290082.051379","290849.201742","276956.117294","277723.146868","278490.446865","279257.152232","283160.090586","283927.228028","284694.414448","285461.627008","286228.922197","286996.046719","287763.415524","288530.491671","290085.233654","Mapping"
"Mixed","Female","cave","20","M_knife.wav","space","440.949881044","432","282393.815491","289314.835213","290082.051379","290849.201742","291616.118339","277723.146868","278490.446865","279257.152232","283160.090586","283927.228028","284694.414448","285461.627008","286228.922197","286996.046719","287763.415524","288530.491671","290851.878627","Mapping"
"Mixed","Female","cave","20","M_depth.wav","None","731.855683176","432","282393.815491","289314.835213","290082.051379","290849.201742","291616.118339","292383.371463","278490.446865","279257.152232","283160.090586","283927.228028","284694.414448","285461.627008","286228.922197","286996.046719","287763.415524","288530.491671","291618.764877","Mapping"
"Mixed","Female","cave","20","F_greet.wav","None","733.094519972","432","282393.815491","289314.835213","290082.051379","290849.201742","291616.118339","292383.371463","293150.463835","279257.152232","283160.090586","283927.228028","284694.414448","285461.627008","286228.922197","286996.046719","287763.415524","288530.491671","292386.156818","Mapping"
"Mixed","Female","cave","20","M_lash.wav","None","735.475141835","432","282393.815491","289314.835213","290082.051379","290849.201742","291616.118339","292383.371463","293150.463835","293917.854574","283160.090586","283927.228028","284694.414448","285461.627008","286228.922197","286996.046719","287763.415524","288530.491671","293153.110673","Mapping"
"Mixed","Female","cave","21","M_cling.wav","None","736.538804767","432","297054.385326","289314.835213","290082.051379","290849.201742","291616.118339","292383.371463","293150.463835","293917.854574","283160.090586","283927.228028","284694.414448","285461.627008","286228.922197","286996.046719","287763.415524","288530.491671","293920.581337","Mapping"
"Mixed","Female","cave","21","F_priest.wav","None","728.940525618","432","297054.385326","289314.835213","290082.051379","290849.201742","291616.118339","292383.371463","293150.463835","293917.854574","297820.580195","283927.228028","284694.414448","285461.627008","286228.922197","286996.046719","287763.415524","288530.491671","297058.089818","Mapping"
"Mixed","Female","cave","21","F_cave.wav","None","732.504096904","432","297054.385326","289314.835213","290082.051379","290849.201742","291616.118339","292383.371463","293150.463835","293917.854574","297820.580195","298587.890107","284694.414448","285461.627008","286228.922197","286996.046719","287763.415524","288530.491671","297823.522094","Mapping"
"Mixed","Female","cave","21","M_bluff.wav","None","734.336060998","432","297054.385326","289314.835213","290082.051379","290849.201742","291616.118339","292383.371463","293150.463835","293917.854574","297820.580195","298587.890107","299355.105372","285461.627008","286228.922197","286996.046719","287763.415524","288530.491671","298590.66164","Mapping"
"Mixed","Female","cave","21","M_lash.wav","space","59.7829646867","432","297054.385326","289314.835213","290082.051379","290849.201742","291616.118339","292383.371463","293150.463835","293917.854574","297820.580195","298587.890107","299355.105372","300122.238007","286228.922197","286996.046719","287763.415524","288530.491671","299358.058388","Mapping"
"Mixed","Female","cave","21","M_cling.wav","None","735.466428214","432","297054.385326","289314.835213","290082.051379","290849.201742","291616.118339","292383.371463","293150.463835","293917.854574","297820.580195","298587.890107","299355.105372","300122.238007","300889.452971","286996.046719","287763.415524","288530.491671","300125.708733","Mapping"
"Mixed","Female","cave","21","F_cave.wav","None","737.492495768","432","297054.385326","289314.835213","290082.051379","290849.201742","291616.118339","292383.371463","293150.463835","293917.854574","297820.580195","298587.890107","299355.105372","300122.238007","300889.452971","301656.743953","287763.415524","288530.491671","300892.299922","Mapping"
"Mixed","Female","cave","21","F_cad.wav","space","322.389924408","432","297054.385326","289314.835213","290082.051379","290849.201742","291616.118339","292383.371463","293150.463835","293917.854574","297820.580195","298587.890107","299355.105372","300122.238007","300889.452971","301656.743953","302424.398805","288530.491671","301659.474923","Mapping"
"Mixed","Female","cave","21","M_jolt.wav","None","738.593416947","432","297054.385326","289314.835213","290082.051379","290849.201742","291616.118339","292383.371463","293150.463835","293917.854574","297820.580195","298587.890107","299355.105372","300122.238007","300889.452971","301656.743953","302424.398805","303191.514614","302427.755052","Mapping"
"Mixed","Female","cave","21","F_cave.wav","None","740.674470468","432","297054.385326","303958.461859","290082.051379","290849.201742","291616.118339","292383.371463","293150.463835","293917.854574","297820.580195","298587.890107","299355.105372","300122.238007","300889.452971","301656.743953","302424.398805","303191.514614","303194.622974","Mapping"
"Mixed","Female","cave","21","F_lash.wav","space","454.728222103","432","297054.385326","303958.461859","304743.216745","290849.201742","291616.118339","292383.371463","293150.463835","293917.854574","297820.580195","298587.890107","299355.105372","300122.238007","300889.452971","301656.743953","302424.398805","303191.514614","303961.127627","Mapping"
"Mixed","Female","cave","21","F_cave.wav","None","724.706305838","432","297054.385326","303958.461859","304743.216745","305510.410376","291616.118339","292383.371463","293150.463835","293917.854574","297820.580195","298587.890107","299355.105372","300122.238007","300889.452971","301656.743953","302424.398805","303191.514614","304746.874664","Mapping"
"Mixed","Female","cave","21","F_dime.wav","space","381.45747061","432","297054.385326","303958.461859","304743.216745","305510.410376","306277.683631","292383.371463","293150.463835","293917.854574","297820.580195","298587.890107","299355.105372","300122.238007","300889.452971","301656.743953","302424.398805","303191.514614","305514.386191","Mapping"
"Mixed","Female","cave","21","M_park.wav","None","726.820110562","432","297054.385326","303958.461859","304743.216745","305510.410376","306277.683631","307044.148321","293150.463835","293917.854574","297820.580195","298587.890107","299355.105372","300122.238007","300889.452971","301656.743953","302424.398805","303191.514614","306281.282657","Mapping"
"Mixed","Female","cave","21","M_greet.wav","None","730.158029062","432","297054.385326","303958.461859","304743.216745","305510.410376","306277.683631","307044.148321","307811.67337","293917.854574","297820.580195","298587.890107","299355.105372","300122.238007","300889.452971","301656.743953","302424.398805","303191.514614","307047.058071","Mapping"
"Mixed","Female","cave","21","M_dime.wav","None","731.489410544","432","297054.385326","303958.461859","304743.216745","305510.410376","306277.683631","307044.148321","307811.67337","308578.901555","297820.580195","298587.890107","299355.105372","300122.238007","300889.452971","301656.743953","302424.398805","303191.514614","307814.859251","Mapping"
"Mixed","Male","cave","17","F_jolt.wav","None","732.861956383","432","311715.002034","303958.461859","304743.216745","305510.410376","306277.683631","307044.148321","307811.67337","308578.901555","297820.580195","298587.890107","299355.105372","300122.238007","300889.452971","301656.743953","302424.398805","303191.514614","308582.153539","Mapping"
"Mixed","Male","cave","17","F_gnash.wav","None","729.254516511","432","311715.002034","303958.461859","304743.216745","305510.410376","306277.683631","307044.148321","307811.67337","308578.901555","312481.339025","298587.890107","299355.105372","300122.238007","300889.452971","301656.743953","302424.398805","303191.514614","311718.543371","Mapping"
"Mixed","Male","cave","17","F_depth.wav","None","732.706313049","432","311715.002034","303958.461859","304743.216745","305510.410376","306277.683631","307044.148321","307811.67337","308578.901555","312481.339025","313248.885107","299355.105372","300122.238007","300889.452971","301656.743953","302424.398805","303191.514614","312484.172155","Mapping"
"Mixed","Male","cave","17","M_cave.wav","None","734.365507033","432","311715.002034","303958.461859","304743.216745","305510.410376","306277.683631","307044.148321","307811.67337","308578.901555","312481.339025","313248.885107","314016.155958","300122.238007","300889.452971","301656.743953","302424.398805","303191.514614","313251.921053","Mapping"
"Mixed","Male","cave","17","F_bluff.wav","space","435.713895104","432","311715.002034","303958.461859","304743.216745","305510.410376","306277.683631","307044.148321","307811.67337","308578.901555","312481.339025","313248.885107","314016.155958","314782.893476","300889.452971","301656.743953","302424.398805","303191.514614","314019.13151","Mapping"
"Mixed","Male","cave","17","F_cling.wav","None","736.740419972","432","311715.002034","303958.461859","304743.216745","305510.410376","306277.683631","307044.148321","307811.67337","308578.901555","312481.339025","313248.885107","314016.155958","314782.893476","315550.190768","301656.743953","302424.398805","303191.514614","314785.701666","Mapping"
"Mixed","Male","cave","17","M_cave.wav","None","738.250580958","432","311715.002034","303958.461859","304743.216745","305510.410376","306277.683631","307044.148321","307811.67337","308578.901555","312481.339025","313248.885107","314016.155958","314782.893476","315550.190768","316317.805357","302424.398805","303191.514614","315553.245945","Mapping"
"Mixed","Male","cave","17","M_jolt.wav","space","275.881413001","432","311715.002034","303958.461859","304743.216745","305510.410376","306277.683631","307044.148321","307811.67337","308578.901555","312481.339025","313248.885107","314016.155958","314782.893476","315550.190768","316317.805357","317085.049166","303191.514614","316321.017379","Mapping"
"Mixed","Male","cave","17","F_priest.wav","None","739.634845117","432","311715.002034","303958.461859","304743.216745","305510.410376","306277.683631","307044.148321","307811.67337","308578.901555","312481.339025","313248.885107","314016.155958","314782.893476","315550.190768","316317.805357","317085.049166","317851.847378","317088.252474","Mapping"
"Mixed","Male","cave","17","M_cave.wav","None","742.401570615","432","311715.002034","318636.073437","304743.216745","305510.410376","306277.683631","307044.148321","307811.67337","308578.901555","312481.339025","313248.885107","314016.155958","314782.893476","315550.190768","316317.805357","317085.049166","317851.847378","317854.909766","Mapping"
"Mixed","Male","cave","17","M_reek.wav","space","315.616134263","432","311715.002034","318636.073437","319403.94012","305510.410376","306277.683631","307044.148321","307811.67337","308578.901555","312481.339025","313248.885107","314016.155958","314782.893476","315550.190768","316317.805357","317085.049166","317851.847378","318639.252407","Mapping"
"Mixed","Male","cave","17","F_romp.wav","None","727.220035804","432","311715.002034","318636.073437","319403.94012","320171.153882","306277.683631","307044.148321","307811.67337","308578.901555","312481.339025","313248.885107","314016.155958","314782.893476","315550.190768","316317.805357","317085.049166","317851.847378","319407.081531","Mapping"
"Mixed","Male","cave","17","M_reek.wav","None","728.41169885","432","311715.002034","318636.073437","319403.94012","320171.153882","320937.729446","307044.148321","307811.67337","308578.901555","312481.339025","313248.885107","314016.155958","314782.893476","315550.190768","316317.805357","317085.049166","317851.847378","320174.866787","Mapping"
"Mixed","Male","cave","17","M_cave.wav","None","732.301279821","432","311715.002034","318636.073437","319403.94012","320171.153882","320937.729446","321704.635828","307811.67337","308578.901555","312481.339025","313248.885107","314016.155958","314782.893476","315550.190768","316317.805357","317085.049166","317851.847378","320940.932754","Mapping"
"Mixed","Male","cave","17","M_romp.wav","space","316.395552807","432","311715.002034","318636.073437","319403.94012","320171.153882","320937.729446","321704.635828","322471.861308","308578.901555","312481.339025","313248.885107","314016.155958","314782.893476","315550.190768","316317.805357","317085.049166","317851.847378","321707.481577","Mapping"
"Mixed","Male","cave","17","F_greet.wav","None","734.527760702","432","311715.002034","318636.073437","319403.94012","320171.153882","320937.729446","321704.635828","322471.861308","323238.995746","312481.339025","313248.885107","314016.155958","314782.893476","315550.190768","316317.805357","317085.049166","317851.847378","322474.996409","Mapping"
"Mixed","Male","cave","18","F_jaw.wav","None","736.846485795","432","326374.965521","318636.073437","319403.94012","320171.153882","320937.729446","321704.635828","322471.861308","323238.995746","312481.339025","313248.885107","314016.155958","314782.893476","315550.190768","316317.805357","317085.049166","317851.847378","323241.695166","Mapping"
"Mixed","Male","cave","18","F_depth.wav","None","730.784808971","432","326374.965521","318636.073437","319403.94012","320171.153882","320937.729446","321704.635828","322471.861308","323238.995746","327142.137217","313248.885107","314016.155958","314782.893476","315550.190768","316317.805357","317085.049166","317851.847378","326378.097618","Mapping"
"Mixed","Male","cave","18","M_gnash.wav","None","732.332528676","432","326374.965521","318636.073437","319403.94012","320171.153882","320937.729446","321704.635828","322471.861308","323238.995746","327142.137217","327909.4922","314016.155958","314782.893476","315550.190768","316317.805357","317085.049166","317851.847378","327145.59262","Mapping"
"Mixed","Male","cave","18","M_dime.wav","None","734.282577381","432","326374.965521","318636.073437","319403.94012","320171.153882","320937.729446","321704.635828","322471.861308","323238.995746","327142.137217","327909.4922","328676.331877","314782.893476","315550.190768","316317.805357","317085.049166","317851.847378","327912.733668","Mapping"
"Mixed","Male","cave","18","F_priest.wav","None","737.082655023","432","326374.965521","318636.073437","319403.94012","320171.153882","320937.729446","321704.635828","322471.861308","323238.995746","327142.137217","327909.4922","328676.331877","329443.480738","315550.190768","316317.805357","317085.049166","317851.847378","328679.162903","Mapping"
"Mixed","Male","cave","18","F_park.wav","None","739.648366256","432","326374.965521","318636.073437","319403.94012","320171.153882","320937.729446","321704.635828","322471.861308","323238.995746","327142.137217","327909.4922","328676.331877","329443.480738","330210.720641","316317.805357","317085.049166","317851.847378","329446.263689","Mapping"
"Mixed","Male","cave","18","M_cave.wav","None","741.212912268","432","326374.965521","318636.073437","319403.94012","320171.153882","320937.729446","321704.635828","322471.861308","323238.995746","327142.137217","327909.4922","328676.331877","329443.480738","330210.720641","330994.877291","317085.049166","317851.847378","330213.92485","Mapping"
"Mixed","Male","cave","18","F_romp.wav","space","370.373742309","432","326374.965521","318636.073437","319403.94012","320171.153882","320937.729446","321704.635828","322471.861308","323238.995746","327142.137217","327909.4922","328676.331877","329443.480738","330210.720641","330994.877291","331762.320312","317851.847378","330997.489876","Mapping"
"Mixed","Male","cave","18","M_cave.wav","None","726.490795709","432","326374.965521","318636.073437","319403.94012","320171.153882","320937.729446","321704.635828","322471.861308","323238.995746","327142.137217","327909.4922","328676.331877","329443.480738","330210.720641","330994.877291","331762.320312","332529.431613","331765.943676","Mapping"
"Mixed","Male","cave","18","F_dime.wav","space","365.245625009","432","326374.965521","333296.557939","319403.94012","320171.153882","320937.729446","321704.635828","322471.861308","323238.995746","327142.137217","327909.4922","328676.331877","329443.480738","330210.720641","330994.877291","331762.320312","332529.431613","332532.623804","Mapping"
"Mixed","Male","cave","18","F_priest.wav","None","729.639117797","432","326374.965521","333296.557939","334063.643701","320171.153882","320937.729446","321704.635828","322471.861308","323238.995746","327142.137217","327909.4922","328676.331877","329443.480738","330210.720641","330994.877291","331762.320312","332529.431613","333299.926205","Mapping"
"Mixed","Male","cave","18","M_cave.wav","None","732.929862548","432","326374.965521","333296.557939","334063.643701","334830.792261","320937.729446","321704.635828","322471.861308","323238.995746","327142.137217","327909.4922","328676.331877","329443.480738","330210.720641","330994.877291","331762.320312","332529.431613","334066.367158","Mapping"
"Mixed","Male","cave","18","M_romp.wav","space","380.437976733","432","326374.965521","333296.557939","334063.643701","334830.792261","335598.0556","321704.635828","322471.861308","323238.995746","327142.137217","327909.4922","328676.331877","329443.480738","330210.720641","330994.877291","331762.320312","332529.431613","334833.430385","Mapping"
"Mixed","Male","cave","18","M_cave.wav","None","735.670447177","432","326374.965521","333296.557939","334063.643701","334830.792261","335598.0556","336365.233005","322471.861308","323238.995746","327142.137217","327909.4922","328676.331877","329443.480738","330210.720641","330994.877291","331762.320312","332529.431613","335600.732786","Mapping"
"Mixed","Male","cave","18","F_reek.wav","space","631.869564877","432","326374.965521","333296.557939","334063.643701","334830.792261","335598.0556","336365.233005","337132.862617","323238.995746","327142.137217","327909.4922","328676.331877","329443.480738","330210.720641","330994.877291","331762.320312","332529.431613","336368.002735","Mapping"
"Mixed","Male","cave","18","M_jaw.wav","None","737.475368991","432","326374.965521","333296.557939","334063.643701","334830.792261","335598.0556","336365.233005","337132.862617","337900.200774","327142.137217","327909.4922","328676.331877","329443.480738","330210.720641","330994.877291","331762.320312","332529.431613","337135.871221","Mapping"
"Mixed","Male","done","41","F_lash.wav","None","739.14057237","432","341035.716539","333296.557939","334063.643701","334830.792261","335598.0556","336365.233005","337132.862617","337900.200774","327142.137217","327909.4922","328676.331877","329443.480738","330210.720641","330994.877291","331762.320312","332529.431613","337903.500232","Mapping"
"Mixed","Male","done","41","M_greet.wav","None","731.283288294","432","341035.716539","333296.557939","334063.643701","334830.792261","335598.0556","336365.233005","337132.862617","337900.200774","341802.518658","327909.4922","328676.331877","329443.480738","330210.720641","330994.877291","331762.320312","332529.431613","341039.055359","Mapping"
"Mixed","Male","done","41","M_priest.wav","None","734.321337979","432","341035.716539","333296.557939","334063.643701","334830.792261","335598.0556","336365.233005","337132.862617","337900.200774","341802.518658","342569.651894","328676.331877","329443.480738","330210.720641","330994.877291","331762.320312","332529.431613","341805.162491","Mapping"
"Mixed","Male","done","41","F_bluff.wav","None","736.534297721","432","341035.716539","333296.557939","334063.643701","334830.792261","335598.0556","336365.233005","337132.862617","337900.200774","341802.518658","342569.651894","343336.973524","329443.480738","330210.720641","330994.877291","331762.320312","332529.431613","342572.282206","Mapping"
"Mixed","Male","done","41","F_park.wav","None","737.864777795","432","341035.716539","333296.557939","334063.643701","334830.792261","335598.0556","336365.233005","337132.862617","337900.200774","341802.518658","342569.651894","343336.973524","344104.138911","330210.720641","330994.877291","331762.320312","332529.431613","343340.088795","Mapping"
"Mixed","Male","done","41","F_knife.wav","None","740.294977166","432","341035.716539","333296.557939","334063.643701","334830.792261","335598.0556","336365.233005","337132.862617","337900.200774","341802.518658","342569.651894","343336.973524","344104.138911","344871.379114","330994.877291","331762.320312","332529.431613","344107.024021","Mapping"
"Mixed","Male","done","41","M_done.wav","None","742.839054577","432","341035.716539","333296.557939","334063.643701","334830.792261","335598.0556","336365.233005","337132.862617","337900.200774","341802.518658","342569.651894","343336.973524","344104.138911","344871.379114","345656.075108","331762.320312","332529.431613","344874.152149","Mapping"
"Mixed","Male","done","41","M_park.wav","space","321.68952941","432","341035.716539","333296.557939","334063.643701","334830.792261","335598.0556","336365.233005","337132.862617","337900.200774","341802.518658","342569.651894","343336.973524","344104.138911","344871.379114","345656.075108","346423.592344","332529.431613","345659.205402","Mapping"
"Mixed","Male","done","41","F_knife.wav","None","727.107359648","432","341035.716539","333296.557939","334063.643701","334830.792261","335598.0556","336365.233005","337132.862617","337900.200774","341802.518658","342569.651894","343336.973524","344104.138911","344871.379114","345656.075108","346423.592344","347190.031495","346426.915239","Mapping"
"Mixed","Male","done","41","F_greet.wav","None","730.673334692","432","341035.716539","347956.952299","334063.643701","334830.792261","335598.0556","336365.233005","337132.862617","337900.200774","341802.518658","342569.651894","343336.973524","344104.138911","344871.379114","345656.075108","346423.592344","347190.031495","347192.737826","Mapping"
"Mixed","Male","done","41","M_done.wav","None","732.599045346","432","341035.716539","347956.952299","348724.204822","334830.792261","335598.0556","336365.233005","337132.862617","337900.200774","341802.518658","342569.651894","343336.973524","344104.138911","344871.379114","345656.075108","346423.592344","347190.031495","347960.254762","Mapping"
"Mixed","Male","done","41","F_bluff.wav","space","395.958441426","432","341035.716539","347956.952299","348724.204822","349491.813101","335598.0556","336365.233005","337132.862617","337900.200774","341802.518658","342569.651894","343336.973524","344104.138911","344871.379114","345656.075108","346423.592344","347190.031495","348726.930383","Mapping"
"Mixed","Male","done","41","M_done.wav","None","735.547254577","432","341035.716539","347956.952299","348724.204822","349491.813101","350258.925003","336365.233005","337132.862617","337900.200774","341802.518658","342569.651894","343336.973524","344104.138911","344871.379114","345656.075108","346423.592344","347190.031495","349494.828916","Mapping"
"Mixed","Male","done","41","F_bluff.wav","space","484.346126734","432","341035.716539","347956.952299","348724.204822","349491.813101","350258.925003","351026.306728","337132.862617","337900.200774","341802.518658","342569.651894","343336.973524","344104.138911","344871.379114","345656.075108","346423.592344","347190.031495","350262.522227","Mapping"
"Mixed","Male","done","41","M_done.wav","None","737.300796065","432","341035.716539","347956.952299","348724.204822","349491.813101","350258.925003","351026.306728","351793.206499","337900.200774","341802.518658","342569.651894","343336.973524","344104.138911","344871.379114","345656.075108","346423.592344","347190.031495","351029.8066","Mapping"
"Mixed","Male","done","41","M_romp.wav","space","386.658602058","432","341035.716539","347956.952299","348724.204822","349491.813101","350258.925003","351026.306728","351793.206499","352560.263416","341802.518658","342569.651894","343336.973524","344104.138911","344871.379114","345656.075108","346423.592344","347190.031495","351796.21991","Mapping"
"Mixed","Male","ball","6","F_jolt.wav","None","740.592442224","432","355696.380421","347956.952299","348724.204822","349491.813101","350258.925003","351026.306728","351793.206499","352560.263416","341802.518658","342569.651894","343336.973524","344104.138911","344871.379114","345656.075108","346423.592344","347190.031495","352563.47694","Mapping"
"Mixed","Male","ball","6","M_ball.wav","None","730.028226129","432","355696.380421","347956.952299","348724.204822","349491.813101","350258.925003","351026.306728","351793.206499","352560.263416","356463.550615","342569.651894","343336.973524","344104.138911","344871.379114","345656.075108","346423.592344","347190.031495","355700.171148","Mapping"
"Mixed","Male","ball","6","F_gnash.wav","space","372.154927014","432","355696.380421","347956.952299","348724.204822","349491.813101","350258.925003","351026.306728","351793.206499","352560.263416","356463.550615","357230.631569","343336.973524","344104.138911","344871.379114","345656.075108","346423.592344","347190.031495","356466.734393","Mapping"
"Mixed","Male","ball","6","F_gnash.wav","None","733.056059844","432","355696.380421","347956.952299","348724.204822","349491.813101","350258.925003","351026.306728","351793.206499","352560.263416","356463.550615","357230.631569","357997.603453","344104.138911","344871.379114","345656.075108","346423.592344","347190.031495","357233.870333","Mapping"
"Mixed","Male","ball","6","M_ball.wav","None","735.752475421","432","355696.380421","347956.952299","348724.204822","349491.813101","350258.925003","351026.306728","351793.206499","352560.263416","356463.550615","357230.631569","357997.603453","358764.829234","344871.379114","345656.075108","346423.592344","347190.031495","358000.741559","Mapping"
"Mixed","Male","ball","6","F_priest.wav","space","399.950783054","432","355696.380421","347956.952299","348724.204822","349491.813101","350258.925003","351026.306728","351793.206499","352560.263416","356463.550615","357230.631569","357997.603453","358764.829234","359532.063127","345656.075108","346423.592344","347190.031495","358767.924072","Mapping"
"Mixed","Male","ball","6","F_park.wav","None","738.100646551","432","355696.380421","347956.952299","348724.204822","349491.813101","350258.925003","351026.306728","351793.206499","352560.263416","356463.550615","357230.631569","357997.603453","358764.829234","359532.063127","360299.133565","346423.592344","347190.031495","359534.942229","Mapping"
"Mixed","Male","ball","6","F_priest.wav","None","741.142001405","432","355696.380421","347956.952299","348724.204822","349491.813101","350258.925003","351026.306728","351793.206499","352560.263416","356463.550615","357230.631569","357997.603453","358764.829234","359532.063127","360299.133565","361066.391797","347190.031495","360301.747953","Mapping"
"Mixed","Male","ball","6","F_cling.wav","None","743.088144005","432","355696.380421","347956.952299","348724.204822","349491.813101","350258.925003","351026.306728","351793.206499","352560.263416","356463.550615","357230.631569","357997.603453","358764.829234","359532.063127","360299.133565","361066.391797","361850.581199","361069.085809","Mapping"
"Mixed","Male","ball","6","M_gnash.wav","None","727.986233678","432","355696.380421","362617.929571","348724.204822","349491.813101","350258.925003","351026.306728","351793.206499","352560.263416","356463.550615","357230.631569","357997.603453","358764.829234","359532.063127","360299.133565","361066.391797","361850.581199","361853.419736","Mapping"
"Mixed","Male","ball","6","M_park.wav","None","730.078104109","432","355696.380421","362617.929571","363384.761436","349491.813101","350258.925003","351026.306728","351793.206499","352560.263416","356463.550615","357230.631569","357997.603453","358764.829234","359532.063127","360299.133565","361066.391797","361850.581199","362620.868466","Mapping"
"Mixed","Male","ball","6","M_ball.wav","None","732.96381563","432","355696.380421","362617.929571","363384.761436","364152.029884","350258.925003","351026.306728","351793.206499","352560.263416","356463.550615","357230.631569","357997.603453","358764.829234","359532.063127","360299.133565","361066.391797","361850.581199","363387.384537","Mapping"
"Mixed","Male","ball","6","M_jaw.wav","space","335.173109639","432","355696.380421","362617.929571","363384.761436","364152.029884","364919.22081","351026.306728","351793.206499","352560.263416","356463.550615","357230.631569","357997.603453","358764.829234","359532.063127","360299.133565","361066.391797","361850.581199","364154.705867","Mapping"
"Mixed","Male","ball","6","M_knife.wav","None","735.387705137","432","355696.380421","362617.929571","363384.761436","364152.029884","364919.22081","365686.407229","351793.206499","352560.263416","356463.550615","357230.631569","357997.603453","358764.829234","359532.063127","360299.133565","361066.391797","361850.581199","364921.930446","Mapping"
"Mixed","Male","ball","6","M_ball.wav","None","737.362692835","432","355696.380421","362617.929571","363384.761436","364152.029884","364919.22081","365686.407229","366453.734268","352560.263416","356463.550615","357230.631569","357997.603453","358764.829234","359532.063127","360299.133565","361066.391797","361850.581199","365689.19649","Mapping"
